time,seconds_elapsed,z,y,x
1761469511252014800,0.063014892578125,0.1780412759453058,0.23931144494414328,0.7439024504341185
1761469511261969000,0.072968994140625,0.1904676267981529,0.18051321901679038,0.7278362087089568
1761469511271923700,0.082923828125,0.18335633348822591,0.14973375761061905,0.6972456209383905
1761469511281878800,0.092878662109375,0.1919324386537075,0.14071896876692772,0.5653532614992931
1761469511291833900,0.102833740234375,0.15093933400809764,0.1335062609091401,0.45062969819977877
1761469511301788000,0.112787841796875,0.04568564637601375,0.11452362028062343,0.41322292760834095
1761469511311742700,0.12274267578125,-0.03382335914671421,0.11874006893187761,0.3687728143766522
1761469511321697800,0.13269775390625,-0.09068681761920451,0.1554237859457731,0.3462654336880892
1761469511331652900,0.14265283203125,-0.20946283464729784,0.21684271576553582,0.3693093689387664
1761469511341607000,0.15260693359375,-0.34714462767541404,0.2943947420015931,0.37424229529630393
1761469511351561700,0.162561767578125,-0.336508667370677,0.41150750199258324,0.33447705194521693
1761469511361516800,0.172516845703125,-0.2214472869515419,0.4988838798895478,0.27645664198994635
1761469511371472000,0.182471923828125,-0.14368833996653557,0.5389674684748054,0.293227104728017
1761469511381426000,0.192426025390625,-0.12305763987004756,0.5211655620634555,0.3714931061860174
1761469511391380700,0.202380615234375,-0.13148586099743842,0.5501297907412052,0.4241617433171719
1761469511401335800,0.212335693359375,-0.12410101144313812,0.5873714338988065,0.4380470608066767
1761469511411291000,0.222290771484375,-0.10629179850816727,0.6184969322636723,0.4046346570810303
1761469511421245000,0.232244873046875,-0.07055880634784698,0.6444084953725338,0.33656668116822835
1761469511431199700,0.24219970703125,-0.02138648689985275,0.6662529551729559,0.3166308314681053
1761469511441154800,0.25215478515625,-0.08168693408370017,0.6191939746171236,0.2028648246217519
1761469511451110000,0.26210986328125,-0.19358020586073396,0.5540379040956497,0.07675943281995132
1761469511461064000,0.27206396484375,-0.15886135917901992,0.5462020959034561,-0.04288330230638385
1761469511471018800,0.282018798828125,-0.04019464774429798,0.5654889801755547,-0.14022234435640274
1761469511480973800,0.291973876953125,0.10002221671938896,0.5914709781721234,-0.18753719936944543
1761469511490929000,0.301928955078125,0.2032341693907976,0.5960322947382927,-0.18479226630916817
1761469511500883700,0.3118837890625,0.3074199355304241,0.525737692284584,-0.15386230878271162
1761469511510837800,0.321837646484375,0.32417525549829,0.46515872042030093,-0.158736271494627
1761469511520792800,0.331792724609375,0.3003384528368711,0.44079701710194347,-0.25263068951610473
1761469511530748000,0.341747802734375,0.23320143763124943,0.3724143857493996,-0.33406521974131465
1761469511540702700,0.35170263671875,0.11589198602437972,0.308360138989985,-0.3496800279045477
1761469511550656800,0.36165673828125,-0.0037649054914712906,0.25808278090953823,-0.3893623787451535
1761469511560611800,0.37161181640625,-0.0987257471680641,0.21732290049791333,-0.47195561401881275
1761469511570567000,0.38156689453125,-0.09991174208223819,0.16792992403656243,-0.5448197016343475
1761469511580521700,0.391521728515625,-0.03615092531144619,0.14733838690668344,-0.5985273264244199
1761469511590475800,0.401475830078125,0.04886895258724689,0.15556903963536023,-0.6250346634693443
1761469511600430800,0.411430908203125,0.11219663863778113,0.15285481224060057,-0.636808249501884
1761469511610386000,0.421385986328125,0.15649170743823052,0.1233914018690586,-0.6386467169754206
1761469511620340700,0.4313408203125,0.1260451312482357,0.08408610417991876,-0.6335360228981822
1761469511630294800,0.441294677734375,0.06680792938172816,0.06605448066592216,-0.6609562370043247
1761469511640249900,0.451249755859375,-0.06298340265750885,0.024915245547890662,-0.664274056315422
1761469511650205000,0.461204833984375,-0.12821546102464199,0.020874445724487302,-0.6932087666377424
1761469511660159700,0.47115966796875,-0.1547872416079044,-0.004953823015093803,-0.7360612354144453
1761469511670113800,0.48111376953125,-0.16544482922255993,-0.04711977083235979,-0.7751100741244852
1761469511680068600,0.491068603515625,-0.15633330200612544,-0.0749085259899497,-0.8052382320150733
1761469511690024000,0.50102392578125,-0.11699030265510081,-0.10998860719949007,-0.8051224236156791
1761469511699978800,0.510978759765625,-0.05887947447001934,-0.12825024007707833,-0.7902636579841374
1761469511709932800,0.520932861328125,-0.012032967621088027,-0.12739713037908076,-0.7689044244173914
1761469511719887600,0.5308876953125,-0.008751461732387542,-0.15872954949289558,-0.7229659723240882
1761469511729843000,0.540843017578125,-0.01675765805542469,-0.18953619116693735,-0.6920612771030515
1761469511739797800,0.5507978515625,-0.04026654393672943,-0.2184162486925721,-0.6805479494418949
1761469511749751800,0.560751708984375,-0.09770517194867133,-0.2357444001123309,-0.6845327812943607
1761469511759706600,0.57070654296875,-0.22645956215560434,-0.2475686934188008,-0.7266369889870286
1761469511769662000,0.580661865234375,-0.306379486566782,-0.2570340025089681,-0.7492368702646345
1761469511779616800,0.59061669921875,-0.39323242511153217,-0.21287951122298834,-0.7835883449386805
1761469511789570800,0.60057080078125,-0.4207780191630125,-0.16515271440818904,-0.7684103572901337
1761469511799525600,0.610525634765625,-0.3869575826257467,-0.12159414318874477,-0.6873427972137928
1761469511809481000,0.62048095703125,-0.3616132980108261,-0.10654343518167733,-0.6555757130097597
1761469511819435800,0.630435791015625,-0.421840095436573,-0.11641659442037343,-0.668045464612916
1761469511829389800,0.640389892578125,-0.4537351168692112,-0.133843091648072,-0.7076905156504363
1761469511839344600,0.6503447265625,-0.4152010958135128,-0.12324497913569211,-0.7568900153663009
1761469511849300000,0.660300048828125,-0.3331879985153675,-0.10469868409782647,-0.7542102016977965
1761469511859254800,0.6702548828125,-0.19817045626044272,-0.09317147404178977,-0.6966651907019317
1761469511869209900,0.6802099609375,-0.025825346130132674,-0.09250994139313698,-0.601528700197488
1761469511879163600,0.69016357421875,0.09425298566818237,-0.07623787489756942,-0.5379957373658195
1761469511889119000,0.700118896484375,0.1175748245447874,-0.12410904861912131,-0.5187323435671627
1761469511899073800,0.71007373046875,0.16133622485995291,-0.1478100960716605,-0.5347633678484708
1761469511909028900,0.72002880859375,0.21904256389737128,-0.11971768179237842,-0.5276496268531308
1761469511918982700,0.729982666015625,0.19353402863144872,-0.11046557706147432,-0.44709056428819893
1761469511928938000,0.73993798828125,0.1592676018923521,-0.08349120702669025,-0.4048671871952712
1761469511938892800,0.749892822265625,0.08804360963404179,-0.06114639648869633,-0.3998051910979673
1761469511948847900,0.759847900390625,0.021745383340120314,-0.058467386537790295,-0.3842061650257557
1761469511958801700,0.7698017578125,0.04176584258377552,-0.051143473390489816,-0.34891032217368484
1761469511968757000,0.779757080078125,0.1431809749662876,-0.06436915792748332,-0.2859437610531226
1761469511978711800,0.7897119140625,0.23949147768616674,-0.0764206841185689,-0.2254057239874266
1761469511988667000,0.7996669921875,0.2944406269699335,-0.08446867375671863,-0.18758441777834667
1761469511998620700,0.80962060546875,0.29994916125833987,-0.13719225594550372,-0.18412070545684545
1761469512008576000,0.819575927734375,0.23194588461220264,-0.2038242442384362,-0.21585538522861897
1761469512018530800,0.82953076171875,0.15442951421141624,-0.2558579444669187,-0.2752241775855422
1761469512028486000,0.83948583984375,0.05567687903642654,-0.3066604954652488,-0.32204386949278413
1761469512038439700,0.849439697265625,-0.08032382903695107,-0.3431409449920058,-0.3612107085593044
1761469512048395000,0.85939501953125,-0.15773264741003512,-0.3431869760908186,-0.38636381798367947
1761469512058349800,0.869349853515625,-0.1715676960170269,-0.3456590652927756,-0.3546498156737536
1761469512068305000,0.879304931640625,-0.12036182491481304,-0.3670949442923069,-0.29932348537435755
1761469512078258700,0.8892587890625,-0.09204057031571865,-0.35727468428462744,-0.24814928805204106
1761469512088213800,0.8992138671875,-0.1383884799927473,-0.33771628959476946,-0.2058274920859374
1761469512098168800,0.9091689453125,-0.1837748511612415,-0.30966011567264795,-0.1805784845390357
1761469512108124000,0.9191240234375,-0.21300562182068825,-0.24063100311011074,-0.14168911070702597
1761469512118077700,0.92907763671875,-0.21687924838364123,-0.19111819966137408,-0.09356814520917832
1761469512128032800,0.93903271484375,-0.14862404280304908,-0.17565175046026707,-0.04524531872998923
1761469512137987800,0.94898779296875,-0.021680501410365104,-0.15176789378672836,0.018068210931029168
1761469512147942700,0.958942626953125,0.09159516463577747,-0.16922668584883213,0.05501194885428994
1761469512157896700,0.968896728515625,0.15414719013869763,-0.19644728572964668,0.056900685210339724
1761469512167851800,0.978851806640625,0.11241408078074455,-0.1998945035740733,0.06422938413061201
1761469512177806800,0.988806884765625,0.03627367490828037,-0.17520546799749134,0.03987696009725332
1761469512187761700,0.99876171875,-0.09385726434886454,-0.14477438163757322,0.021255006007291376
1761469512197715700,1.0087158203125,-0.1880325086057186,-0.11434534110426903,0.01919372609592974
1761469512207670800,1.0186708984375,-0.22490298036336898,-0.08257540735602378,0.025858663877844808
1761469512217625900,1.0286259765625,-0.18829671249985694,-0.02955167317688465,0.009462496078573166
1761469512227580700,1.03858056640625,-0.03442541669309139,-0.01298749186694622,0.03700611736867577
1761469512237534700,1.04853466796875,0.15096446844935416,-0.016310791070759296,0.11055581262819468
1761469512247489800,1.05848974609375,0.3115589350312948,-0.04606120169013738,0.14428458882663397
1761469512257444600,1.068444580078125,0.41979076169133184,-0.08275076392292977,0.15448763760682194
1761469512267399700,1.078399658203125,0.3852168764382601,-0.10164484948515891,0.14483177438061684
1761469512277353700,1.088353759765625,0.19742811346054076,-0.09782412215322256,0.14445088530424982
1761469512287308800,1.098308837890625,0.037385435542464256,-0.052476621690392494,0.13317538498695938
1761469512297263600,1.108263671875,-0.061356678238511084,0.00225128605812788,0.09285539382994175
1761469512307218700,1.11821875,-0.10291209294199943,0.010574293245375156,0.06921798619814216
1761469512317172700,1.1281728515625,-0.14995850627720356,-0.008476736444234847,0.07149042464215308
1761469512327127800,1.1381279296875,-0.09097440238893031,-0.007305354577302932,0.03600592735018581
1761469512337082600,1.14808251953125,0.01980535518825054,-0.0155851071447134,0.032140264897979796
1761469512347037700,1.15803759765625,0.10437573575377464,-0.03025017683506012,0.07625701798945665
1761469512356991700,1.16799169921875,0.15478081186711787,-0.06454378384202718,0.08541727971844375
1761469512366946800,1.17794677734375,0.1654939290612936,-0.0197395964756608,0.06988441421762108
1761469512376901600,1.187901611328125,0.15300912601947783,0.0010866261929273605,0.03941891413144767
1761469512386856700,1.197856689453125,0.11782266182601452,-0.043593350271880625,0.005016293792054057
1761469512396810800,1.207810791015625,0.12579086422622204,-0.059572717431187625,-0.06908098888024687
1761469512406765800,1.217765869140625,0.07787935849428176,-0.0690372958689928,-0.1415214807888493
1761469512416720600,1.227720703125,0.0923427681326866,-0.043511517207324504,-0.1358691906481981
1761469512426675500,1.237675537109375,0.017336334726214406,-0.020542729552090168,-0.07507975437100976
1761469512436629800,1.247629638671875,-0.03891337576210498,0.02692132467329502,-0.011047975171729922
1761469512446584600,1.25758447265625,-0.06916705972850322,0.07952917152792215,-0.007817359220050274
1761469512456539600,1.26753955078125,-0.08907178363800049,0.09811784440279006,0.010251637162268162
1761469512466494500,1.277494384765625,-0.1003513025432825,0.09824527017474174,0.000577288431301713
1761469512476448800,1.28744873046875,-0.10142799186408519,0.09272972162365913,-0.058626851415820413
1761469512486403600,1.297403564453125,-0.06362520769238472,0.04678250170201063,-0.11160605233348905
1761469512496358700,1.307358642578125,0.015948679760098457,0.01843026744276285,-0.1601161084804684
1761469512506313500,1.3173134765625,0.047991000708937644,-0.013242927932739257,-0.17073277956284583
1761469512516267800,1.327267822265625,0.05617138455510139,-0.01661386567056179,-0.1784819689175114
1761469512526222600,1.33722265625,0.004289221626520156,-0.025310674606263635,-0.1699771754225716
1761469512536177700,1.347177734375,-0.04959668233990669,-0.027508476911485193,-0.14315010490398852
1761469512546132500,1.357132568359375,-0.08741758669018745,-0.019513971026241778,-0.13442885564677418
1761469512556086800,1.367086669921875,-0.0889490340411663,-0.016649229244887827,-0.152854958371073
1761469512566041600,1.37704150390625,-0.1065910737156868,-0.008697101196646689,-0.19274222066663205
1761469512575996700,1.38699658203125,-0.0969394482731819,-0.02743541167527437,-0.22098102114666252
1761469512585951500,1.396951416015625,-0.05913140340447425,-0.08847352548390626,-0.20595789526626465
1761469512595905800,1.40690576171875,-0.028465631505846977,-0.14129443056732416,-0.1929430404683575
1761469512605860600,1.416860595703125,0.04953881467282772,-0.1607049412190914,-0.18935378380473702
1761469512615815700,1.426815673828125,0.09935761533081532,-0.18882395124435425,-0.1987840215815231
1761469512625770500,1.4367705078125,0.15246318257451055,-0.22221885584592818,-0.24042105015385895
1761469512635724800,1.446724853515625,0.1681207704335451,-0.23858663780093192,-0.2528951126059517
1761469512645679600,1.4566796875,0.13559855701327322,-0.22546529042124747,-0.22895320560224353
1761469512655634700,1.466634765625,0.08395429449379443,-0.21002777505367992,-0.22617197738587855
1761469512665589500,1.476589599609375,0.01265197630226612,-0.19268764093518256,-0.22559826915115117
1761469512675543800,1.486543701171875,-0.07637421462833881,-0.15375234560221432,-0.23298702769558877
1761469512685498600,1.49649853515625,-0.1193564472645521,-0.14878858571499584,-0.2841380998706445
1761469512695453700,1.50645361328125,-0.11312135226726532,-0.17596330062747,-0.35002248466666785
1761469512705408500,1.516408447265625,-0.048479076486825944,-0.21056465840935706,-0.4158459695883095
1761469512715362800,1.52636279296875,0.012853636354207991,-0.21611030983775853,-0.44636535528618837
1761469512725317600,1.536317626953125,0.03628244273662567,-0.2394251344516873,-0.46347774506341666
1761469512735272700,1.546272705078125,0.011841244441270828,-0.2621297182127833,-0.45959794448800384
1761469512745227500,1.5562275390625,0.013080430847406387,-0.23618688318282363,-0.47562191797401754
1761469512755181800,1.566181884765625,0.002815641942620277,-0.20522885033935306,-0.47922432638015594
1761469512765136600,1.57613671875,-0.012265607333183288,-0.2060167858466506,-0.48847504287157206
1761469512775091700,1.586091796875,-0.004563362392783165,-0.2417082769528031,-0.5072319484528154
1761469512785046500,1.596046630859375,0.045910687303543085,-0.27374358363896606,-0.49353152254354204
1761469512795000800,1.606000732421875,0.14916414102911948,-0.2500850601539016,-0.44757367163002487
1761469512804955600,1.61595556640625,0.219856218367815,-0.24796909091323613,-0.42053025494702156
1761469512814910700,1.62591064453125,0.24335925903022287,-0.25481208867579697,-0.39995073704849926
1761469512824865500,1.635865478515625,0.24100363581478595,-0.24553134237229823,-0.3773269634386524
1761469512834819800,1.64581982421875,0.1840671121060848,-0.2476549103975296,-0.37666265431102364
1761469512844774700,1.655774658203125,0.11054945595264434,-0.2442079848140478,-0.40033337969053534
1761469512854729700,1.665729736328125,0.07648293569982051,-0.24611820234954357,-0.4284979093579575
1761469512864684500,1.6756845703125,0.11547288382947445,-0.2593967861175537,-0.46168885235264895
1761469512874638600,1.685638671875,0.19830138916373252,-0.29054215822666885,-0.43765634445603935
1761469512884593700,1.69559375,0.22746669337153433,-0.3090846538722515,-0.41864849632102996
1761469512894548700,1.705548828125,0.15844693315923214,-0.3281222395583987,-0.370792556701228
1761469512904503600,1.715503662109375,0.11389993542432784,-0.2785328637421131,-0.4314493795746937
1761469512914457600,1.72545751953125,0.10262333912849425,-0.27138036163896323,-0.4848202466910705
1761469512924412700,1.73541259765625,0.08379588906168937,-0.3079787384569645,-0.38593181977458296
1761469512934367700,1.74536767578125,0.11205226173102854,-0.2697372706070542,-0.35681864761281756
1761469512944322600,1.755322509765625,0.15522563302516937,-0.21973697590231894,-0.3248070140631869
1761469512954276600,1.765276611328125,0.13364274677038193,-0.2248950893178582,-0.2732294966369867
1761469512964231700,1.775231689453125,0.07950023769438266,-0.22011501543447373,-0.2764408233663067
1761469512974186800,1.785186767578125,-0.023620529562234878,-0.22793708736225962,-0.31442290962766856
1761469512984141600,1.7951416015625,-0.10005378090143204,-0.26185440840274093,-0.33422216386869547
1761469512994095600,1.805095703125,-0.09301905995905399,-0.2296307395376265,-0.35634737683925777
1761469513004050700,1.81505078125,-0.03774199389517307,-0.22146014643311498,-0.3346306350717321
1761469513014005800,1.825005859375,0.05220131188035011,-0.21203984552845356,-0.27731926843496035
1761469513023960600,1.834960693359375,0.20873978106975555,-0.18028320965319872,-0.22201383479312062
1761469513033914600,1.84491455078125,0.3157318368017673,-0.16494097135365007,-0.19434872428150846
1761469513043869700,1.85486962890625,0.3402694812089205,-0.16952245392501353,-0.18446703467648476
1761469513053824800,1.86482470703125,0.2609767487853765,-0.15981836764290927,-0.18020996175389736
1761469513063779600,1.874779541015625,0.09882745397686958,-0.05645604671537876,-0.08760852441871539
1761469513073733600,1.884733642578125,0.04735036471784115,0.0793809952288866,-0.08561550570428371
1761469513083688700,1.894688720703125,0.15460837790966034,0.1736288663305342,-0.011852825281210243
1761469513093643800,1.904643798828125,0.28145313510298725,0.1674604068286717,0.0167263313353993
1761469513103598600,1.9145986328125,0.3247866653949022,0.07952244952619075,0.055870465379767115
1761469513113552600,1.924552734375,0.43737960987389085,-0.025955256120115518,0.06861689676614478
1761469513123507700,1.9345078125,0.6809107183396815,-0.058409811131656164,-0.010043807664443738
1761469513133462800,1.944462890625,0.9921662865102291,-0.14098244200870394,-0.11857806503688915
1761469513143417600,1.95441748046875,1.2630693860262632,-0.3317046280898154,-0.16692071046140045
1761469513153371600,1.96437158203125,1.4232909276425838,-0.4792432137437164,-0.19266325541259718
1761469513163326700,1.97432666015625,1.5525070901423692,-0.5324985647216439,-0.16786299628019333
1761469513173281800,1.98428173828125,1.5520482404589653,-0.49368996450826524,0.03572479972071014
1761469513183236600,1.994236572265625,1.1172031174987553,-0.5634180191203951,0.611105506838113
1761469513193190700,2.004190673828125,0.7314326988309622,-0.44946620737835763,1.1223279862318187
1761469513203145700,2.014145751953125,0.7843886284708976,0.023211802630871532,1.1563691528476774
1761469513213100500,2.0241005859375,0.7746896567553281,0.4534057387843728,1.3127611993037163
1761469513223055600,2.0340556640625,1.3726491201639175,1.3122504733026026,1.3847770725920796
1761469513233009700,2.044009765625,2.4027947164565324,2.30437321293205,1.2702882313638926
1761469513242964700,2.05396484375,2.9135733245402573,2.266392003453523,0.9237037217892706
1761469513252919600,2.06391943359375,2.880322796845436,1.7397415802381933,0.5857870873168111
1761469513262874600,2.07387451171875,2.81196354636848,1.4746831150971351,0.6159376031696796
1761469513272828700,2.08382861328125,2.6113018578141927,1.277264500117302,0.7047763087041675
1761469513282783700,2.09378369140625,2.6226836680501697,0.8456601126439869,0.184129217556864
1761469513292738600,2.103738525390625,2.9849118830889463,-0.24963176342844962,-0.8153025299116968
1761469513302693600,2.113693603515625,3.5470331403970716,-0.7445959856562316,-1.1969715046100318
1761469513312647700,2.123647705078125,3.5024446416079997,-0.7914813632108271,-1.0292425099730491
1761469513322602800,2.133602783203125,2.8756255789399146,-0.04946180391386151,-0.522548540854454
1761469513332557600,2.1435576171875,-0.5660007290899753,0.4860277593173086,0.3862858939092606
1761469513342512600,2.1535126953125,-4.170312923023104,0.24915055578276513,1.215562004115805
1761469513352466700,2.163466796875,-2.771590619447827,-0.4516214857161045,1.163339284121245
1761469513362421800,2.173421875,-1.770632539194822,0.00008563245683908462,0.8467502459682523
1761469513372376600,2.18337646484375,-0.8134078022062778,0.13630349041223525,0.42403851879630233
1761469513382331600,2.19333154296875,-0.011759411376714705,-0.6952654069066048,-0.60812254550457
1761469513392285700,2.20328564453125,-1.2651444387346504,-2.019219177484512,-1.458542858287692
1761469513402240800,2.21324072265625,-5.258865700098871,-4.59132767355144,-2.4098460962727666
1761469513412195600,2.223195556640625,-10.819273383605479,-7.060705278462171,-3.714280635127425
1761469513422150700,2.233150634765625,-15.151861858165264,-7.304459674289822,-6.336751537209749
1761469513432104700,2.243104736328125,-17.814412841701508,-5.990029518860578,-8.115262262433767
1761469513442059800,2.253059814453125,-15.414392850655316,-3.950804495179653,-8.242916582444309
1761469513452014600,2.2630146484375,-12.97868662919998,-2.9949431554988024,-9.315790728873013
1761469513461969700,2.2729697265625,-11.307629732000827,-3.7732811056286093,-11.36346209385991
1761469513471923700,2.282923828125,-9.874725757360459,-4.6230011611878865,-13.381786952853203
1761469513481878800,2.292878662109375,-8.741178823304177,-4.9046051029384135,-13.599241955298185
1761469513491833600,2.30283349609375,-7.713616229242086,-4.3772281190142035,-11.986593992447853
1761469513501788700,2.31278857421875,-7.186521861651539,-3.198468124529719,-9.993947180068492
1761469513511742500,2.322742431640625,-6.939849532550573,-2.3600951001539827,-7.80372553923428
1761469513521697800,2.33269775390625,-6.630286155250668,-1.846072687843442,-5.72711566453278
1761469513531652600,2.342652587890625,-5.111992300355434,-0.38095629638433454,-4.6510202179700135
1761469513541607700,2.352607666015625,-3.414257239589095,0.18071838620007036,-3.5982235216692087
1761469513551561500,2.3625615234375,-1.3321820852190256,0.8623767080366611,-1.8211752702131867
1761469513561516800,2.372516845703125,0.3520183711916208,1.8015867726460097,-0.34134500148594377
1761469513571471600,2.3824716796875,1.0386334386527538,2.490159696176648,0.5938821309670805
1761469513581426700,2.3924267578125,0.8213993854820728,2.975503711013496,1.197273848557472
1761469513591380500,2.40238037109375,0.5975917991399765,3.4801425011679528,1.353736914423108
1761469513601335800,2.412335693359375,0.5341431170582771,4.00786932144314,1.191912321524322
1761469513611290600,2.42229052734375,0.4212859686851501,4.659183942942321,1.7500266812786458
1761469513621245700,2.43224560546875,0.27418577444851394,5.222608391803503,3.376597663280368
1761469513631199500,2.442199462890625,0.5147726461559534,6.037127954643965,5.805256304311752
1761469513641154800,2.45215478515625,1.3629028021752834,6.974122389030456,8.257603863966464
1761469513651109600,2.462109619140625,2.4922680666327475,7.670148258915543,10.518942529553174
1761469513661064700,2.472064697265625,3.7979566972017285,8.18601396100521,11.879077036058902
1761469513671019800,2.482019775390625,5.620108411231636,8.904999266195297,12.406881597745418
1761469513680973800,2.491973876953125,7.297590373042225,8.883144577261804,13.268054190689325
1761469513690928600,2.5019287109375,8.639518191727996,8.291827620607615,14.060266060131788
1761469513700883700,2.5118837890625,9.195777863526343,7.469642053183913,14.21106452436447
1761469513710838800,2.5218388671875,8.744156962332129,6.981137820750474,13.835170187544822
1761469513720792800,2.531792724609375,7.936845138913393,6.967903660646081,12.311264337986707
1761469513730747600,2.54174755859375,6.951281027147173,7.156240120634436,10.544756185245513
1761469513740702700,2.55170263671875,6.227840496113896,7.067844044300913,9.310189840126037
1761469513750657500,2.561657470703125,5.914302954486012,6.866621214732527,8.200728715056181
1761469513760611800,2.57161181640625,5.762248352712392,6.874130567449331,7.326980718177556
1761469513770566700,2.581566650390625,5.573183578449488,6.862890796032548,6.604568361148238
1761469513780521700,2.591521728515625,5.273532523354888,6.760598880815506,6.2639990202099085
1761469513790476500,2.6014765625,5.2443981988072395,6.720093851947784,6.242083540999889
1761469513800430800,2.611430908203125,5.599322812834382,6.616590807375311,6.205619896477461
1761469513810385700,2.6213857421875,5.662933407479525,6.298250249379873,5.990574877783656
1761469513820340700,2.6313408203125,5.661551597732305,6.558202915814519,6.2050330365002155
1761469513830295600,2.641295654296875,5.857967903801798,7.355984109821915,6.474287199765444
1761469513840249900,2.651249755859375,5.75803745701909,7.743676436462998,6.378556542760133
1761469513850204700,2.66120458984375,5.196545145264268,6.9035717659890645,5.49971619117856
1761469513860159700,2.67115966796875,4.158402704998851,5.572838126012683,5.015805131754279
1761469513870114600,2.681114501953125,3.03520356195569,4.512199191778898,3.9465658346965906
1761469513880068900,2.69106884765625,1.5455015952944755,3.0910821010440586,2.543995331260562
1761469513890023700,2.701023681640625,-0.37117490708231926,1.0349527043133973,0.8765820512607693
1761469513899978800,2.710978759765625,-2.4644541770339012,-1.0114309589505195,-0.725233551929891
1761469513909933600,2.72093359375,-5.28917608268857,-1.9787521425396202,-2.1970342434585093
1761469513919888000,2.730887939453125,-8.813434496697782,-3.075361384820938,-3.189631907123327
1761469513929842700,2.7408427734375,-11.282637914085388,-5.165995108699798,-3.7882510034844277
1761469513939797800,2.7507978515625,-11.59429680235982,-7.0948249902069564,-4.0718028644323345
1761469513949752600,2.760752685546875,-12.238017899990082,-8.57697434953153,-5.276956068062782
1761469513959707000,2.770706787109375,-13.06160573542714,-9.262630216571688,-7.7192960284441705
1761469513969661700,2.78066162109375,-13.005524367243051,-12.309529477018117,-8.74616888667643
1761469513979616800,2.79061669921875,-13.241574180042743,-14.600205296248197,-9.694483756500482
1761469513989571600,2.800571533203125,-14.474372930967807,-16.072535272347928,-9.554770165383815
1761469513999526000,2.81052587890625,-15.488099891901015,-17.254260838639734,-8.75763837519586
1761469514009480700,2.820480712890625,-16.29170643106103,-15.706830321109294,-8.848376046219467
1761469514019435500,2.830435546875,-17.654104206323623,-12.292200741076469,-10.00532899030447
1761469514029390600,2.840390625,-18.81132661499977,-11.697641441500187,-8.488913204240799
1761469514039345000,2.850344970703125,-17.67376167747378,-10.391295808327197,-7.277609076765179
1761469514049299700,2.8602998046875,-15.179668733501433,-8.690270473843812,-4.324845020826161
1761469514059254500,2.870254638671875,-11.745742916846275,-7.7562571010947226,-1.8162981656961141
1761469514069209600,2.880209716796875,-8.306305058771372,-6.428463021701574,-0.20673823198899627
1761469514079164000,2.890163818359375,-5.569296507883071,-4.8343718752831215,0.707222240551561
1761469514089118700,2.90011865234375,-2.6167285590380427,-3.757031981617212,1.2379922279149294
1761469514099073500,2.910073486328125,1.1080641177535056,-2.6714310400843617,1.138608601360023
1761469514109028600,2.920028564453125,3.959173095074296,-1.2103858435869217,0.8920411939382552
1761469514118983000,2.92998291015625,5.512762719756364,0.6426017382115126,1.1879042549267411
1761469514128937700,2.939937744140625,5.734831937998533,2.3765502681314943,1.5845543795272707
1761469514138892500,2.949892578125,4.853855743432045,4.153151360341906,2.2191101739272474
1761469514148847600,2.95984765625,4.821439328473806,6.337631827175617,3.3599610012561083
1761469514158802000,2.969802001953125,5.802656350946426,7.795816958066821,4.339460698416829
1761469514168756700,2.9797568359375,6.5429720289349556,7.943550189509987,5.7722775792956345
1761469514178711600,2.989711669921875,7.092825340822339,7.866191055497526,7.153955224567651
1761469514188666600,2.99966650390625,8.322824816417693,8.397143852081895,7.437415023317933
1761469514198620700,3.00962060546875,9.771491592857242,8.499753747206926,7.475275090634822
1761469514208575700,3.01957568359375,10.800947453320026,8.50655465939343,7.552893752366304
1761469514218530600,3.029530517578125,11.30930380269289,8.665600142967701,7.8997595631003374
1761469514228485600,3.039485595703125,11.386743600726128,8.624760767579078,8.154861282372474
1761469514238440000,3.04943994140625,11.393998686420916,9.03522782060802,8.491945703804493
1761469514248394200,3.059394287109375,11.422492959499358,9.135613609942792,8.68244138765335
1761469514258349000,3.06934912109375,11.531159085923433,9.17553177883327,8.59407921358943
1761469514268304100,3.07930419921875,11.339619445979595,8.981362959429621,7.9514897503376005
1761469514278258200,3.089258056640625,10.227939475816488,8.49872031250596,7.037338431400061
1761469514288213200,3.099213134765625,8.061781432136893,7.547415028694272,5.739661842373013
1761469514298168000,3.10916796875,5.996951427078247,7.15522597515583,4.253213324549794
1761469514308123100,3.119123046875,4.097034920844435,7.170475566735863,3.097543698273599
1761469514318078000,3.129077880859375,1.3046663017839193,6.520812219575047,3.285800955545902
1761469514328032000,3.139031982421875,1.140548337250948,6.922161900168657,3.180305568112433
1761469514337987000,3.148987060546875,1.9585773695170878,7.492130363845825,3.910122940701246
1761469514347942100,3.158942138671875,2.3461878630936144,7.312417939817905,4.788256605318188
1761469514357897000,3.16889697265625,3.326131796890497,6.724695792785287,4.848388417936861
1761469514367851000,3.17885107421875,3.942061216753721,4.963603235352039,4.248554392828047
1761469514377806000,3.18880615234375,4.350043467229605,3.0341958462178704,3.774219847783446
1761469514387761200,3.19876123046875,4.560470178472995,1.338395552906394,4.227972500309348
1761469514397716000,3.208716064453125,5.601504248526692,0.10754998187571764,4.099216941058636
1761469514407670000,3.218669921875,6.581888911828399,-0.8665802972063422,3.115046913999319
1761469514417625000,3.228625,5.856670849728584,-2.0660575010269877,2.406858166503161
1761469514427580200,3.238580078125,3.0962486900269983,-4.265516341283917,0.3449306048877537
1761469514437535000,3.248534912109375,-3.0348762296974656,-6.9984279782474035,-3.235119985100627
1761469514447489000,3.258489013671875,-11.945179447519779,-9.31536987311244,-8.44491682612598
1761469514457444000,3.268444091796875,-21.182409265375135,-11.264792460793256,-14.903159484541415
1761469514467399200,3.278399169921875,-25.46212890405655,-12.269137845396996,-18.695446319413183
1761469514477354000,3.28835400390625,-24.860277109384537,-13.6381547465384,-17.96036094329357
1761469514487308000,3.29830810546875,-22.38607310723066,-15.147994661343096,-14.338096328562496
1761469514497263000,3.30826318359375,-22.173697600007056,-16.197230158030987,-10.021458287328482
1761469514507218200,3.31821826171875,-24.00346621878147,-14.622193840694427,-7.103667637354135
1761469514517173000,3.328173095703125,-26.42839970180988,-12.828359289610384,-6.210430511629581
1761469514527127000,3.338126953125,-26.09521754851341,-11.703151144832372,-7.353542561888695
1761469514537082000,3.34808203125,-22.932608088350296,-10.907419284570217,-9.03271028482914
1761469514547037200,3.358037109375,-19.65524295271635,-10.150168838393688,-10.006945777851342
1761469514556992000,3.367991943359375,-16.842184596848487,-8.574428756701947,-10.61145597807765
1761469514566946000,3.377946044921875,-14.099516705024241,-7.228990299546719,-10.632390045034885
1761469514576901000,3.387901123046875,-10.523334627032279,-5.7459162265926595,-9.353295991402863
1761469514586856200,3.397856201171875,-7.126891276553272,-3.9941964776605365,-7.365773682430386
1761469514596811000,3.40781103515625,-4.428523714226484,-2.2132851210355757,-4.1684570660233495
1761469514606765000,3.41776513671875,-2.045821937727928,0.06631225481927394,-1.0427443811029196
1761469514616720100,3.42772021484375,-0.036361937713623046,2.0436814185678958,1.8257295725166796
1761469514626675200,3.43767529296875,1.8484797489851712,3.9585914957940576,4.133642357751727
1761469514636630000,3.447630126953125,3.553739360037446,5.6797337356328965,5.239483538758755
1761469514646584000,3.457583984375,3.755159758004546,6.821096311876177,6.171646315205097
1761469514656539100,3.4675390625,3.7732729223221537,9.0951296238631,5.600125361388922
1761469514666494200,3.477494140625,4.149707941889763,11.005097568511962,4.624512150272727
1761469514676449000,3.487448974609375,4.508917685890197,12.156992644685506,4.34677920473665
1761469514686403000,3.497403076171875,4.7693812244564295,13.299407944852113,4.82985205977112
1761469514696358100,3.507358154296875,4.993676886576414,14.467166945111751,6.106965460979938
1761469514706313200,3.517313232421875,5.40258677329123,15.464063182753323,7.8246005694806575
1761469514716268000,3.52726806640625,6.17607874469459,16.203326721340417,9.098239864838122
1761469514726222000,3.53722216796875,6.689099578747153,16.583945164072514,10.284211398136614
1761469514736177200,3.54717724609375,7.123806754541397,16.32493883857727,11.214707118153571
1761469514746132200,3.55713232421875,8.074125365403294,15.80791987479925,11.541510968589781
1761469514756087000,3.567087158203125,8.725254693463445,15.232820477974414,11.52316165742874
1761469514766041000,3.577041015625,8.81497003570199,14.488161802345514,11.211694492334127
1761469514775996200,3.58699609375,9.088986298802494,13.677040649771689,10.185167671060562
1761469514785951200,3.596951171875,9.423631510388851,12.864379866540432,8.875825778681039
1761469514795906000,3.606906005859375,9.57430839406848,12.150274150085448,8.127835328280925
1761469514805860000,3.616860107421875,9.218810364067554,11.400517274534701,7.937769268020987
1761469514815815200,3.626815185546875,8.234566102728246,10.632621515703201,7.865558018290996
1761469514825770200,3.636770263671875,6.660126582241058,9.882972192180157,7.465225990307331
1761469514835725000,3.64672509765625,4.884383568164706,9.35923531832397,6.999555520972609
1761469514845679000,3.65667919921875,3.0500580167382956,8.7235852989465,6.741339469072222
1761469514855634200,3.66663427734375,1.4574509713977575,7.345439919453859,6.504771185356378
1761469514865589200,3.67658935546875,0.34064532878398895,5.872357663682103,6.318261940795183
1761469514875544000,3.6865439453125,0.1665174268901348,4.792210895901918,6.813786865645647
1761469514885498000,3.696498046875,1.7017875510275362,2.483438863489032,7.140189734065532
1761469514895453200,3.706453125,3.347283305990696,0.2988198649674654,7.13213852955699
1761469514905408300,3.716408203125,3.767081081944704,-1.842530485191941,6.4741141812860965
1761469514915363000,3.726363037109375,2.828688471198082,-4.343364720118045,4.6031636572957035
1761469514925317000,3.736317138671875,0.20916063683032987,-7.589322325575352,2.804982016918063
1761469514935272200,3.746272216796875,-3.7535657668113704,-9.514531678497791,1.8800082751929759
1761469514945227300,3.756227294921875,-7.613613886266946,-11.096018779408931,0.4592459892451763
1761469514955182000,3.76618212890625,-12.503416556870937,-14.707915144860744,-2.618846281844377
1761469514965136100,3.77613623046875,-18.37786154822111,-17.93617108941078,-6.491842730200291
1761469514975091200,3.78609130859375,-24.157560217428205,-20.789488974952697,-10.963582485818863
1761469514985046300,3.79604638671875,-27.451794654798505,-22.307871092653272,-14.091393019801377
1761469514995001000,3.8060009765625,-27.299688030576704,-22.88852578551769,-15.780247439497709
1761469515004955100,3.815955078125,-26.68342660228014,-22.206666972672938,-16.83382125765085
1761469515014910200,3.82591015625,-26.980936553692818,-19.89286279131174,-17.438019323188065
1761469515024865000,3.835864990234375,-26.02101132557392,-16.594775185644625,-17.55336185863614
1761469515034820000,3.845820068359375,-23.309208527612686,-14.398563949006794,-16.301088007390497
1761469515044774100,3.855774169921875,-19.41192870187163,-11.472577133095264,-12.038878306436539
1761469515054729200,3.865729248046875,-12.891062121760845,-10.5597024099648,-8.401013971513509
1761469515064684000,3.87568408203125,-7.557769833970069,-8.847853483650088,-5.835679499626159
1761469515074639000,3.88563916015625,-5.29644870404005,-7.0624851476162664,-3.5032974590450525
1761469515084593200,3.89559326171875,-3.310402312839031,-5.18458641192317,-1.9195044192790984
1761469515094548200,3.90554833984375,-1.026883379626274,-3.9107974789619444,-1.5148758631452917
1761469515104503000,3.9155029296875,0.6010416473329067,-1.9097072478860615,-1.089111287741363
1761469515114458000,3.9254580078125,1.6698638880223036,0.6154606333076954,0.7320362176820635
1761469515124412200,3.935412109375,2.6218109768688675,2.7303467549115417,2.708701032553613
1761469515134367200,3.9453671875,2.68607506698668,4.991066996338963,3.884525265847146
1761469515144322000,3.955322021484375,2.0432213998407125,7.327849317705631,5.395079758661985
1761469515154277000,3.965277099609375,1.871374886882305,9.638409987100959,7.2080375278890125
1761469515164231200,3.975231201171875,2.071999750557542,11.63299332050085,8.572788003757596
1761469515174186200,3.985186279296875,1.8629647859334943,13.17748018579483,9.312309316498041
1761469515184763100,3.99576318359375,1.522510888068378,14.416526306676865,9.362699779564142
1761469515194718200,4.00571826171875,1.6401172767952084,15.006161593854426,8.856169476574658
1761469515204672000,4.015672119140625,2.2317542591840027,14.916100799179077,8.490636374771595
1761469515214627000,4.025626953125,3.484099714361131,14.424118076980113,8.19604844828546
1761469515224582100,4.03558203125,5.303697944515943,13.624403284561634,7.860997578507662
1761469515234538200,4.045538330078125,7.032389284560084,12.760626062077282,7.863101857310533
1761469515244492500,4.055492431640625,8.466297467806935,12.528546321952343,7.750769609594345
1761469515254447400,4.065447265625,9.649974752688408,11.982016017007828,7.2222355645895
1761469515264402400,4.07540234375,10.456748231446742,11.682122385329007,6.900288506534695
1761469515274357200,4.085357177734375,10.412436796033381,11.051342602336407,7.351305012094974
1761469515284311600,4.0953115234375,10.478340470051764,10.475553469681739,6.375795845875143
1761469515294266400,4.105266357421875,10.201604426598548,10.623059906631708,5.284601614379882
1761469515304221400,4.115221435546875,9.56086029895246,10.167350274819135,4.6166836486041545
1761469515314176300,4.12517626953125,8.70573516947925,9.37644890345335,3.841955413404107
1761469515324130600,4.135130615234375,7.705297898229956,9.252324511134624,3.2947260202795263
1761469515334085400,4.14508544921875,6.268565889734029,10.059764344847201,3.994017029440403
1761469515344040400,4.15504052734375,4.733633619248867,9.519274489110707,4.12847898363918
1761469515353995300,4.164995361328125,3.231916220623255,9.373057507449388,3.9952261129692195
1761469515363949600,4.174949462890625,2.649693840050697,9.152347302600742,3.8153392091572282
1761469515373904400,4.184904296875,2.8584043950259685,8.358290097552537,3.3387501631841063
1761469515383859500,4.194859375,3.1539854242026806,7.132372338312864,2.4533149433821437
1761469515393814300,4.204814208984375,3.609333236965537,5.851432949075102,1.7464586135335265
1761469515403768600,4.2147685546875,4.282399671545624,4.961670221462845,1.4242717553734778
1761469515413723400,4.224723388671875,4.862041387975216,4.199413345301151,1.032516124816239
1761469515423678500,4.234678466796875,5.417777912682294,3.8143747480392456,0.7907203157104551
1761469515433633300,4.24463330078125,5.226382649645209,3.653250120103359,0.7042354798257351
1761469515443587600,4.254587646484375,3.9823254226028917,3.7153088091313835,1.225109073205292
1761469515453542400,4.26454248046875,1.8745178610831499,3.6583553342878816,2.411390695366263
1761469515463497500,4.27449755859375,-0.7479746683090924,2.781598218721151,2.896823557530343
1761469515473452300,4.284452392578125,-3.336545638877153,0.645176557135582,0.6633671706035733
1761469515483406600,4.294406494140625,-5.483211631101369,-2.8923005271479485,-2.9051228915810583
1761469515493361400,4.304361328125,-5.459359046348929,-7.391920515599846,-5.613747059506178
1761469515503316500,4.31431640625,-4.500569544261694,-12.764255943012238,-6.753005356946587
1761469515513271300,4.324271240234375,-6.004988018539548,-16.402047797220945,-6.541755054360627
1761469515523848400,4.334848388671875,-13.689377568775415,-17.60610326874256,-7.930663819929957
1761469515533803500,4.344803466796875,-13.660696248692274,-17.70840161370039,-7.802105829077958
1761469515543758300,4.35475830078125,-13.66025551918745,-17.709620926362277,-7.801231384330987
1761469515553712400,4.36471240234375,-13.71159758388996,-17.588152601510284,-7.852608520346879
1761469515563667500,4.37466748046875,-13.817917439448832,-17.380255701005456,-7.863845369154214
1761469515573622500,4.38462255859375,-13.967026635420321,-17.135390129065513,-7.791082330760359
1761469515583577300,4.394577392578125,-14.145672891521453,-16.887506086087225,-7.634673625430464
1761469515593531400,4.404531494140625,-14.344031563830375,-16.654659453243017,-7.415155845236778
1761469515603486500,4.414486572265625,-14.554307468426227,-16.445535056769845,-7.157758708503842
1761469515613441500,4.424441650390625,-14.768836354291437,-16.261801122140884,-6.890960121697187
1761469515623396400,4.434396240234375,-14.975539661097526,-16.10050815190077,-6.652505001321434
1761469515633350400,4.444350341796875,-15.16417890342474,-15.95678590966463,-6.465455074012279
1761469515643305500,4.454305419921875,-15.333701941871642,-15.82709219278097,-6.324025326627493
1761469515653260500,4.464260498046875,-10.057512766528129,-2.400406360015273,-1.1179977750077843
1761469515663215400,4.47421533203125,-7.015396064183116,-0.43870881265103817,1.129402673858404
1761469515673169400,4.48416943359375,-4.274845310643315,1.496253288000822,3.2695974242419004
1761469515683124500,4.49412451171875,-1.7525117760926483,3.459106435140967,4.611139166219532
1761469515693079600,4.50407958984375,-0.006762918263673782,5.013679225641488,5.264079635354876
1761469515703034400,4.514034423828125,0.9988093777865171,6.729260324221849,5.547155987745523
1761469515712988400,4.523988525390625,1.0765993044316768,8.62009394481182,5.6695349977016445
1761469515722943500,4.533943603515625,0.9242717309355736,10.875531277400254,6.3074190597414965
1761469515732898600,4.543898681640625,2.266209486493468,12.600998979222775,7.742937016272545
1761469515742853400,4.553853271484375,4.464216958898306,13.033151209837197,9.656841715848445
1761469515752807400,4.563807373046875,6.989295992764831,13.192165713751315,11.678795286732912
1761469515762762200,4.57376220703125,9.835085820889473,13.507508258974552,11.77939618012309
1761469515772717600,4.583717529296875,11.429475657993555,12.711193045866489,11.45152733080387
1761469515782672400,4.59367236328125,12.531838349235057,12.111745974248647,10.641875666260718
1761469515792626400,4.60362646484375,13.304641753852367,11.466231563460827,9.435150098747014
1761469515802581200,4.613581298828125,13.713402587485312,10.890872638916969,8.102389921379089
1761469515812536600,4.62353662109375,13.737082738280295,10.470112739932537,6.646380965483188
1761469515822491400,4.633491455078125,13.286250357115268,10.249666154456138,5.341393761181831
1761469515832445400,4.643445556640625,12.297992183959483,9.9104914827466,4.385779089738429
1761469515842400300,4.653400146484375,10.730915885716676,9.771123928588628,3.584319207218289
1761469515852355600,4.66335546875,9.088972270277141,10.026161350452899,2.99664469871968
1761469515862310400,4.673310302734375,7.761470451828837,10.169828647631407,2.9563097657218576
1761469515872264400,4.683264404296875,6.842505595129728,10.03421606209278,3.0116932147696613
1761469515882219300,4.69321923828125,6.347482774582505,9.947947645437717,2.970083439530432
1761469515892174600,4.703174560546875,6.1552995760381215,9.913951852333545,2.90064370034039
1761469515902129400,4.71312939453125,6.1601487696349615,9.435172310578823,2.677421512670815
1761469515912084200,4.723084228515625,6.167814189696312,8.930022648292779,2.4437884056240318
1761469515922038300,4.733038330078125,5.981199731194972,8.277887942582367,2.0785876045152545
1761469515931993600,4.74299365234375,6.056333005851507,7.417243172904849,1.5447653899744151
1761469515941948400,4.752948486328125,6.268817234146595,6.498747102761269,1.1646470057189464
1761469515951903200,4.7629033203125,6.12508973121345,5.8609115560382605,1.5353692005977033
1761469515961857300,4.772857177734375,5.982319090613722,5.37753942579627,2.1379498940661548
1761469515971812600,4.7828125,5.4289492950379845,4.883898414996266,2.4063728672042486
1761469515981767400,4.792767333984375,3.1421348274111747,4.2300691803276536,2.347339371216297
1761469515991722200,4.80272216796875,0.07482932327389717,3.2576924669146536,1.7702639981433748
1761469516001676300,4.81267626953125,-2.174281728902459,1.8717536570668218,0.8102125132963061
1761469516011631600,4.822631591796875,-1.3759563450157641,-0.5667927562505006,0.33893794034421443
1761469516021586400,4.83258642578125,2.175993793517351,-4.891543376791477,0.6041951429277658
1761469516031541200,4.842541259765625,4.187574438947439,-9.712049808329343,0.42729982214719053
1761469516041495300,4.852495361328125,0.16945991008281708,-13.167807517564295,-0.9805217336848377
1761469516051450400,4.862450439453125,-9.015203854233025,-14.150299966800212,-4.346391958984732
1761469516061405400,4.872405517578125,-8.856160124224424,-14.330216973489522,-4.3261549343809484
1761469516071360300,4.8823603515625,-8.6860204151839,-14.487978262472152,-4.39182742999196
1761469516081314300,4.892314208984375,-8.560738669523596,-14.575464822745323,-4.509292364421486
1761469516091269400,4.902269287109375,-8.511915894165634,-14.560190096724032,-4.660936924089491
1761469516101224400,4.912224365234375,-8.53788386363685,-14.459156657135486,-4.815578327485919
1761469516111179300,4.92217919921875,-8.616464063876867,-14.316205983793735,-4.939613287955522
1761469516121133300,4.93213330078125,-8.728221726575493,-14.167331765621899,-5.001970083147287
1761469516131088400,4.94208837890625,-8.863595242661237,-14.027650907731056,-4.9900493437290185
1761469516141043500,4.95204345703125,-9.018128801769018,-13.89416364378333,-4.926382050460576
1761469516150998300,4.961998291015625,-11.547530375009774,-11.57510344159007,-4.270018036617339
1761469516160952300,4.971952392578125,-9.651045012268423,-10.227480041611194,-5.7287429734736675
1761469516170907400,4.981907470703125,-6.541560408571362,-9.136427848935126,-5.54401009093523
1761469516180862500,4.991862548828125,-4.063209223610163,-7.567786201071739,-3.9159327960237857
1761469516190817300,5.0018173828125,-2.5576889255702495,-5.543410955998302,-2.464780632509291
1761469516200771300,5.011771240234375,-2.11031048425138,-3.668358257386088,-1.7023630128279328
1761469516210726400,5.021726318359375,-2.25622760618329,-1.489899535059929,-0.9036147273540497
1761469516220681500,5.031681396484375,-1.8202023335278033,0.9490086973071098,0.7541466349422932
1761469516230635300,5.04163525390625,-0.7456319045752287,3.469317448031902,2.832559467412531
1761469516240589000,5.051589111328125,0.19508008902966975,5.361492546358704,4.535684112262725
1761469516250544000,5.061544189453125,1.3432833249479532,7.0981830684632055,5.67155744343996
1761469516260499200,5.071499267578125,2.746620428842306,8.27012666093111,5.898838258850574
1761469516270454300,5.081454345703125,4.360982794395089,9.220630565232039,5.370703442296385
1761469516280408000,5.091407958984375,5.809380690765381,9.983194315385818,4.306712275025248
1761469516290363100,5.101363037109375,6.9103680020004505,10.396806680703163,3.600837211298942
1761469516300318200,5.111318115234375,8.017969178417324,10.69315927877426,3.7641444439709186
1761469516310273300,5.121273193359375,9.361996015208959,11.038300749933718,4.250895695257187
1761469516320227000,5.13122705078125,10.651873328661917,11.082037015807629,4.939696290063858
1761469516330182100,5.14118212890625,11.948278582578897,10.89157874135971,5.745633902519941
1761469516340137200,5.15113720703125,13.039980763596295,10.595571011203527,6.228078981044888
1761469516350092300,5.16109228515625,13.587971204221247,10.193697014474868,6.4707894207775585
1761469516360046000,5.171046142578125,13.390198222845791,10.005051926928758,6.483210510933398
1761469516370001200,5.181001220703125,12.234974879032373,10.190021540832518,5.816420087882876
1761469516379956200,5.190956298828125,10.533583633846044,10.141087706315517,4.446113439191878
1761469516389911300,5.200911376953125,8.836700805994868,9.901948110806941,2.7269121042877433
1761469516399865000,5.210864990234375,7.467989609801768,9.688347445702552,1.2348761417210101
1761469516409820200,5.220820068359375,6.397157782855629,9.436692067492007,0.6141828684568404
1761469516419775200,5.230775146484375,5.360359158414602,9.09776055688858,0.855073399285972
1761469516429730300,5.240730224609375,4.325401777926087,8.943958819186687,1.6195421062782407
1761469516439685000,5.25068505859375,3.741710493844747,8.810947940579057,2.43921306053251
1761469516449639200,5.26063916015625,3.5741847666949034,8.538217041113972,3.030048955671489
1761469516459594200,5.27059423828125,3.6383331214785573,8.095611221024393,3.444823350505531
1761469516469549000,5.280549072265625,3.519014083614945,7.474299523600935,3.4482533249542113
1761469516479504100,5.290504150390625,3.3845559288084504,6.832714268955588,2.7586414137646553
1761469516489458200,5.300458251953125,3.393424879440665,5.997873802620172,1.4807608275756239
1761469516499413200,5.310413330078125,2.9106466234385966,5.042577403345704,0.06881108589768409
1761469516509368000,5.3203681640625,1.9326316118776796,4.64945954452455,-0.9412374787837267
1761469516519323100,5.3303232421875,1.186708615401387,4.263393357780576,-1.1179597810849546
1761469516529277200,5.340277099609375,0.9191922357141971,3.6517718642443415,-0.5903992572873831
1761469516539232000,5.35023193359375,0.6852215672761202,2.8478087667316196,0.06238894389569759
1761469516549187000,5.36018701171875,0.11124737508893012,1.508226634389162,0.6041214931696653
1761469516559142100,5.37014208984375,-0.23116087171435354,-0.5678951645344495,0.5464847122371197
1761469516569096200,5.38009619140625,1.3201023558467626,-3.1215766080290077,0.1402834999591112
1761469516579051000,5.390051025390625,3.4222517454743384,-6.3065200650751585,0.17270897500663995
1761469516589006000,5.400006103515625,2.227010864049196,-9.102088941481709,-1.166385958340764
1761469516598961200,5.409961181640625,-3.146416450253129,-10.099294391202926,-5.823267177298665
1761469516608915200,5.419915283203125,-11.135927595949171,-9.626568158137797,-13.293505442810059
1761469516618870000,5.4298701171875,-16.21665498946905,-9.544562075102329,-19.69215434100628
1761469516628825000,5.4398251953125,-16.025655447751284,-11.981354338228702,-19.72335144330263
1761469516638780200,5.4497802734375,-15.871726284277438,-12.058207276284694,-19.95599583157301
1761469516648734200,5.459734130859375,-15.740603995895384,-12.133070501828193,-20.159264487755298
1761469516658689000,5.46968896484375,-15.656568452858924,-12.191342658054827,-20.28068605085611
1761469516668644000,5.47964404296875,-15.637307287549971,-12.212500012373923,-20.29326496192217
1761469516678599200,5.48959912109375,-15.688748720973729,-12.186456055057048,-20.196905359363555
1761469516688553200,5.49955322265625,-15.800435656523703,-12.113601246726512,-20.034618701910972
1761469516698508000,5.509508056640625,-15.951272699201105,-12.004405543470382,-19.858754770004747
1761469516708463000,5.519463134765625,-16.11560869039893,-11.877847202003002,-19.70444099112749
1761469516718418200,5.529418212890625,-16.265639092868565,-11.757775884467362,-19.589433971244095
1761469516728372200,5.539372314453125,-11.994489714133739,-8.018460761326551,-7.443229262554645
1761469516738327000,5.5493271484375,-8.881188767018914,-6.547186431759595,-6.444956475862861
1761469516748282000,5.5592822265625,-6.347121540054679,-4.661732750642299,-5.3685635076582425
1761469516758237200,5.5692373046875,-4.451082167515159,-3.0820804639428854,-3.4807419283658265
1761469516768191000,5.57919091796875,-2.23796948043704,-1.3736001372784374,-1.4391174423277378
1761469516778146000,5.58914599609375,0.45858606403172014,-0.01780629032552242,0.7208668811529875
1761469516788101000,5.59910107421875,2.6403753920853137,1.119794303035736,2.457047992430627
1761469516798056200,5.60905615234375,3.2118267877966162,2.5238632283359763,3.1488115286961196
1761469516808010000,5.619010009765625,3.1915117295205593,4.090624469280242,3.4164889441639184
1761469516817965000,5.628965087890625,3.1911160082012415,5.443760495200753,3.323246596843004
1761469516827920100,5.638920166015625,3.834886790192127,6.511620612859725,2.877090975317359
1761469516837875200,5.648875244140625,5.183787370499968,7.415306067362427,2.6797344657883047
1761469516847829000,5.6588291015625,6.755982911452651,8.298872278422117,3.183435975092649
1761469516857784000,5.6687841796875,8.265172837916015,8.888658956769108,3.9703190507277846
1761469516867739100,5.6787392578125,9.701598556941747,9.120020319491625,4.584839188314974
1761469516877694200,5.688694091796875,11.013224760866164,9.240803000167011,5.062011002612113
1761469516887648000,5.69864794921875,11.882038223952055,9.168571876692772,5.269060346376896
1761469516897603000,5.70860302734375,12.30312896232605,8.936438945075869,5.076870718091726
1761469516907558100,5.71855810546875,12.32720658800602,8.543008951565623,4.523400969272852
1761469516917513200,5.72851318359375,12.08020517308116,8.203166171336173,3.667174308298528
1761469516927467000,5.738467041015625,11.75030218758583,7.7332871443957085,3.026281419831514
1761469516937422000,5.748422119140625,11.07738655965328,7.44724843506813,2.5259733523577452
1761469516947377200,5.758377197265625,10.192455489981175,7.543850029689073,2.3589579128175973
1761469516957332200,5.768332275390625,8.982441986837983,7.398624981674551,2.610439103505015
1761469516967286000,5.7782861328125,7.2587886409610505,7.411298000764846,2.7265146294027565
1761469516977241000,5.788240966796875,5.415484248787164,7.521714185726642,2.911203380538523
1761469516987196200,5.798196044921875,3.8895921938478946,7.456590848430991,3.1131212066337466
1761469516997150200,5.808150146484375,2.7746605284124612,7.2760817210674285,3.3697929517015814
1761469517007105000,5.81810498046875,2.071902135401964,6.938375368344784,3.2680715298488736
1761469517017060000,5.82806005859375,1.8852607888936996,6.48585547248423,2.5851900959581133
1761469517027015200,5.83801513671875,1.9082506193369626,5.748698550787568,1.8109420454904437
1761469517036970200,5.84797021484375,2.005595725801587,5.269629670697451,1.3304399177268147
1761469517046924000,5.857924072265625,2.4332950686603785,5.017191033154726,1.4005872206643224
1761469517056879000,5.867879150390625,3.0163463012725114,4.7503410084217785,1.54588927943781
1761469517066834200,5.877834228515625,3.0553987932443616,4.402423642808198,1.2193994633868337
1761469517076788200,5.887788330078125,2.6389070730984208,3.951003817144036,0.6018911037690937
1761469517086743000,5.897742919921875,2.16553318977952,2.9843028112798926,0.11519099814817309
1761469517096698000,5.907697998046875,2.213860875096917,1.6453636530160902,-0.2019919142447412
1761469517106653200,5.917653076171875,2.3090783218830824,0.2715396438539028,0.06034092532470822
1761469517116607200,5.927607177734375,3.0064105981916187,-1.3652543337374925,1.0728053189761937
1761469517126562000,5.93756201171875,4.471941415670514,-3.976904566597938,3.0145760767295955
1761469517136517000,5.94751708984375,4.196814560979605,-6.794218826344609,3.933058995130658
1761469517146472200,5.95747216796875,0.7740817539900541,-8.339333468148112,1.817695173012465
1761469517156426200,5.96742626953125,-5.837974917086958,-9.275563932424783,-2.430003918160498
1761469517166381000,5.977381103515625,-11.796954048645496,-8.723704541411996,-5.867567506796121
1761469517176336100,5.987336181640625,-14.270245027607679,-8.21393423358798,-4.73398257881701
1761469517186291200,5.997291259765625,-15.260394713598489,-9.32018107278645,-1.942723528433591
1761469517196245200,6.007245361328125,-15.240685804522037,-9.33923999352157,-1.9415460090868173
1761469517206200000,6.017199951171875,-15.247290901875495,-9.346588602718711,-1.8981607486076653
1761469517216155100,6.027155029296875,-11.342467236626147,-11.43935057079792,-1.5770846281684934
1761469517226110200,6.037110107421875,-8.394925006988645,-13.319437171924113,-1.096332471166551
1761469517236064300,6.047064208984375,-8.468218206736445,-14.364192892849445,-1.1071560629978776
1761469517246019300,6.057019287109375,-8.304826218390465,-14.550283619737625,-1.0643800204582512
1761469517255974400,6.066974365234375,-8.140275707659125,-14.73425370121002,-1.0558660207435488
1761469517265929200,6.07692919921875,-8.01721222257018,-14.873811809504032,-1.0607779043130576
1761469517275883300,6.08688330078125,-7.955884185904264,-14.95173208453059,-1.0477478884786366
1761469517285838300,6.09683837890625,-7.9471385693907735,-14.975723200970886,-1.0147384760633111
1761469517295793400,6.10679345703125,-7.973755942681431,-14.961108984684943,-0.9729708799138664
1761469517305748200,6.116748291015625,-8.025708248236775,-14.914950460100172,-0.9358768285334109
1761469517315702300,6.126702392578125,-9.603316461887955,-7.6702908822566265,-2.8086569060385225
1761469517325657300,6.1366572265625,-6.049736091804504,-6.356679641994834,-4.404419492800534
1761469517335612400,6.1466123046875,-2.405254969090223,-4.486107303667068,-5.026387900567054
1761469517345567200,6.156567138671875,1.390975634971261,-2.392213116687536,-4.650163893401622
1761469517355521300,6.166521240234375,4.997130241900682,-0.315889073190093,-3.499135370929539
1761469517365476400,6.176476318359375,7.85298086079061,1.7219629085719586,-1.6376615542061626
1761469517375431400,6.186431396484375,9.627435588622093,3.9065070882916446,0.8905056549340487
1761469517385386200,6.19638623046875,10.99955980812907,5.538175393432378,3.4186224490612744
1761469517395340300,6.20634033203125,12.496318123042583,7.182628361344337,5.126548064452409
1761469517405295400,6.21629541015625,13.711244532668589,8.708870544895529,6.452643523234128
1761469517415250200,6.226250244140625,13.87633455710411,10.139259321844577,7.390241184210777
1761469517425205200,6.236205322265625,12.770607357865572,11.574061823582648,7.526160059219598
1761469517435159300,6.2461591796875,11.668497180080413,12.618485536074637,7.4425196529805655
1761469517445114400,6.2561142578125,10.840544135171175,13.351649004220961,7.256573302999138
1761469517455069200,6.266069091796875,10.154373888868093,13.796272593873738,7.082738246572017
1761469517465024300,6.276024169921875,9.352383552733063,13.83422326208353,6.842080063194036
1761469517474978300,6.285978271484375,8.584960672110318,13.696346238744258,6.230349848586321
1761469517484933400,6.295933349609375,7.918519208627939,13.143771977460384,5.369480037981272
1761469517494888200,6.30588818359375,7.559805139189958,12.528058830696343,4.551117535977065
1761469517504843300,6.31584326171875,7.390722245725989,11.995995442521572,3.6930741809695955
1761469517514797300,6.32579736328125,7.235296121692657,11.345544159853457,2.8955247498914596
1761469517524752400,6.33575244140625,7.027151968428492,10.666217495834827,2.1411308621898293
1761469517534707200,6.345707275390625,6.808849409243464,10.210449411833286,1.6437962575688958
1761469517544662300,6.355662353515625,6.646460460460186,9.594644495132565,1.4553563372060656
1761469517554616300,6.3656162109375,6.019852994716167,8.902963376453519,1.206321370626986
1761469517564571100,6.375571044921875,4.83579401704073,8.460351711145043,0.9338575976654887
1761469517574526200,6.385526123046875,3.5693086850911375,8.068191883701086,0.6329194253697991
1761469517584481300,6.395481201171875,2.459941668045521,7.320041858825087,0.2340633151575923
1761469517594435300,6.405435302734375,1.2408370959520338,6.385573143523931,-0.033767245045304296
1761469517604390100,6.41539013671875,0.08529694127440451,5.648645938929915,0.2864963899672031
1761469517614345200,6.42534521484375,-0.557148145070672,4.669507476297021,1.0106379088766873
1761469517624300300,6.43530029296875,-0.3610235154241323,2.9130531000584363,1.1085806889735161
1761469517634254300,6.44525439453125,0.5512649322509765,0.81976330871284,0.7027405650928616
1761469517644209200,6.455209228515625,1.9985995833039283,-1.7678034532487392,0.2521140817634761
1761469517654164200,6.465164306640625,3.886028948408365,-5.00970447679162,0.021661504448950288
1761469517664119300,6.475119384765625,4.654617365679145,-7.992580470138788,-0.13089052545279264
1761469517674073300,6.4850732421875,2.5017501807272433,-9.42268458492756,-0.9328880219809711
1761469517684028200,6.495028076171875,-2.4435750551342963,-10.04814872585535,-2.9015783508419988
1761469517693983200,6.504983154296875,-9.418551430645584,-10.528246948993205,-6.378253760421276
1761469517703937300,6.514937255859375,-15.496881748771667,-10.985504394769668,-9.804760825252533
1761469517713892000,6.52489208984375,-16.518354793787,-11.92042845262289,-10.58049502262473
1761469517723847200,6.53484716796875,-16.471649156713486,-11.922184356379509,-10.79870172021985
1761469517733802200,6.54480224609375,-16.449894421023128,-11.918709958267211,-10.93675059299469
1761469517743756300,6.55475634765625,-16.44452383390069,-11.917096677851676,-10.977557235157489
1761469517753711000,6.564711181640625,-16.450499985700844,-11.917573647713661,-10.939327165484428
1761469517763666200,6.574666259765625,-16.476015535229443,-11.909566866868733,-10.837342124259472
1761469517773621200,6.584621337890625,-16.51078640435934,-11.89763794414401,-10.715307982218265
1761469517783575300,6.5945751953125,-16.534030501824617,-11.895345449292659,-10.61518405869007
1761469517793530000,6.604530029296875,-16.523552362430095,-11.918880638659,-10.563699370646477
1761469517803485200,6.614485107421875,-16.47110087518096,-11.976177812373637,-10.56240640822649
1761469517813440300,6.624440185546875,-10.228023646968602,-5.432524230915308,-7.944643829965591
1761469517823394300,6.634394287109375,-8.736464654263854,-4.4471576875478025,-7.64667385982573
1761469517833349000,6.64434912109375,-7.668852958407998,-3.548713056308031,-7.171095159938931
1761469517843304200,6.65430419921875,-6.412853364637494,-0.812633310702443,-4.810850714442133
1761469517853259300,6.66425927734375,-4.482450534725189,0.055012277647852895,-2.53357330596745
1761469517863213300,6.67421337890625,-1.4909201102793215,0.17497662767767905,-2.00078774099797
1761469517873168100,6.684168212890625,0.8202882093697785,2.5249013392120596,-0.2915367952872068
1761469517883123200,6.694123291015625,1.7484663000941276,3.8177451012551784,1.441483586937189
1761469517893078300,6.704078369140625,1.864867989206314,3.7753339465051887,2.0501615743674337
1761469517903032300,6.7140322265625,2.3288544509768485,4.120927837607264,2.01271944020167
1761469517912987100,6.723987060546875,2.746131768542528,4.132148904323578,1.3107406532615422
1761469517922942200,6.733942138671875,3.162491971263289,4.0645431025624275,0.8647617034770548
1761469517932897300,6.743897216796875,4.049719627439975,4.116896390134096,0.6138031484242529
1761469517942851300,6.753851318359375,5.490762484872341,4.314696844038367,0.5361131384896114
1761469517952806100,6.76380615234375,7.182266542294621,4.159370673248172,0.41614268751256167
1761469517962761200,6.77376123046875,8.641082372304796,3.78545845015645,0.33646870068646967
1761469517972716300,6.78371630859375,10.175214432322978,4.105758910048007,-0.09973938119001687
1761469517982670300,6.79367041015625,11.263456243753433,4.249068479830027,-0.22430928878653794
1761469517992625200,6.803625244140625,11.648607069218158,4.165670065653324,-0.058988560867682095
1761469518002580200,6.813580322265625,11.855913602614402,4.345033530113101,0.13485460677817462
1761469518012535300,6.823535400390625,11.973889993697405,4.285563104012608,0.3075591613380238
1761469518022489300,6.8334892578125,12.101881582838296,4.170294802844524,0.4910841659240424
1761469518032444200,6.843444091796875,11.96216565363407,4.19061219920814,0.38759149661511183
1761469518042399200,6.853399169921875,11.253998679578304,4.246851388302445,0.23859485764000563
1761469518052354300,6.863354248046875,10.024730440866946,4.13577995430231,0.21773001999408007
1761469518062308400,6.873308349609375,8.413163258990645,4.132729334560036,0.15245372062642126
1761469518072263200,6.88326318359375,6.746219057807326,4.921510645031929,0.014957074906863271
1761469518082218200,6.89321826171875,5.3773564704447985,5.832288688144088,-0.1695880117082037
1761469518092172000,6.903172119140625,4.2964504087299105,6.7546203909277915,0.06600198329370469
1761469518102127400,6.91312744140625,3.0491116757988928,6.824712748807668,0.8567046537496149
1761469518112082200,6.923082275390625,2.912570284977555,6.6222390423953525,1.607335974047333
1761469518122037200,6.933037353515625,3.4334698895812035,6.884100172799825,1.6217779025062917
1761469518131991000,6.942990966796875,4.161920357730985,6.77629329355359,1.6677635547421872
1761469518141946400,6.9529462890625,4.987719439476728,5.83092149144411,1.7891634905330835
1761469518151901200,6.962901123046875,5.639316385048628,4.956903445452451,1.4462414489887654
1761469518161856300,6.972856201171875,6.096675537633896,3.9276936687052246,0.4556694459326565
1761469518171810000,6.98281005859375,6.006171675366163,2.5477941390216348,-0.8262976058524102
1761469518181765400,6.992765380859375,4.181588350275159,1.6642869646728038,-0.8258173480547965
1761469518191720200,7.00272021484375,1.014289270991087,1.0778121873527764,0.9736100546002388
1761469518201675300,7.01267529296875,-1.7733622564196585,0.30436814674437046,1.927435212278366
1761469518211629000,7.022629150390625,-3.069590400204062,-1.1891776358634232,1.50683138063848
1761469518221584400,7.03258447265625,-2.2344798847556113,-4.029703259849548,0.6203972129270434
1761469518231539200,7.042539306640625,-1.2595125703275203,-7.907056734371185,-0.7283525607332587
1761469518241494300,7.052494384765625,-2.3488375008195637,-10.233077423226833,-2.180990871152282
1761469518251448000,7.062447998046875,-5.834808562010526,-9.595956746774911,-2.071913679709285
1761469518261403100,7.072403076171875,-11.442394760799408,-7.264419340324402,0.11950612140092998
1761469518271358200,7.082358154296875,-15.189647691202163,-5.259834252870083,1.1506459528952837
1761469518281313300,7.092313232421875,-14.44176596187353,-4.474594560527802,0.3371069985900074
1761469518291267000,7.10226708984375,-11.667543240356444,-6.083644206625223,-1.199551145839691
1761469518301222100,7.11222216796875,-9.021485710981487,-6.693630792436004,-2.8130653701305386
1761469518311177200,7.12217724609375,-6.227400351130962,-6.930618762868642,-3.2164632154256103
1761469518321132300,7.13213232421875,-6.393134518688917,-9.209516466021537,-0.3366774115337059
1761469518331086000,7.142086181640625,-7.252098787933588,-9.839503637331724,2.793799820907414
1761469518341041200,7.152041259765625,-7.375504802849888,-9.08438903414011,4.445042302829027
1761469518350996000,7.161995849609375,-8.61281956989467,-9.84038392729759,4.815034722128511
1761469518360950300,7.1719501953125,-10.215090515637398,-9.954297891247272,3.979761125072837
1761469518370905000,7.181905029296875,-10.80668278210163,-8.53788620172441,2.461041738241911
1761469518380860200,7.191860107421875,-10.820054304850101,-6.785067551639676,1.1230189641706645
1761469518390815000,7.20181494140625,-11.280836417621373,-6.0770654127568005,-0.8733397083386778
1761469518400769300,7.211769287109375,-11.683881796216964,-4.87924795884192,-3.13666019539237
1761469518410724000,7.22172412109375,-10.269390261101723,-1.0501374139636754,-4.38886331948936
1761469518420679200,7.23167919921875,-7.350003281846642,1.8837743497282267,-4.095280770653486
1761469518430634000,7.241634033203125,-3.7853894765734672,2.3779583813637495,-3.1520266913503407
1761469518440588300,7.25158837890625,-0.079686115655303,2.3988456865698096,-2.3685635071612894
1761469518450543000,7.261543212890625,3.364767524755001,1.7323954552590846,-1.8179048702403902
1761469518460498200,7.271498291015625,5.320053451511264,0.4337035517096519,-0.22799824296496807
1761469518470453000,7.281452880859375,6.926737537521124,0.6349743120729923,1.2482371430754662
1761469518480407300,7.2914072265625,7.1485571649163955,2.1389526413679123,2.923174681100249
1761469518490362000,7.301362060546875,6.653995532140136,3.813668645596504,3.9276311248630282
1761469518500317200,7.311317138671875,4.7984319623738525,3.0353064378082752,3.8780025860801337
1761469518510272000,7.32127197265625,2.871995698004961,0.3369417980909347,3.899277721560001
1761469518520226300,7.331226318359375,3.9983886686533685,1.9766998861849308,1.614601873397082
1761469518530181000,7.34118115234375,6.76650196737945,5.030325824537873,-0.6891120719086379
1761469518540136200,7.35113623046875,8.476194592443107,3.986948406228423,0.7465827024940401
1761469518550091000,7.361091064453125,9.620218496850132,3.38369843519628,2.0875890954859555
1761469518560045300,7.37104541015625,9.546021626260876,4.1508787392348045,4.300262075972557
1761469518570000100,7.381000244140625,8.673203019186854,4.547213806536793,5.965177986198664
1761469518579955200,7.390955078125,6.938032838517427,5.444799775120615,6.572513180717825
1761469518589910000,7.400909912109375,5.377226122063398,6.6048962779283515,5.920247542104125
1761469518599864300,7.4108642578125,4.435719178688526,6.838439076343178,4.074179238174856
1761469518609819100,7.420819091796875,3.935585883259773,6.779718007305264,1.669521358194947
1761469518619774200,7.430774169921875,3.7554806605219837,6.806219060739874,-0.3011128164765425
1761469518629728000,7.44072802734375,4.214230975204706,6.694163876399397,-1.7472015408553183
1761469518639683300,7.450683349609375,4.779776946264505,6.491091035050153,-2.257685842167586
1761469518649638100,7.46063818359375,5.275456769415736,6.451944435054063,-2.0662153219372033
1761469518659593200,7.47059326171875,5.57284338670969,6.763242088800668,-1.5179270674094556
1761469518669547000,7.480547119140625,5.4873243271172045,6.732226188290118,-0.6086944636410102
1761469518679502300,7.49050244140625,5.161024919071793,6.53561465190947,0.06167526093469932
1761469518689457200,7.50045703125,4.308683282837271,6.731798318266868,0.616660364486277
1761469518699412200,7.510412109375,3.5033576647996902,6.325209567975998,0.7131076453283429
1761469518709366000,7.520365966796875,2.4299551105827093,4.968147308522463,0.6997166872270405
1761469518719321300,7.5303212890625,1.7667466376721859,2.9904782850444316,0.5618342570602893
1761469518729276200,7.540276123046875,2.4327596466094255,1.0079097990870476,-0.4629565342009067
1761469518739231200,7.550231201171875,4.118105181401968,-1.6546394308835266,-1.8851283946856856
1761469518749185000,7.56018505859375,5.7686278246164315,-3.8290234511166807,-3.080984777660668
1761469518759140400,7.570140380859375,5.788112861809134,-3.971519366428256,-3.060467182549834
1761469518769095200,7.58009521484375,2.8516005602300165,-4.237689592203497,-0.739601319174096
1761469518779050000,7.590050048828125,-1.35026426987648,-4.6486377067476505,1.6515459949128328
1761469518789004000,7.600004150390625,-5.725416459399462,-6.056629358449578,3.104595078089833
1761469518798959000,7.609958984375,-8.434793491518496,-6.998876306536793,3.175211752104759
1761469518808914200,7.6199140625,-9.023338060849904,-6.829374895399808,2.939223898625374
1761469518818869000,7.629868896484375,-8.162820716944337,-7.664369090992212,3.216154295606911
1761469518828823000,7.639822998046875,-7.36541127885878,-9.004760786151886,1.7182403809174893
1761469518838778000,7.649778076171875,-7.2351295329540966,-9.696047352555393,-1.1653256356328725
1761469518848733200,7.659733154296875,-8.002727185621858,-9.598766543498634,-2.7263857423260807
1761469518858687200,7.669687255859375,-8.535601305657625,-7.503416897013783,-3.570176992358267
1761469518868642000,7.67964208984375,-9.766987267175317,-5.947863278782368,-3.8426460260167716
1761469518878597000,7.68959716796875,-10.646547165203094,-5.3364323393821715,-4.911161684975028
1761469518888552200,7.69955224609375,-10.228080930113792,-4.960871180039644,-6.795304283493757
1761469518898506200,7.70950634765625,-7.888015349292755,-4.23624874574542,-7.9163611538112155
1761469518908461000,7.7194609375,-5.060176188400387,-3.3890193379580973,-7.157648233866691
1761469518918416100,7.729416015625,-2.5245529641658067,-1.9331138424366712,-5.17043046079874
1761469518928371200,7.73937109375,-0.705640085926652,-0.15805296540558336,-2.952613541552424
1761469518938325200,7.7493251953125,-0.003574351355433464,1.1080997735887765,-1.2050395141229033
1761469518948280000,7.759280029296875,0.29347967298328875,1.8851041370272634,-0.6124265263088047
1761469518958235100,7.769235107421875,-0.16587503733336925,2.487783614695072,-0.4740951833307743
1761469518968190200,7.779190185546875,-0.29199498738348484,2.945025278380513,-0.3749509184896946
1761469518978144300,7.789144287109375,0.3442296170115471,2.876653752943873,-0.8887631951808929
1761469518988099000,7.79909912109375,1.1478192050367593,2.401727964007854,-1.7429611268065868
1761469518998054100,7.80905419921875,1.6118465833395719,1.9674846063330769,-2.5908684338554737
1761469519008009200,7.81900927734375,1.239134383687377,1.5074050888732076,-3.0965222462713715
1761469519017963300,7.82896337890625,0.44134968254864215,1.2238266321793199,-3.3045936265602704
1761469519027918000,7.83891796875,-0.04320318191051483,1.1163587756291031,-3.296167451259494
1761469519037873200,7.848873046875,0.4714315170794725,1.363100955095887,-2.6793460509926077
1761469519047828200,7.858828125,1.5699959850817917,1.8631886578172445,-1.9360491652362048
1761469519057782300,7.8687822265625,2.4284791928112504,2.6267072244778276,-1.5725174663834274
1761469519067737000,7.878737060546875,3.535727318006754,3.3151232038810847,-1.1519980250913648
1761469519077692000,7.88869189453125,4.795740239071845,3.8368572134822605,-0.449529774133861
1761469519087646200,7.898646240234375,5.964563069170713,4.385796917656064,0.9980560752011834
1761469519097601300,7.908601318359375,6.977032138997316,5.106353417685628,2.04323089832142
1761469519107556000,7.91855615234375,7.561698990112543,5.097607801172137,2.667123698279261
1761469519117511000,7.928510986328125,8.010114957785605,4.388294579690695,2.400348200087249
1761469519127465200,7.93846533203125,8.43833101799488,4.07910412735641,1.9909299254588781
1761469519137420300,7.948420166015625,8.548781105226277,4.149584607771039,0.7213483810596167
1761469519147375000,7.958375,7.7869029992491,3.7812972388237713,-0.14679299145098776
1761469519157330000,7.968329833984375,6.728756466352939,3.573739361014962,-0.553840153033845
1761469519167284200,7.9782841796875,5.457711279141902,3.5587884601205584,-1.1982437165029347
1761469519179105000,7.99010498046875,4.435824392628669,3.402198553004861,-1.8962744964696465
1761469519189060000,8.00006005859375,3.5189573849916456,3.180809133720398,-2.386068330322206
1761469519199015200,8.01001513671875,3.022387919524312,3.49752062920928,-2.5292881759941577
1761469519208969200,8.01996923828125,3.04458513828516,3.9473067161917683,-2.044244020886719
1761469519218924000,8.029924072265626,3.3124107300519943,4.304190063071251,-0.7148028318736702
1761469519228879000,8.039879150390625,3.0583406919151543,4.079613830444217,0.6707206021063029
1761469519238835000,8.0498349609375,2.122509456089139,3.043583267766237,1.26193292934224
1761469519248788700,8.059788818359374,1.4315928920418024,1.78232999125123,1.63550773717314
1761469519258743800,8.069743896484376,0.7381126149863004,0.29753216324448584,2.0206980178654192
1761469519268698600,8.07969873046875,0.5217366399496793,-1.1307499968141317,1.3588213780805467
