time,seconds_elapsed,z,y,x
1761469511252014800,0.063014892578125,-0.17551951110363007,-0.03522615134716034,0.14974641799926758
1761469511261969000,0.072968994140625,-0.18627363443374634,-0.0305312629789114,0.11610962450504303
1761469511271923700,0.082923828125,-0.20250491797924042,-0.024494701996445656,0.07380718737840652
1761469511281878800,0.092878662109375,-0.2327059656381607,-0.01705010235309601,0.026292400434613228
1761469511291833900,0.102833740234375,-0.27085280418395996,-0.008693522773683071,-0.01480864081531763
1761469511301788000,0.112787841796875,-0.31066465377807617,-0.0003682145616039634,-0.05007927864789963
1761469511311742700,0.12274267578125,-0.34254634380340576,0.005732676945626736,-0.0820106789469719
1761469511321697800,0.13269775390625,-0.36752307415008545,0.013630812987685204,-0.1014738604426384
1761469511331652900,0.14265283203125,-0.38396385312080383,0.048987891525030136,-0.09665705263614655
1761469511341607000,0.15260693359375,-0.38955169916152954,0.10362344235181808,-0.08809952437877655
1761469511351561700,0.162561767578125,-0.3822092115879059,0.15416552126407623,-0.08844918012619019
1761469511361516800,0.172516845703125,-0.3707919716835022,0.20019187033176422,-0.09806745499372482
1761469511371472000,0.182471923828125,-0.3505217730998993,0.22958557307720184,-0.10263087600469589
1761469511381426000,0.192426025390625,-0.32684680819511414,0.23697584867477417,-0.09350555390119553
1761469511391380700,0.202380615234375,-0.2923111617565155,0.22792766988277435,-0.06948056817054749
1761469511401335800,0.212335693359375,-0.2568724751472473,0.21442118287086487,-0.03587626293301582
1761469511411291000,0.222290771484375,-0.21993640065193176,0.1805519163608551,0.0016943237278610468
1761469511421245000,0.232244873046875,-0.1885150969028473,0.12915371358394623,0.039439305663108826
1761469511431199700,0.24219970703125,-0.1701045036315918,0.06004966050386429,0.07279543578624725
1761469511441154800,0.25215478515625,-0.16114376485347748,0.02792794443666935,0.1006731390953064
1761469511451110000,0.26210986328125,-0.1585763692855835,0.05295614153146744,0.11587948352098465
1761469511461064000,0.27206396484375,-0.14462220668792725,0.10614719241857529,0.10824686288833618
1761469511471018800,0.282018798828125,-0.11702723801136017,0.15761737525463104,0.08026149868965149
1761469511480973800,0.291973876953125,-0.08792341500520706,0.17441819608211517,0.0410483181476593
1761469511490929000,0.301928955078125,-0.055772121995687485,0.1571308672428131,0.0025193290784955025
1761469511500883700,0.3118837890625,-0.03263084962964058,0.1331845223903656,-0.021567098796367645
1761469511510837800,0.321837646484375,-0.024987420067191124,0.08918285369873047,-0.025741562247276306
1761469511520792800,0.331792724609375,-0.035214755684137344,0.025411332026124,-0.016403986141085625
1761469511530748000,0.341747802734375,-0.0514008030295372,-0.04746769741177559,0.004024014808237553
1761469511540702700,0.35170263671875,-0.0728624239563942,-0.11513782292604446,0.03815482184290886
1761469511550656800,0.36165673828125,-0.09892354160547256,-0.1645117998123169,0.07188037782907486
1761469511560611800,0.37161181640625,-0.1339361071586609,-0.17400836944580078,0.08766786009073257
1761469511570567000,0.38156689453125,-0.15860731899738312,-0.1492988020181656,0.08277521282434464
1761469511580521700,0.391521728515625,-0.17672400176525116,-0.1048961952328682,0.056789152324199677
1761469511590475800,0.401475830078125,-0.18580037355422974,-0.0743805319070816,0.01803208887577057
1761469511600430800,0.411430908203125,-0.18754154443740845,-0.060723040252923965,-0.02842675894498825
1761469511610386000,0.421385986328125,-0.19493956863880157,-0.05446008965373039,-0.06346176564693451
1761469511620340700,0.4313408203125,-0.20732034742832184,-0.0617840476334095,-0.0812159925699234
1761469511630294800,0.441294677734375,-0.22084763646125793,-0.06667580455541611,-0.07992497831583023
1761469511640249900,0.451249755859375,-0.23528143763542175,-0.07769250124692917,-0.0646916925907135
1761469511650205000,0.461204833984375,-0.253047913312912,-0.09196629375219345,-0.04980539530515671
1761469511660159700,0.47115966796875,-0.2692018449306488,-0.09708089381456375,-0.0426177904009819
1761469511670113800,0.48111376953125,-0.2842572331428528,-0.08704312890768051,-0.04611321911215782
1761469511680068600,0.491068603515625,-0.28719362616539,-0.07560645043849945,-0.056062519550323486
1761469511690024000,0.50102392578125,-0.2872350811958313,-0.055359795689582825,-0.07287270575761795
1761469511699978800,0.510978759765625,-0.28582626581192017,-0.06778211891651154,-0.08586839586496353
1761469511709932800,0.520932861328125,-0.28493571281433105,-0.10068292170763016,-0.08958941698074341
1761469511719887600,0.5308876953125,-0.2880423069000244,-0.1492493897676468,-0.08872948586940765
1761469511729843000,0.540843017578125,-0.29074764251708984,-0.2072998285293579,-0.0891166403889656
1761469511739797800,0.5507978515625,-0.29633790254592896,-0.2603670358657837,-0.08783911913633347
1761469511749751800,0.560751708984375,-0.3073533773422241,-0.29178085923194885,-0.08782229572534561
1761469511759706600,0.57070654296875,-0.3174363672733307,-0.29518648982048035,-0.08413248509168625
1761469511769662000,0.580661865234375,-0.32310572266578674,-0.2836966812610626,-0.07389988750219345
1761469511779616800,0.59061669921875,-0.32924535870552063,-0.26884183287620544,-0.061751339584589005
1761469511789570800,0.60057080078125,-0.32572174072265625,-0.25288888812065125,-0.046104706823825836
1761469511799525600,0.610525634765625,-0.313675194978714,-0.23650220036506653,-0.03157343715429306
1761469511809481000,0.62048095703125,-0.30597150325775146,-0.23129764199256897,-0.01728193275630474
1761469511819435800,0.630435791015625,-0.3094908595085144,-0.21806760132312775,-0.0008755291346460581
1761469511829389800,0.640389892578125,-0.3106081187725067,-0.18483902513980865,0.013607162982225418
1761469511839344600,0.6503447265625,-0.31304651498794556,-0.1429363191127777,0.023742621764540672
1761469511849300000,0.660300048828125,-0.3048761188983917,-0.1282086968421936,0.028037723153829575
1761469511859254800,0.6702548828125,-0.2920242249965668,-0.13907332718372345,0.020579807460308075
1761469511869209900,0.6802099609375,-0.28315937519073486,-0.15867270529270172,0.012600865215063095
1761469511879163600,0.69016357421875,-0.2870103120803833,-0.17807278037071228,-0.0005306496750563383
1761469511889119000,0.700118896484375,-0.2949044108390808,-0.17199431359767914,-0.008565264753997326
1761469511899073800,0.71007373046875,-0.30424490571022034,-0.16773618757724762,-0.018836278468370438
1761469511909028900,0.72002880859375,-0.313142329454422,-0.18710769712924957,-0.02465164288878441
1761469511918982700,0.729982666015625,-0.3169647455215454,-0.20503796637058258,-0.018117843195796013
1761469511928938000,0.73993798828125,-0.32815924286842346,-0.22088561952114105,0.0017380567733198404
1761469511938892800,0.749892822265625,-0.34044015407562256,-0.22130586206912994,0.028853829950094223
1761469511948847900,0.759847900390625,-0.3456159234046936,-0.2118988335132599,0.047935280948877335
1761469511958801700,0.7698017578125,-0.34346169233322144,-0.208512082695961,0.05418332293629646
1761469511968757000,0.779757080078125,-0.33584269881248474,-0.21827098727226257,0.04681030660867691
1761469511978711800,0.7897119140625,-0.3249839246273041,-0.23714134097099304,0.02970934845507145
1761469511988667000,0.7996669921875,-0.3188916742801666,-0.26434239745140076,0.010438154451549053
1761469511998620700,0.80962060546875,-0.3187313377857208,-0.28408706188201904,-0.00703058484941721
1761469512008576000,0.819575927734375,-0.3289373517036438,-0.28480494022369385,-0.018376393243670464
1761469512018530800,0.82953076171875,-0.3447458744049072,-0.28703027963638306,-0.02827776037156582
1761469512028486000,0.83948583984375,-0.36384454369544983,-0.27144595980644226,-0.021039988845586777
1761469512038439700,0.849439697265625,-0.38861727714538574,-0.25735703110694885,-0.006089269183576107
1761469512048395000,0.85939501953125,-0.4125215411186218,-0.2555329203605652,0.016694340854883194
1761469512058349800,0.869349853515625,-0.433617502450943,-0.2631533145904541,0.027815166860818863
1761469512068305000,0.879304931640625,-0.45225897431373596,-0.27556511759757996,0.029495369642972946
1761469512078258700,0.8892587890625,-0.46466848254203796,-0.27576032280921936,0.022442255169153214
1761469512088213800,0.8992138671875,-0.46764829754829407,-0.2620697021484375,0.014273541048169136
1761469512098168800,0.9091689453125,-0.46106308698654175,-0.22727973759174347,0.008867856115102768
1761469512108124000,0.9191240234375,-0.44797220826148987,-0.17726224660873413,0.010615380480885506
1761469512118077700,0.92907763671875,-0.42794790863990784,-0.12788058817386627,0.011803682893514633
1761469512128032800,0.93903271484375,-0.4067096710205078,-0.10528317093849182,0.008321234956383705
1761469512137987800,0.94898779296875,-0.3876928389072418,-0.11818725615739822,-0.0027495252434164286
1761469512147942700,0.958942626953125,-0.36915868520736694,-0.14593619108200073,-0.016967564821243286
1761469512157896700,0.968896728515625,-0.35547563433647156,-0.16714853048324585,-0.019439244642853737
1761469512167851800,0.978851806640625,-0.34782204031944275,-0.17968373000621796,-0.013157017529010773
1761469512177806800,0.988806884765625,-0.346390038728714,-0.1924368143081665,0.011155512183904648
1761469512187761700,0.99876171875,-0.3420850932598114,-0.19612540304660797,0.04303396865725517
1761469512197715700,1.0087158203125,-0.3306015431880951,-0.17367202043533325,0.07989664375782013
1761469512207670800,1.0186708984375,-0.3132985532283783,-0.12155222147703171,0.11243178695440292
1761469512217625900,1.0286259765625,-0.29346492886543274,-0.07283155620098114,0.12808425724506378
1761469512227580700,1.03858056640625,-0.2724780738353729,-0.05699494481086731,0.1229541003704071
1761469512237534700,1.04853466796875,-0.2531520426273346,-0.07082793861627579,0.09656510502099991
1761469512247489800,1.05848974609375,-0.2397792935371399,-0.08373858034610748,0.056504953652620316
1761469512257444600,1.068444580078125,-0.2320374846458435,-0.11159470677375793,0.010572882369160652
1761469512267399700,1.078399658203125,-0.23115327954292297,-0.14696751534938812,-0.01967630907893181
1761469512277353700,1.088353759765625,-0.2244812697172165,-0.15730057656764984,-0.021628674119710922
1761469512287308800,1.098308837890625,-0.21234853565692902,-0.14914029836654663,-0.0032991317566484213
1761469512297263600,1.108263671875,-0.19826281070709229,-0.138877272605896,0.019079675897955894
1761469512307218700,1.11821875,-0.1855732798576355,-0.1260593831539154,0.04300970584154129
1761469512317172700,1.1281728515625,-0.17759232223033905,-0.10016734153032303,0.06749054789543152
1761469512327127800,1.1381279296875,-0.1756705343723297,-0.07955638319253922,0.07867594063282013
1761469512337082600,1.14808251953125,-0.17143531143665314,-0.08263979107141495,0.07713689655065536
1761469512347037700,1.15803759765625,-0.1683392971754074,-0.10194706171751022,0.06697072088718414
1761469512356991700,1.16799169921875,-0.16402684152126312,-0.11575900763273239,0.051675114780664444
1761469512366946800,1.17794677734375,-0.16571708023548126,-0.11675655841827393,0.04382053017616272
1761469512376901600,1.187901611328125,-0.16143499314785004,-0.11186327040195465,0.028144896030426025
1761469512386856700,1.197856689453125,-0.1660471111536026,-0.09041610360145569,0.009442706592381
1761469512396810800,1.207810791015625,-0.175596684217453,-0.06381858140230179,-0.014445582404732704
1761469512406765800,1.217765869140625,-0.18696889281272888,-0.05386309698224068,-0.0384715273976326
1761469512416720600,1.227720703125,-0.18804587423801422,-0.0525384396314621,-0.053608667105436325
1761469512426675500,1.237675537109375,-0.17854076623916626,-0.05176766589283943,-0.051245883107185364
1761469512436629800,1.247629638671875,-0.1639900654554367,-0.05109122395515442,-0.035426441580057144
1761469512446584600,1.25758447265625,-0.14732800424098969,-0.055527038872241974,-0.0139283686876297
1761469512456539600,1.26753955078125,-0.13465961813926697,-0.06730566918849945,0.004988064989447594
1761469512466494500,1.277494384765625,-0.12881691753864288,-0.07763319462537766,0.01964261382818222
1761469512476448800,1.28744873046875,-0.122380331158638,-0.0734938457608223,0.023580895736813545
1761469512486403600,1.297403564453125,-0.11675486713647842,-0.07884486764669418,0.010383742861449718
1761469512496358700,1.307358642578125,-0.11201737076044083,-0.08309739828109741,-0.014424934051930904
1761469512506313500,1.3173134765625,-0.10515749454498291,-0.08003325015306473,-0.03848480060696602
1761469512516267800,1.327267822265625,-0.1041572168469429,-0.07748087495565414,-0.05498654395341873
1761469512526222600,1.33722265625,-0.10238993912935257,-0.07406271249055862,-0.05679776147007942
1761469512536177700,1.347177734375,-0.10058511793613434,-0.07386031001806259,-0.04984637722373009
1761469512546132500,1.357132568359375,-0.09438592195510864,-0.06884517520666122,-0.037582483142614365
1761469512556086800,1.367086669921875,-0.0891733169555664,-0.0597294457256794,-0.018677499145269394
1761469512566041600,1.37704150390625,-0.08375033736228943,-0.047332484275102615,-0.0036916532553732395
1761469512575996700,1.38699658203125,-0.07951857149600983,-0.0261294636875391,0.006213175132870674
1761469512585951500,1.396951416015625,-0.07583512365818024,-0.008353817276656628,0.014548925682902336
1761469512595905800,1.40690576171875,-0.07732222974300385,-0.006574825383722782,0.01680462248623371
1761469512605860600,1.416860595703125,-0.07914779335260391,-0.012398829683661461,0.009836812503635883
1761469512615815700,1.426815673828125,-0.08794794231653214,-0.014314708299934864,-0.004025207832455635
1761469512625770500,1.4367705078125,-0.10208252817392349,-0.024457115679979324,-0.025765642523765564
1761469512635724800,1.446724853515625,-0.11622737348079681,-0.04204409569501877,-0.04025350511074066
1761469512645679600,1.4566796875,-0.12708687782287598,-0.0647825300693512,-0.04504945129156113
1761469512655634700,1.466634765625,-0.1326395720243454,-0.0846177488565445,-0.04025522992014885
1761469512665589500,1.476589599609375,-0.13639302551746368,-0.09975782036781311,-0.023660805076360703
1761469512675543800,1.486543701171875,-0.13686786592006683,-0.10954839736223221,-0.004735051654279232
1761469512685498600,1.49649853515625,-0.1422935277223587,-0.10003834962844849,0.011937404051423073
1761469512695453700,1.50645361328125,-0.15226653218269348,-0.07748270779848099,0.013468721881508827
1761469512705408500,1.516408447265625,-0.16582295298576355,-0.05720282346010208,0.004927443340420723
1761469512715362800,1.52636279296875,-0.1818181574344635,-0.04015805944800377,-0.0116709740832448
1761469512725317600,1.536317626953125,-0.19759343564510345,-0.01801830530166626,-0.029185868799686432
1761469512735272700,1.546272705078125,-0.20976461470127106,0.007645247038453817,-0.03996874392032623
1761469512745227500,1.5562275390625,-0.2196253091096878,0.02494102343916893,-0.03965172916650772
1761469512755181800,1.566181884765625,-0.2291748821735382,0.03980226069688797,-0.03350861370563507
1761469512765136600,1.57613671875,-0.237545445561409,0.04791473224759102,-0.02289429120719433
1761469512775091700,1.586091796875,-0.24797385931015015,0.05971919372677803,-0.007981921546161175
1761469512785046500,1.596046630859375,-0.2587429881095886,0.05338745564222336,0.0002292064018547535
1761469512795000800,1.606000732421875,-0.26220110058784485,0.01915731467306614,0.0019285693997517228
1761469512804955600,1.61595556640625,-0.264358788728714,-0.018740646541118622,-0.0075190505012869835
1761469512814910700,1.62591064453125,-0.2604309022426605,-0.04232320189476013,-0.01505259983241558
1761469512824865500,1.635865478515625,-0.26080122590065,-0.0522528775036335,-0.02602696791291237
1761469512834819800,1.64581982421875,-0.25993970036506653,-0.05127682909369469,-0.03150589019060135
1761469512844774700,1.655774658203125,-0.25513559579849243,-0.023305216804146767,-0.03490559756755829
1761469512854729700,1.665729736328125,-0.2520868182182312,0.012645592913031578,-0.04097946733236313
1761469512864684500,1.6756845703125,-0.2517487108707428,0.020265614613890648,-0.05162733048200607
1761469512874638600,1.685638671875,-0.25315219163894653,-0.0006766844308003783,-0.07125057280063629
1761469512884593700,1.69559375,-0.25736862421035767,-0.046941567212343216,-0.07544204592704773
1761469512894548700,1.705548828125,-0.2713768482208252,-0.06836802512407303,-0.07053756713867188
1761469512904503600,1.715503662109375,-0.28960901498794556,-0.05809619650244713,-0.07403277605772018
1761469512914457600,1.72545751953125,-0.2884388267993927,-0.02832311950623989,-0.09152841567993164
1761469512924412700,1.73541259765625,-0.27416855096817017,0.0019694254733622074,-0.11898032575845718
1761469512934367700,1.74536767578125,-0.26202720403671265,0.01930926740169525,-0.15184055268764496
1761469512944322600,1.755322509765625,-0.2428237944841385,0.026266226544976234,-0.18289320170879364
1761469512954276600,1.765276611328125,-0.2289987951517105,0.020617395639419556,-0.20378915965557098
1761469512964231700,1.775231689453125,-0.2239951491355896,0.01592358946800232,-0.21105806529521942
1761469512974186800,1.785186767578125,-0.21835669875144958,0.04002413526177406,-0.2123451679944992
1761469512984141600,1.7951416015625,-0.21390745043754578,0.08590675890445709,-0.20720945298671722
1761469512994095600,1.805095703125,-0.20972788333892822,0.1259194165468216,-0.20179179310798645
1761469513004050700,1.81505078125,-0.2042253315448761,0.14796409010887146,-0.19517822563648224
1761469513014005800,1.825005859375,-0.1942075937986374,0.1519031822681427,-0.18964923918247223
1761469513023960600,1.834960693359375,-0.1829984486103058,0.1364542692899704,-0.1896129548549652
1761469513033914600,1.84491455078125,-0.17471414804458618,0.09418749809265137,-0.19660668075084686
1761469513043869700,1.85486962890625,-0.16751788556575775,0.06911972910165787,-0.20017719268798828
1761469513053824800,1.86482470703125,-0.13159318268299103,0.07968901097774506,-0.19011203944683075
1761469513063779600,1.874779541015625,-0.07014813274145126,0.1268579214811325,-0.1798318475484848
1761469513073733600,1.884733642578125,0.006853977218270302,0.20545099675655365,-0.176324725151062
1761469513083688700,1.894688720703125,0.0784391462802887,0.3104496896266937,-0.1771717518568039
1761469513093643800,1.904643798828125,0.13971927762031555,0.36600297689437866,-0.17218923568725586
1761469513103598600,1.9145986328125,0.2018950879573822,0.36804553866386414,-0.17116619646549225
1761469513113552600,1.924552734375,0.25315403938293457,0.36944690346717834,-0.16989053785800934
1761469513123507700,1.9345078125,0.2834492325782776,0.365826815366745,-0.18482577800750732
1761469513133462800,1.944462890625,0.2889627516269684,0.33389630913734436,-0.2042921483516693
1761469513143417600,1.95441748046875,0.2696806490421295,0.2405930459499359,-0.2159816026687622
1761469513153371600,1.96437158203125,0.24722330272197723,0.09619351476430893,-0.2217279076576233
1761469513163326700,1.97432666015625,0.23892955482006073,-0.07055863738059998,-0.21312135457992554
1761469513173281800,1.98428173828125,0.3036147952079773,-0.36084240674972534,-0.16341984272003174
1761469513183236600,1.994236572265625,0.48789095878601074,-0.775974452495575,-0.09007201343774796
1761469513193190700,2.004190673828125,0.7615752220153809,-1.0902810096740723,-0.032721102237701416
1761469513203145700,2.014145751953125,1.1185752153396606,-1.3088866472244263,0.06694165617227554
1761469513213100500,2.0241005859375,1.4546855688095093,-1.3371269702911377,0.1379479318857193
1761469513223055600,2.0340556640625,1.7531172037124634,-1.217401385307312,0.1388171911239624
1761469513233009700,2.044009765625,2.0259172916412354,-1.0074900388717651,0.040575843304395676
1761469513242964700,2.05396484375,2.2924141883850098,-0.8250248432159424,-0.08215151727199554
1761469513252919600,2.06391943359375,2.6236634254455566,-0.787989616394043,-0.16319924592971802
1761469513262874600,2.07387451171875,2.9594578742980957,-0.7998963594436646,-0.19176848232746124
1761469513272828700,2.08382861328125,3.2043442726135254,-0.590876042842865,-0.25938504934310913
1761469513282783700,2.09378369140625,3.171312093734741,-0.08383700251579285,-0.4253484606742859
1761469513292738600,2.103738525390625,2.9393863677978516,0.7064453959465027,-0.703598141670227
1761469513302693600,2.113693603515625,2.5994298458099365,1.2282451391220093,-0.8768693208694458
1761469513312647700,2.123647705078125,2.3386614322662354,1.0399658679962158,-0.7130385637283325
1761469513322602800,2.133602783203125,2.031820774078369,1.1696192026138306,-0.09277784079313278
1761469513332557600,2.1435576171875,1.6361522674560547,2.5265307426452637,0.805293619632721
1761469513342512600,2.1535126953125,1.210160493850708,3.2556450366973877,1.396551251411438
1761469513352466700,2.163466796875,1.0317188501358032,3.329737424850464,1.79098641872406
1761469513362421800,2.173421875,1.1158396005630493,2.235440492630005,2.155139923095703
1761469513372376600,2.18337646484375,1.119067907333374,0.49322983622550964,2.397559881210327
1761469513382331600,2.19333154296875,0.9111281037330627,-1.4632688760757446,2.552060127258301
1761469513392285700,2.20328564453125,0.6277145147323608,-3.9304285049438477,2.735687017440796
1761469513402240800,2.21324072265625,0.2821562588214874,-5.5014238357543945,2.9647104740142822
1761469513412195600,2.223195556640625,-0.03220034018158913,-5.63026762008667,3.129437208175659
1761469513422150700,2.233150634765625,-0.017865246161818504,-3.867872476577759,2.731206178665161
1761469513432104700,2.243104736328125,0.37873268127441406,-2.0820229053497314,2.0081565380096436
1761469513442059800,2.253059814453125,0.9860914945602417,-0.9384313225746155,1.6222741603851318
1761469513452014600,2.2630146484375,1.1932628154754639,-0.19195736944675446,1.1164681911468506
1761469513461969700,2.2729697265625,0.947938084602356,0.2720217704772949,0.6258965730667114
1761469513471923700,2.282923828125,0.4494207203388214,0.47881463170051575,0.2464509755373001
1761469513481878800,2.292878662109375,-0.08278148621320724,0.4699173867702484,-0.1271771341562271
1761469513491833600,2.30283349609375,-0.48008543252944946,0.368668794631958,-0.48864877223968506
1761469513501788700,2.31278857421875,-0.7617824077606201,0.04424748569726944,-0.7551071643829346
1761469513511742500,2.322742431640625,-0.9059523344039917,-0.5509769916534424,-0.8084460496902466
1761469513521697800,2.33269775390625,-0.9572914838790894,-1.5026381015777588,-0.7008192539215088
1761469513531652600,2.342652587890625,-1.1271353960037231,-2.356851100921631,-0.6717833280563354
1761469513541607700,2.352607666015625,-1.2091968059539795,-3.253572463989258,-0.6997562646865845
1761469513551561500,2.3625615234375,-1.2251057624816895,-4.099338054656982,-0.7826216220855713
1761469513561516800,2.372516845703125,-1.1901636123657227,-4.750830173492432,-0.8640778064727783
1761469513571471600,2.3824716796875,-1.1693265438079834,-5.055013179779053,-0.8237751126289368
1761469513581426700,2.3924267578125,-1.3103842735290527,-4.868681907653809,-0.71657395362854
1761469513591380500,2.40238037109375,-1.7016524076461792,-4.270333290100098,-0.5754058957099915
1761469513601335800,2.412335693359375,-2.256859064102173,-3.298976182937622,-0.46429604291915894
1761469513611290600,2.42229052734375,-2.7875640392303467,-2.0302023887634277,-0.30844733119010925
1761469513621245700,2.43224560546875,-3.122694492340088,-0.6820885539054871,-0.04893225431442261
1761469513631199500,2.442199462890625,-3.207920789718628,0.5039411783218384,0.28158387541770935
1761469513641154800,2.45215478515625,-3.054194211959839,1.4352033138275146,0.6390686631202698
1761469513651109600,2.462109619140625,-2.683091640472412,1.886836290359497,1.0650813579559326
1761469513661064700,2.472064697265625,-2.253011465072632,1.8194268941879272,1.4471356868743896
1761469513671019800,2.482019775390625,-1.7966809272766113,1.3713167905807495,1.6909832954406738
1761469513680973800,2.491973876953125,-1.2786165475845337,0.6619833111763,1.744044303894043
1761469513690928600,2.5019287109375,-0.7499633431434631,-0.0865577757358551,1.6083948612213135
1761469513700883700,2.5118837890625,-0.24506597220897675,-0.6991937160491943,1.4168951511383057
1761469513710838800,2.5218388671875,0.15365451574325562,-1.0424772500991821,1.250736117362976
1761469513720792800,2.531792724609375,0.4018764793872833,-1.1162678003311157,1.154483675956726
1761469513730747600,2.54174755859375,0.520806610584259,-0.9675334692001343,1.1307111978530884
1761469513740702700,2.55170263671875,0.5524817109107971,-0.7415512204170227,1.1090738773345947
1761469513750657500,2.561657470703125,0.5123164653778076,-0.49408790469169617,1.080363154411316
1761469513760611800,2.57161181640625,0.4070408046245575,-0.2755317687988281,1.0750901699066162
1761469513770566700,2.581566650390625,0.24621249735355377,-0.13037721812725067,1.0837374925613403
1761469513780521700,2.591521728515625,0.07203669100999832,-0.05732874572277069,1.0982073545455933
1761469513790476500,2.6014765625,-0.10666221380233765,-0.08755988627672195,1.1019848585128784
1761469513800430800,2.611430908203125,-0.30260059237480164,0.025068169459700584,1.0493583679199219
1761469513810385700,2.6213857421875,-0.42785707116127014,0.4016239643096924,0.8748802542686462
1761469513820340700,2.6313408203125,-0.4093312919139862,0.9972488284111023,0.5462008714675903
1761469513830295600,2.641295654296875,-0.2559952735900879,1.7865508794784546,0.08100391179323196
1761469513840249900,2.651249755859375,-0.07713490724563599,2.5858726501464844,-0.40904685854911804
1761469513850204700,2.66120458984375,0.06763399392366409,3.306534767150879,-0.7953388690948486
1761469513860159700,2.67115966796875,0.06958355754613876,3.7846767902374268,-1.0611668825149536
1761469513870114600,2.681114501953125,0.01469447836279869,3.948897123336792,-1.2039612531661987
1761469513880068900,2.69106884765625,-0.04203954339027405,3.9131391048431396,-1.233044147491455
1761469513890023700,2.701023681640625,-0.05577559396624565,3.3799591064453125,-1.1284881830215454
1761469513899978800,2.710978759765625,0.034672029316425323,2.4863314628601074,-0.7844282388687134
1761469513909933600,2.72093359375,0.2193116396665573,1.5604748725891113,-0.24410218000411987
1761469513919888000,2.730887939453125,0.371143102645874,1.0905547142028809,0.20664608478546143
1761469513929842700,2.7408427734375,0.5617995858192444,0.8354247212409973,0.40755361318588257
1761469513939797800,2.7507978515625,0.7585317492485046,0.8094451427459717,0.47607362270355225
1761469513949752600,2.760752685546875,0.8534372448921204,0.5499216914176941,0.5608782768249512
1761469513959707000,2.770706787109375,0.8470292091369629,0.07740916311740875,0.44591695070266724
1761469513969661700,2.78066162109375,0.67538982629776,-0.42027199268341064,0.1414872705936432
1761469513979616800,2.79061669921875,0.6625258922576904,-0.4518015384674072,-0.1582963615655899
1761469513989571600,2.800571533203125,0.8934584259986877,-0.25934022665023804,-0.5343238115310669
1761469513999526000,2.81052587890625,1.2427003383636475,0.06323529779911041,-0.828092098236084
1761469514009480700,2.820480712890625,1.243635654449463,0.5624086260795593,-0.8769558072090149
1761469514019435500,2.830435546875,1.2851753234863281,0.9020591974258423,-0.5816606283187866
1761469514029390600,2.840390625,1.133457899093628,1.1228673458099365,-0.1589440107345581
1761469514039345000,2.850344970703125,1.1496448516845703,0.8954185247421265,0.3477574288845062
1761469514049299700,2.8602998046875,1.269644021987915,0.35146066546440125,0.747398316860199
1761469514059254500,2.870254638671875,1.4305481910705566,-0.3170556128025055,0.9723247289657593
1761469514069209600,2.880209716796875,1.6013550758361816,-0.944602906703949,1.141296625137329
1761469514079164000,2.890163818359375,1.677446961402893,-1.3968157768249512,1.2636067867279053
1761469514089118700,2.90011865234375,1.5825326442718506,-1.7803354263305664,1.2500983476638794
1761469514099073500,2.910073486328125,1.3766552209854126,-1.9776228666305542,1.0204981565475464
1761469514109028600,2.920028564453125,1.1198173761367798,-1.874319314956665,0.6690504550933838
1761469514118983000,2.92998291015625,0.8561527132987976,-1.5682117938995361,0.2737692594528198
1761469514128937700,2.939937744140625,0.6043340563774109,-0.9997269511222839,0.05876879766583443
1761469514138892500,2.949892578125,0.4304499924182892,-0.37034061551094055,0.057240333408117294
1761469514148847600,2.95984765625,0.32772547006607056,-0.05433711037039757,0.2054433971643448
1761469514158802000,2.969802001953125,0.24759075045585632,-0.026636067777872086,0.5210829377174377
1761469514168756700,2.9797568359375,0.2676323652267456,-0.1935957670211792,0.9968734383583069
1761469514178711600,2.989711669921875,0.2894379496574402,-0.498512864112854,1.476189136505127
1761469514188666600,2.99966650390625,0.23670046031475067,-0.8858901858329773,1.8138177394866943
1761469514198620700,3.00962060546875,0.11982540041208267,-1.2806980609893799,1.9661797285079956
1761469514208575700,3.01957568359375,0.01744815893471241,-1.5171841382980347,1.9310470819473267
1761469514218530600,3.029530517578125,-0.023440822958946228,-1.439098596572876,1.715523600578308
1761469514228485600,3.039485595703125,0.07124600559473038,-1.1717222929000854,1.335508108139038
1761469514238440000,3.04943994140625,0.2353963702917099,-0.7324841022491455,0.7812687158584595
1761469514248394200,3.059394287109375,0.4468524158000946,-0.29220473766326904,0.06990694999694824
1761469514258349000,3.06934912109375,0.6303483247756958,0.10676626116037369,-0.7396019697189331
1761469514268304100,3.07930419921875,0.7372071146965027,0.3234091103076935,-1.5243839025497437
1761469514278258200,3.089258056640625,0.7441225647926331,0.47351497411727905,-2.086043357849121
1761469514288213200,3.099213134765625,0.6024700999259949,0.737350583076477,-2.4556965827941895
1761469514298168000,3.10916796875,0.35299447178840637,1.1752294301986694,-2.6384685039520264
1761469514308123100,3.119123046875,0.12258071452379227,1.5493196249008179,-2.4242641925811768
1761469514318078000,3.129077880859375,-0.07322302460670471,2.108933210372925,-2.018508195877075
1761469514328032000,3.139031982421875,-0.16530741751194,2.437046527862549,-1.67904531955719
1761469514337987000,3.148987060546875,-0.1305798590183258,2.9274814128875732,-1.4015425443649292
1761469514347942100,3.158942138671875,0.011993261985480785,3.3609750270843506,-1.207133173942566
1761469514357897000,3.16889697265625,0.010081266984343529,3.5478079319000244,-1.023979663848877
1761469514367851000,3.17885107421875,-0.1408294290304184,3.421036720275879,-0.7927257418632507
1761469514377806000,3.18880615234375,-0.2881932258605957,2.9811666011810303,-0.42809298634529114
1761469514387761200,3.19876123046875,-0.3496171832084656,2.1148693561553955,-0.05893546715378761
1761469514397716000,3.208716064453125,-0.3972611725330353,0.9424706697463989,0.10818792879581451
1761469514407670000,3.218669921875,-0.3528372347354889,-0.17726311087608337,0.019961658865213394
1761469514417625000,3.228625,-0.1661284863948822,-1.1951401233673096,-0.40392014384269714
1761469514427580200,3.238580078125,0.011511804535984993,-1.7247015237808228,-0.9704099297523499
1761469514437535000,3.248534912109375,0.08573512732982635,-1.1413915157318115,-1.4617691040039062
1761469514447489000,3.258489013671875,-0.2145751565694809,0.7829182147979736,-1.506014108657837
1761469514457444000,3.268444091796875,-0.8652980923652649,2.8434691429138184,-1.2327280044555664
1761469514467399200,3.278399169921875,-1.468172311782837,4.062775611877441,-0.898470938205719
1761469514477354000,3.28835400390625,-1.7332600355148315,3.8878111839294434,-0.6601895093917847
1761469514487308000,3.29830810546875,-1.601438045501709,2.7416751384735107,-0.2448151856660843
1761469514497263000,3.30826318359375,-1.1024301052093506,1.1120877265930176,0.503217875957489
1761469514507218200,3.31821826171875,-0.3497036099433899,-0.2690792977809906,1.5614017248153687
1761469514517173000,3.328173095703125,0.27482321858406067,-1.1683270931243896,2.650808095932007
1761469514527127000,3.338126953125,0.7038509845733643,-1.7902157306671143,3.388773202896118
1761469514537082000,3.34808203125,0.9261437654495239,-2.200753688812256,3.733915090560913
1761469514547037200,3.358037109375,0.9947390556335449,-2.3458874225616455,3.8246266841888428
1761469514556992000,3.367991943359375,0.8299475312232971,-2.211435079574585,3.759917736053467
1761469514566946000,3.377946044921875,0.5883631706237793,-2.131117105484009,3.5075626373291016
1761469514576901000,3.387901123046875,0.26283711194992065,-1.9388104677200317,3.076338768005371
1761469514586856200,3.397856201171875,0.043354280292987823,-1.7907952070236206,2.6018364429473877
1761469514596811000,3.40781103515625,-0.02366471104323864,-1.80402672290802,2.198587417602539
1761469514606765000,3.41776513671875,0.005863618571311235,-2.1038331985473633,1.9610475301742554
1761469514616720100,3.42772021484375,0.06390739977359772,-2.8033227920532227,1.8984529972076416
1761469514626675200,3.43767529296875,0.06019787862896919,-3.7540924549102783,1.8487725257873535
1761469514636630000,3.447630126953125,0.049697231501340866,-4.403386116027832,1.7899137735366821
1761469514646584000,3.457583984375,-0.04701892286539078,-4.522527694702148,1.6478005647659302
1761469514656539100,3.4675390625,-0.2718818485736847,-3.956242561340332,1.3191015720367432
1761469514666494200,3.477494140625,-0.6116716861724854,-2.8640952110290527,0.8192176818847656
1761469514676449000,3.487448974609375,-0.9835935831069946,-1.5992025136947632,0.31579363346099854
1761469514686403000,3.497403076171875,-1.2940434217453003,-0.530542254447937,-0.02547767199575901
1761469514696358100,3.507358154296875,-1.4017196893692017,0.08490168303251266,-0.15199972689151764
1761469514706313200,3.517313232421875,-1.3689875602722168,0.23622114956378937,-0.1176803708076477
1761469514716268000,3.52726806640625,-1.2504005432128906,0.07485466450452805,-0.013081483542919159
1761469514726222000,3.53722216796875,-1.0618958473205566,-0.23117981851100922,0.12386571615934372
1761469514736177200,3.54717724609375,-0.849209725856781,-0.6396567821502686,0.18556077778339386
1761469514746132200,3.55713232421875,-0.6132017374038696,-1.0348573923110962,0.11736440658569336
1761469514756087000,3.567087158203125,-0.37566640973091125,-1.2038350105285645,-0.052377812564373016
1761469514766041000,3.577041015625,-0.172212615609169,-1.168092966079712,-0.3453153967857361
1761469514775996200,3.58699609375,-0.0716027244925499,-0.9580444097518921,-0.7632773518562317
1761469514785951200,3.596951171875,-0.03967461362481117,-0.6175954937934875,-1.2959469556808472
1761469514795906000,3.606906005859375,-0.043980859220027924,-0.15988172590732574,-1.8903658390045166
1761469514805860000,3.616860107421875,-0.04709036648273468,0.29553186893463135,-2.433675527572632
1761469514815815200,3.626815185546875,-0.07668425887823105,0.6732263565063477,-2.8064982891082764
1761469514825770200,3.636770263671875,-0.10252810269594193,0.9482331871986389,-2.989015817642212
1761469514835725000,3.64672509765625,-0.0877271518111229,1.1681959629058838,-2.937861919403076
1761469514845679000,3.65667919921875,-0.038871992379426956,1.2606233358383179,-2.660569190979004
1761469514855634200,3.66663427734375,0.026303043588995934,1.2267483472824097,-2.210344076156616
1761469514865589200,3.67658935546875,0.24788230657577515,1.2261013984680176,-1.64155912399292
1761469514875544000,3.6865439453125,0.47849854826927185,1.206195592880249,-1.288181185722351
1761469514885498000,3.696498046875,0.6621717214584351,0.9469512701034546,-1.1303130388259888
1761469514895453200,3.706453125,0.8061005473136902,0.5619519948959351,-1.053389310836792
1761469514905408300,3.716408203125,0.7801123261451721,0.1379549205303192,-1.0803744792938232
1761469514915363000,3.726363037109375,0.5306745171546936,-0.22058771550655365,-1.1846494674682617
1761469514925317000,3.736317138671875,0.45260557532310486,-0.4201567471027374,-1.2471355199813843
1761469514935272200,3.746272216796875,0.5097686648368835,-0.040337949991226196,-1.3905518054962158
1761469514945227300,3.756227294921875,0.5375603437423706,0.5430226922035217,-1.49871027469635
1761469514955182000,3.76618212890625,0.3554580807685852,0.8652161955833435,-1.3104994297027588
1761469514965136100,3.77613623046875,-0.04896637052297592,0.9890827536582947,-0.7077206373214722
1761469514975091200,3.78609130859375,-0.5055361390113831,1.0920743942260742,0.18456336855888367
1761469514985046300,3.79604638671875,-0.7993709444999695,1.088077187538147,0.9684736132621765
1761469514995001000,3.8060009765625,-0.9002335667610168,1.2752927541732788,1.5754598379135132
1761469515004955100,3.815955078125,-0.8063997030258179,1.7569200992584229,2.223813533782959
1761469515014910200,3.82591015625,-0.6483055353164673,2.0315515995025635,3.0785024166107178
1761469515024865000,3.835864990234375,-0.6257895827293396,1.9018970727920532,4.015547275543213
1761469515034820000,3.845820068359375,-0.2683311700820923,1.3384416103363037,5.055965900421143
1761469515044774100,3.855774169921875,0.046173758804798126,0.34780487418174744,5.610498905181885
1761469515054729200,3.865729248046875,0.3617933690547943,-0.7903366088867188,5.680335521697998
1761469515064684000,3.87568408203125,0.6329566240310669,-1.4287543296813965,5.423586845397949
1761469515074639000,3.88563916015625,0.8492581248283386,-1.6268552541732788,4.985025882720947
1761469515084593200,3.89559326171875,0.8736846446990967,-1.753180742263794,4.312511444091797
1761469515094548200,3.90554833984375,0.7169668674468994,-1.6923707723617554,3.4495177268981934
1761469515104503000,3.9155029296875,0.5984979867935181,-1.504642367362976,2.5474352836608887
1761469515114458000,3.9254580078125,0.5414037704467773,-1.3725130558013916,1.676635980606079
1761469515124412200,3.935412109375,0.36761969327926636,-1.2001605033874512,0.881848156452179
1761469515134367200,3.9453671875,0.17566752433776855,-0.923491895198822,0.26159462332725525
1761469515144322000,3.955322021484375,0.07543866336345673,-0.6523780822753906,-0.2087249606847763
1761469515154277000,3.965277099609375,0.07845796644687653,-0.4338536262512207,-0.5787661671638489
1761469515164231200,3.975231201171875,0.16062554717063904,-0.14460717141628265,-0.8077442646026611
1761469515174186200,3.985186279296875,0.2887222468852997,0.20322562754154205,-0.8787867426872253
1761469515184763100,3.99576318359375,0.3841530978679657,0.5979608297348022,-0.8329075574874878
1761469515194718200,4.00571826171875,0.4136236310005188,1.0801743268966675,-0.7517474889755249
1761469515204672000,4.015672119140625,0.39131903648376465,1.571955919265747,-0.7017523646354675
1761469515214627000,4.025626953125,0.2974820137023926,1.9087778329849243,-0.7263054251670837
1761469515224582100,4.03558203125,0.17878824472427368,2.050398588180542,-0.8152183294296265
1761469515234538200,4.045538330078125,0.05326226353645325,2.090942144393921,-0.9470818042755127
1761469515244492500,4.055492431640625,-0.07648550719022751,1.9840810298919678,-1.0884368419647217
1761469515254447400,4.065447265625,-0.2042517215013504,1.6218159198760986,-1.2437052726745605
1761469515264402400,4.07540234375,-0.22309944033622742,1.2284327745437622,-1.4006469249725342
1761469515274357200,4.085357177734375,-0.19371864199638367,0.929266631603241,-1.6253564357757568
1761469515284311600,4.0953115234375,-0.17673878371715546,0.7520983219146729,-1.8864760398864746
1761469515294266400,4.105266357421875,-0.1744908094406128,0.6407843232154846,-2.1683456897735596
1761469515304221400,4.115221435546875,-0.21655726432800293,0.6663421988487244,-2.4586141109466553
1761469515314176300,4.12517626953125,-0.26283344626426697,0.6394602060317993,-2.691441535949707
1761469515324130600,4.135130615234375,-0.20747315883636475,0.6689200401306152,-2.8410751819610596
1761469515334085400,4.14508544921875,-0.05018766596913338,0.8252329230308533,-2.955585479736328
1761469515344040400,4.15504052734375,0.15051239728927612,1.1213124990463257,-2.9392049312591553
1761469515353995300,4.164995361328125,0.3372178375720978,1.5215184688568115,-2.8746252059936523
1761469515363949600,4.174949462890625,0.48272886872291565,1.8349359035491943,-2.8029675483703613
1761469515373904400,4.184904296875,0.47244080901145935,1.9434540271759033,-2.6665947437286377
1761469515383859500,4.194859375,0.2878148853778839,1.8606616258621216,-2.4530527591705322
1761469515393814300,4.204814208984375,0.030020887032151222,1.6333805322647095,-2.224522829055786
1761469515403768600,4.2147685546875,-0.24576345086097717,1.3311655521392822,-2.038301467895508
1761469515413723400,4.224723388671875,-0.5374611020088196,1.0050894021987915,-1.9497991800308228
1761469515423678500,4.234678466796875,-0.7625488042831421,0.6404903531074524,-1.946315050125122
1761469515433633300,4.24463330078125,-0.7693390846252441,0.4618833363056183,-1.9931193590164185
1761469515443587600,4.254587646484375,-0.3799455761909485,0.5638708472251892,-2.0556278228759766
1761469515453542400,4.26454248046875,0.2954573631286621,0.9878077507019043,-2.0302698612213135
1761469515463497500,4.27449755859375,0.8621569275856018,1.3429670333862305,-1.8017445802688599
1761469515473452300,4.284452392578125,1.023788332939148,1.5516648292541504,-1.2786526679992676
1761469515483406600,4.294406494140625,0.8327353596687317,1.1761009693145752,-0.7603557705879211
1761469515493361400,4.304361328125,0.5261597037315369,-0.018985150381922722,-0.6384844779968262
1761469515503316500,4.31431640625,0.4564625024795532,-1.586320400238037,-1.0318975448608398
1761469515513271300,4.324271240234375,0.9742283821105957,-2.3678295612335205,-1.468544602394104
1761469515523848400,4.334848388671875,1.5313043594360352,-1.4826232194900513,-1.3026666641235352
1761469515533803500,4.344803466796875,1.5065419673919678,0.055943794548511505,-0.4465469419956207
1761469515543758300,4.35475830078125,0.9875942468643188,1.0065557956695557,0.899944007396698
1761469515553712400,4.36471240234375,0.4051460325717926,0.7289671301841736,2.0968236923217773
1761469515563667500,4.37466748046875,0.1431054174900055,-0.2516239285469055,2.7842674255371094
1761469515573622500,4.38462255859375,0.25995934009552,-1.254293441772461,3.04976749420166
1761469515583577300,4.394577392578125,0.4841809570789337,-2.057891607284546,3.0715835094451904
1761469515593531400,4.404531494140625,0.550237238407135,-2.6764943599700928,2.9128122329711914
1761469515603486500,4.414486572265625,0.4094145894050598,-3.169551372528076,2.6419789791107178
1761469515613441500,4.424441650390625,0.1847470998764038,-3.293954849243164,2.3316335678100586
1761469515623396400,4.434396240234375,-0.09759421646595001,-2.994940996170044,2.027665138244629
1761469515633350400,4.444350341796875,-0.39667972922325134,-2.5697193145751953,1.746370792388916
1761469515643305500,4.454305419921875,-0.6061572432518005,-2.319216728210449,1.4910731315612793
1761469515653260500,4.464260498046875,-0.7453726530075073,-2.1802303791046143,1.194100022315979
1761469515663215400,4.47421533203125,-0.7598425149917603,-2.0270419120788574,0.8824679851531982
1761469515673169400,4.48416943359375,-0.7332838773727417,-1.9434748888015747,0.6510411500930786
1761469515683124500,4.49412451171875,-0.7479059100151062,-1.7112964391708374,0.514034628868103
1761469515693079600,4.50407958984375,-0.8438121676445007,-1.2715957164764404,0.44414135813713074
1761469515703034400,4.514034423828125,-1.0074918270111084,-0.6902486681938171,0.4854523539543152
1761469515712988400,4.523988525390625,-1.1974724531173706,-0.010375892743468285,0.7444633841514587
1761469515722943500,4.533943603515625,-1.291192889213562,0.49827998876571655,1.1502735614776611
1761469515732898600,4.543898681640625,-1.285135269165039,0.7563744187355042,1.548147439956665
1761469515742853400,4.553853271484375,-1.0344858169555664,0.8142794370651245,1.8652207851409912
1761469515752807400,4.563807373046875,-0.7265415191650391,0.6494659781455994,1.9539868831634521
1761469515762762200,4.57376220703125,-0.4160608947277069,0.47303396463394165,1.868449091911316
1761469515772717600,4.583717529296875,-0.14840440452098846,0.4277855157852173,1.626519799232483
1761469515782672400,4.59367236328125,0.07146765291690826,0.4763311743736267,1.273148536682129
1761469515792626400,4.60362646484375,0.23892216384410858,0.49937552213668823,0.8467252254486084
1761469515802581200,4.613581298828125,0.3376917541027069,0.4678482413291931,0.3857206404209137
1761469515812536600,4.62353662109375,0.3749648332595825,0.41940855979919434,-0.07656841725111008
1761469515822491400,4.633491455078125,0.3982767164707184,0.3312132656574249,-0.4839339554309845
1761469515832445400,4.643445556640625,0.39647695422172546,0.2687504291534424,-0.7843260765075684
1761469515842400300,4.653400146484375,0.37049466371536255,0.33879315853118896,-0.9434149265289307
1761469515852355600,4.66335546875,0.3882896602153778,0.44962355494499207,-0.9766397476196289
1761469515862310400,4.673310302734375,0.4253469705581665,0.5237569808959961,-0.9217151999473572
1761469515872264400,4.683264404296875,0.46620306372642517,0.5632076859474182,-0.8276952505111694
1761469515882219300,4.69321923828125,0.5386538505554199,0.5213574767112732,-0.719740629196167
1761469515892174600,4.703174560546875,0.5712847709655762,0.383998841047287,-0.6162152886390686
1761469515902129400,4.71312939453125,0.564909815788269,0.20993545651435852,-0.5541496872901917
1761469515912084200,4.723084228515625,0.5143603682518005,0.10754730552434921,-0.5305066704750061
1761469515922038300,4.733038330078125,0.36882901191711426,0.06322111934423447,-0.5311905741691589
1761469515931993600,4.74299365234375,0.15624113380908966,0.10720349103212357,-0.5931887030601501
1761469515941948400,4.752948486328125,-0.026692332699894905,0.31801047921180725,-0.727034866809845
1761469515951903200,4.7629033203125,-0.10663963109254837,0.595257043838501,-0.9181603789329529
1761469515961857300,4.772857177734375,-0.09161509573459625,0.7721500992774963,-1.0905065536499023
1761469515971812600,4.7828125,-0.00874471664428711,0.8192307949066162,-1.0753477811813354
1761469515981767400,4.792767333984375,0.045764192938804626,0.7095568180084229,-0.7583216428756714
1761469515991722200,4.80272216796875,0.012336992658674717,0.6045651435852051,-0.09470130503177643
1761469516001676300,4.81267626953125,-0.09519549459218979,0.28130465745925903,0.5881965160369873
1761469516011631600,4.822631591796875,-0.21484892070293427,-0.6423298716545105,0.7112433314323425
1761469516021586400,4.83258642578125,-0.2776488661766052,-1.9836584329605103,0.00840707402676344
1761469516031541200,4.842541259765625,-0.17296238243579865,-2.8988747596740723,-1.157006859779358
1761469516041495300,4.852495361328125,0.06657130271196365,-2.4932332038879395,-2.147296190261841
1761469516051450400,4.862450439453125,0.17111928761005402,-0.9734252691268921,-2.6102001667022705
1761469516061405400,4.872405517578125,0.023123662918806076,0.48834511637687683,-2.5695338249206543
1761469516071360300,4.8823603515625,-0.23012617230415344,1.1539644002914429,-1.9971411228179932
1761469516081314300,4.892314208984375,-0.6555972099304199,1.3960620164871216,-0.8059582710266113
1761469516091269400,4.902269287109375,-0.9566454291343689,1.4442700147628784,0.5429439544677734
1761469516101224400,4.912224365234375,-0.8273945450782776,1.3237560987472534,1.5167431831359863
1761469516111179300,4.92217919921875,-0.2858378291130066,1.140961766242981,2.034818172454834
1761469516121133300,4.93213330078125,0.41051986813545227,0.730647623538971,2.2351200580596924
1761469516131088400,4.94208837890625,0.967754602432251,0.25226104259490967,2.325774669647217
1761469516141043500,4.95204345703125,1.1485704183578491,0.015017430298030376,2.4597232341766357
1761469516150998300,4.961998291015625,0.9893229603767395,-0.10730555653572083,2.591174840927124
1761469516160952300,4.971952392578125,0.6327470541000366,-0.33614474534988403,2.5056276321411133
1761469516170907400,4.981907470703125,0.26443132758140564,-0.33499398827552795,2.1076161861419678
1761469516180862500,4.991862548828125,-0.016847986727952957,-0.06841683387756348,1.5051285028457642
1761469516190817300,5.0018173828125,-0.3162999451160431,0.31626957654953003,0.9405521154403687
1761469516200771300,5.011771240234375,-0.6852568984031677,0.573290228843689,0.6250491142272949
1761469516210726400,5.021726318359375,-0.9909592866897583,0.5018115043640137,0.580143928527832
1761469516220681500,5.031681396484375,-1.1349480152130127,0.1866576373577118,0.6645561456680298
1761469516230635300,5.04163525390625,-1.126485824584961,-0.1331416666507721,0.8193869590759277
1761469516240589000,5.051589111328125,-0.980826199054718,-0.4108033776283264,0.983601987361908
1761469516250544000,5.061544189453125,-0.7733883261680603,-0.6136578917503357,1.1065044403076172
1761469516260499200,5.071499267578125,-0.5532242059707642,-0.6355662941932678,1.1079864501953125
1761469516270454300,5.081454345703125,-0.43126416206359863,-0.46627312898635864,0.9970897436141968
1761469516280408000,5.091407958984375,-0.4441426396369934,-0.13802377879619598,0.8233561515808105
1761469516290363100,5.101363037109375,-0.48798999190330505,0.2986137270927429,0.62427818775177
1761469516300318200,5.111318115234375,-0.4954386055469513,0.7374952435493469,0.39600127935409546
1761469516310273300,5.121273193359375,-0.4785030484199524,1.0482726097106934,0.183241605758667
1761469516320227000,5.13122705078125,-0.4143802523612976,1.0131040811538696,-0.014448300004005432
1761469516330182100,5.14118212890625,-0.29609331488609314,0.6345276236534119,-0.21035203337669373
1761469516340137200,5.15113720703125,-0.15400610864162445,-0.007546135690063238,-0.4163303077220917
1761469516350092300,5.16109228515625,0.044975701719522476,-0.7116145491600037,-0.6581448316574097
1761469516360046000,5.171046142578125,0.3017958998680115,-1.1902967691421509,-0.9131270051002502
1761469516370001200,5.181001220703125,0.5237602591514587,-1.4108978509902954,-1.1357258558273315
1761469516379956200,5.190956298828125,0.6163203120231628,-1.3741055727005005,-1.3319554328918457
1761469516389911300,5.200911376953125,0.5443851351737976,-1.0956974029541016,-1.518449068069458
1761469516399865000,5.210864990234375,0.3905037045478821,-0.6930569410324097,-1.7163350582122803
1761469516409820200,5.220820068359375,0.23035240173339844,-0.2707824110984802,-1.8722237348556519
1761469516419775200,5.230775146484375,0.15179550647735596,0.0763988122344017,-1.9433025121688843
1761469516429730300,5.240730224609375,0.17960156500339508,0.2971138656139374,-1.9166849851608276
1761469516439685000,5.25068505859375,0.29008159041404724,0.3393648862838745,-1.7863759994506836
1761469516449639200,5.26063916015625,0.4440341293811798,0.13512495160102844,-1.5864980220794678
1761469516459594200,5.27059423828125,0.6114186644554138,-0.20182041823863983,-1.3535239696502686
1761469516469549000,5.280549072265625,0.75082927942276,-0.5136778950691223,-1.126200795173645
1761469516479504100,5.290504150390625,0.8068034052848816,-0.7374005317687988,-0.9413937926292419
1761469516489458200,5.300458251953125,0.7118902206420898,-0.7918546795845032,-0.7999833822250366
1761469516499413200,5.310413330078125,0.5304064750671387,-0.46965456008911133,-0.7269791960716248
1761469516509368000,5.3203681640625,0.3359556794166565,0.24519020318984985,-0.731070876121521
1761469516519323100,5.3303232421875,0.20604661107063293,1.0534249544143677,-0.8079250454902649
1761469516529277200,5.340277099609375,0.17692920565605164,1.6041523218154907,-0.7962476015090942
1761469516539232000,5.35023193359375,0.27106592059135437,1.5947396755218506,-0.5534602999687195
1761469516549187000,5.36018701171875,0.39554286003112793,1.015444278717041,-0.06687518954277039
1761469516559142100,5.37014208984375,0.45681628584861755,-0.14795006811618805,0.3815232515335083
1761469516569096200,5.38009619140625,0.5971185564994812,-1.6669549942016602,0.2954496145248413
1761469516579051000,5.390051025390625,0.9231173396110535,-2.783665418624878,-0.3855062425136566
1761469516589006000,5.400006103515625,1.27248215675354,-2.684938430786133,-1.2503269910812378
1761469516598961200,5.409961181640625,1.331534743309021,-1.0251153707504272,-1.7372097969055176
1761469516608915200,5.419915283203125,0.7461293935775757,1.1557687520980835,-1.677108883857727
1761469516618870000,5.4298701171875,-0.06828388571739197,2.346654176712036,-1.395546793937683
1761469516628825000,5.4398251953125,-0.6179084181785583,2.6508047580718994,-1.3212019205093384
1761469516638780200,5.4497802734375,-0.8363689184188843,2.4526193141937256,-1.3624602556228638
1761469516648734200,5.459734130859375,-0.7158685922622681,1.7156389951705933,-1.1867973804473877
1761469516658689000,5.46968896484375,-0.23785553872585297,0.7482813000679016,-0.6376087665557861
1761469516668644000,5.47964404296875,0.33564314246177673,-0.3632987141609192,0.1329270750284195
1761469516678599200,5.48959912109375,0.6738139986991882,-1.3557661771774292,0.8957882523536682
1761469516688553200,5.49955322265625,0.7023506164550781,-1.8398481607437134,1.5090711116790771
1761469516698508000,5.509508056640625,0.568221390247345,-1.8649100065231323,1.8894907236099243
1761469516708463000,5.519463134765625,0.38167518377304077,-1.598585605621338,1.9370534420013428
1761469516718418200,5.529418212890625,0.1946958750486374,-1.1281239986419678,1.6494518518447876
1761469516728372200,5.539372314453125,0.03128724545240402,-0.5540032386779785,1.1462206840515137
1761469516738327000,5.5493271484375,-0.14051058888435364,-0.018052902072668076,0.6122646927833557
1761469516748282000,5.5592822265625,-0.31286904215812683,0.32069772481918335,0.26877444982528687
1761469516758237200,5.5692373046875,-0.4831932783126831,0.3247687816619873,0.16927887499332428
1761469516768191000,5.57919091796875,-0.6199029088020325,0.09109745919704437,0.16584153473377228
1761469516778146000,5.58914599609375,-0.6636021137237549,-0.2896995544433594,0.10890050232410431
1761469516788101000,5.59910107421875,-0.6336023807525635,-0.425230473279953,0.02327614836394787
1761469516798056200,5.60905615234375,-0.5554889440536499,-0.19952833652496338,-0.005982757080346346
1761469516808010000,5.619010009765625,-0.4409530758857727,0.24290847778320312,0.11904413253068924
1761469516817965000,5.628965087890625,-0.38238218426704407,0.6516668200492859,0.3748253285884857
1761469516827920100,5.638920166015625,-0.40612345933914185,0.9138707518577576,0.6480331420898438
1761469516837875200,5.648875244140625,-0.4161672592163086,1.0642470121383667,0.9061350226402283
1761469516847829000,5.6588291015625,-0.3627045750617981,1.0810987949371338,1.1280906200408936
1761469516857784000,5.6687841796875,-0.28794506192207336,0.9261245727539062,1.2771846055984497
1761469516867739100,5.6787392578125,-0.17369677126407623,0.709468424320221,1.3030903339385986
1761469516877694200,5.688694091796875,-0.027104254812002182,0.4941997230052948,1.2192481756210327
1761469516887648000,5.69864794921875,0.11681536585092545,0.26048600673675537,1.0622034072875977
1761469516897603000,5.70860302734375,0.2080649882555008,0.027075381949543953,0.8553879261016846
1761469516907558100,5.71855810546875,0.22588925063610077,-0.18320675194263458,0.6049423813819885
1761469516917513200,5.72851318359375,0.18164120614528656,-0.3613155782222748,0.29297879338264465
1761469516927467000,5.738467041015625,0.06144581735134125,-0.4405643343925476,-0.06524299830198288
1761469516937422000,5.748422119140625,-0.07903226464986801,-0.3372337520122528,-0.47209158539772034
1761469516947377200,5.758377197265625,-0.17168177664279938,-0.1472635567188263,-0.8744078874588013
1761469516957332200,5.768332275390625,-0.24838140606880188,0.06170418858528137,-1.1536979675292969
1761469516967286000,5.7782861328125,-0.30424654483795166,0.2726196348667145,-1.2437490224838257
1761469516977241000,5.788240966796875,-0.32949337363243103,0.40710729360580444,-1.1447325944900513
1761469516987196200,5.798196044921875,-0.2967524826526642,0.4182131886482239,-0.8888770937919617
1761469516997150200,5.808150146484375,-0.20030741393566132,0.29711732268333435,-0.5404133796691895
1761469517007105000,5.81810498046875,-0.12970462441444397,0.09699410200119019,-0.19652284681797028
1761469517017060000,5.82806005859375,-0.14392554759979248,-0.06850121170282364,0.09238691627979279
1761469517027015200,5.83801513671875,-0.22305764257907867,-0.10041972994804382,0.30445733666419983
1761469517036970200,5.84797021484375,-0.2730681002140045,0.040845245122909546,0.4054872393608093
1761469517046924000,5.857924072265625,-0.24129873514175415,0.24872387945652008,0.3954268991947174
1761469517056879000,5.867879150390625,-0.15243268013000488,0.455809086561203,0.41650837659835815
1761469517066834200,5.877834228515625,-0.05108875408768654,0.5579046010971069,0.581428587436676
1761469517076788200,5.887788330078125,-0.022429440170526505,0.5533616542816162,0.8693074584007263
1761469517086743000,5.897742919921875,-0.12883897125720978,0.5177160501480103,1.1299422979354858
1761469517096698000,5.907697998046875,-0.3359275758266449,0.5540101528167725,1.349031686782837
1761469517106653200,5.917653076171875,-0.5186483860015869,0.3335616886615753,1.490318775177002
1761469517116607200,5.927607177734375,-0.5318505764007568,-0.4591006934642792,1.3175327777862549
1761469517126562000,5.93756201171875,-0.33640700578689575,-1.3954370021820068,0.7225040197372437
1761469517136517000,5.94751708984375,-0.03181266784667969,-1.7027963399887085,-0.1974131166934967
1761469517146472200,5.95747216796875,0.05303564667701721,-0.9689332842826843,-0.9978722929954529
1761469517156426200,5.96742626953125,-0.2696230113506317,0.33564770221710205,-1.3040320873260498
1761469517166381000,5.977381103515625,-0.5648261308670044,0.8996778130531311,-1.225210428237915
1761469517176336100,5.987336181640625,-0.506761372089386,0.593873918056488,-1.0052756071090698
1761469517186291200,5.997291259765625,-0.35205379128456116,-0.022226301953196526,-0.595949649810791
1761469517196245200,6.007245361328125,-0.16025996208190918,-0.5489323735237122,-0.1809467077255249
1761469517206200000,6.017199951171875,0.07618586719036102,-0.8184674382209778,-0.1297098994255066
1761469517216155100,6.027155029296875,0.31697601079940796,-0.7833245396614075,-0.6490323543548584
1761469517226110200,6.037110107421875,0.5787661075592041,-0.4902234375476837,-1.5276645421981812
1761469517236064300,6.047064208984375,0.8743364810943604,0.0031747790053486824,-2.246807336807251
1761469517246019300,6.057019287109375,1.091448426246643,0.6502430438995361,-2.427490472793579
1761469517255974400,6.066974365234375,1.1532953977584839,1.1007310152053833,-1.9740684032440186
1761469517265929200,6.07692919921875,1.125563383102417,0.9502319693565369,-1.1349961757659912
1761469517275883300,6.08688330078125,1.0763224363327026,0.5547344088554382,-0.295913964509964
1761469517285838300,6.09683837890625,1.0888744592666626,0.35869380831718445,0.34203270077705383
1761469517295793400,6.10679345703125,1.1437466144561768,0.37376728653907776,0.8235523104667664
1761469517305748200,6.116748291015625,1.0654925107955933,0.47770246863365173,1.243135929107666
1761469517315702300,6.126702392578125,0.7798004746437073,0.5655423402786255,1.6094969511032104
1761469517325657300,6.1366572265625,0.3691668212413788,0.7734135389328003,1.8493033647537231
1761469517335612400,6.1466123046875,-0.07041141390800476,1.0840821266174316,1.9354684352874756
1761469517345567200,6.156567138671875,-0.447079062461853,1.3291059732437134,1.8909225463867188
1761469517355521300,6.166521240234375,-0.7244288921356201,1.4025770425796509,1.7514158487319946
1761469517365476400,6.176476318359375,-0.8522981405258179,1.4533467292785645,1.617407202720642
1761469517375431400,6.186431396484375,-0.8203458189964294,1.4351751804351807,1.525215744972229
1761469517385386200,6.19638623046875,-0.7079881429672241,1.193741798400879,1.4111144542694092
1761469517395340300,6.20634033203125,-0.5937488079071045,0.6070690155029297,1.2708500623703003
1761469517405295400,6.21629541015625,-0.4446106553077698,-0.17823785543441772,1.0876917839050293
1761469517415250200,6.226250244140625,-0.2846951186656952,-0.7368142008781433,0.9060972929000854
1761469517425205200,6.236205322265625,-0.11967100948095322,-0.9845121502876282,0.7125834822654724
1761469517435159300,6.2461591796875,0.040383078157901764,-0.9284951686859131,0.4793408215045929
1761469517445114400,6.2561142578125,0.21372397243976593,-0.7486165165901184,0.25185972452163696
1761469517455069200,6.266069091796875,0.42629122734069824,-0.5526382327079773,0.0943865180015564
1761469517465024300,6.276024169921875,0.638947069644928,-0.45933976769447327,0.03301103785634041
1761469517474978300,6.285978271484375,0.8017944097518921,-0.5209603905677795,0.05707862973213196
1761469517484933400,6.295933349609375,0.9308448433876038,-0.6233445405960083,0.061992425471544266
1761469517494888200,6.30588818359375,0.9917855262756348,-0.6601412892341614,0.0015221169451251626
1761469517504843300,6.31584326171875,0.9725841283798218,-0.6349821090698242,-0.12758445739746094
1761469517514797300,6.32579736328125,0.8844738006591797,-0.5071461796760559,-0.34005534648895264
1761469517524752400,6.33575244140625,0.7603039145469666,-0.22445853054523468,-0.6308733224868774
1761469517534707200,6.345707275390625,0.6350870132446289,0.1012875959277153,-0.9749347567558289
1761469517544662300,6.355662353515625,0.4969547390937805,0.3459460735321045,-1.2606736421585083
1761469517554616300,6.3656162109375,0.36157259345054626,0.6253491044044495,-1.4201010465621948
1761469517564571100,6.375571044921875,0.23784029483795166,0.9289563894271851,-1.4339572191238403
1761469517574526200,6.385526123046875,0.12448110431432724,1.172974944114685,-1.3186334371566772
1761469517584481300,6.395481201171875,-0.003690711222589016,1.308045744895935,-1.0706329345703125
1761469517594435300,6.405435302734375,-0.0841262936592102,1.3453807830810547,-0.7047404050827026
1761469517604390100,6.41539013671875,0.010820196010172367,1.2548471689224243,-0.20702409744262695
1761469517614345200,6.42534521484375,0.18234890699386597,1.0549124479293823,0.30665963888168335
1761469517624300300,6.43530029296875,0.274466872215271,0.8263972997665405,0.753944456577301
1761469517634254300,6.44525439453125,0.21584858000278473,0.585059404373169,1.054099440574646
1761469517644209200,6.455209228515625,-0.0054070972837507725,0.15604014694690704,1.0213563442230225
1761469517654164200,6.465164306640625,-0.25747790932655334,-0.44326797127723694,0.5014874339103699
1761469517664119300,6.475119384765625,-0.36052998900413513,-0.7652609348297119,-0.32469063997268677
1761469517674073300,6.4850732421875,-0.29983100295066833,-0.3905969560146332,-1.1605260372161865
1761469517684028200,6.495028076171875,-0.31809496879577637,0.6319008469581604,-1.6449416875839233
1761469517693983200,6.504983154296875,-0.6092473268508911,1.8784079551696777,-1.4102040529251099
1761469517703937300,6.514937255859375,-1.1427136659622192,2.3887741565704346,-0.8780090808868408
1761469517713892000,6.52489208984375,-1.552160382270813,2.049034833908081,-0.46962904930114746
1761469517723847200,6.53484716796875,-1.3607946634292603,1.3318554162979126,-0.21625137329101562
1761469517733802200,6.54480224609375,-0.70548415184021,0.6167078614234924,-0.07391779869794846
1761469517743756300,6.55475634765625,-0.07201827317476273,-0.11513357609510422,-0.0063608549535274506
1761469517753711000,6.564711181640625,0.3556159436702728,-0.7550928592681885,0.09240208566188812
1761469517763666200,6.574666259765625,0.6458027958869934,-1.0941717624664307,0.27456656098365784
1761469517773621200,6.584621337890625,0.6872422099113464,-1.0274598598480225,0.293847918510437
1761469517783575300,6.5945751953125,0.6108198761940002,-0.543027400970459,0.016871172934770584
1761469517793530000,6.604530029296875,0.6031907796859741,0.20231187343597412,-0.4326295554637909
1761469517803485200,6.614485107421875,0.5675827264785767,0.8245168328285217,-0.9102464914321899
1761469517813440300,6.624440185546875,0.36668699979782104,1.08352530002594,-1.241793155670166
1761469517823394300,6.634394287109375,-0.13975167274475098,1.0611510276794434,-1.4023988246917725
1761469517833349000,6.64434912109375,-0.39069950580596924,1.0393297672271729,-1.3298180103302002
1761469517843304200,6.65430419921875,-0.5702921748161316,0.9588517546653748,-1.1592965126037598
1761469517853259300,6.66425927734375,-0.9182557463645935,0.6306810975074768,-1.0913290977478027
1761469517863213300,6.67421337890625,-1.0746053457260132,0.11760290712118149,-1.0081417560577393
1761469517873168100,6.684168212890625,-0.8668004870414734,-0.1896381974220276,-0.9803340435028076
1761469517883123200,6.694123291015625,-0.4833252727985382,0.006310800090432167,-0.9544587731361389
1761469517893078300,6.704078369140625,-0.14899824559688568,0.3979976177215576,-0.9047616720199585
1761469517903032300,6.7140322265625,0.04089180380105972,0.8283932209014893,-0.7336346507072449
1761469517912987100,6.723987060546875,0.16001376509666443,1.155077338218689,-0.3796023428440094
1761469517922942200,6.733942138671875,0.25349101424217224,1.3822975158691406,0.08820214867591858
1761469517932897300,6.743897216796875,0.3580729067325592,1.4193761348724365,0.5973740220069885
1761469517942851300,6.753851318359375,0.43751075863838196,1.197758436203003,1.0908985137939453
1761469517952806100,6.76380615234375,0.4447799324989319,0.80385422706604,1.5132465362548828
1761469517962761200,6.77376123046875,0.3793812096118927,0.3600141704082489,1.795065999031067
1761469517972716300,6.78371630859375,0.2654290497303009,-0.0023296286817640066,1.9052375555038452
1761469517982670300,6.79367041015625,0.1332758069038391,-0.24612152576446533,1.8814523220062256
1761469517992625200,6.803625244140625,0.030674593523144722,-0.35108718276023865,1.7449822425842285
1761469518002580200,6.813580322265625,-0.024979881942272186,-0.33409246802330017,1.479276180267334
1761469518012535300,6.823535400390625,-0.034082092344760895,-0.2387668788433075,1.0346320867538452
1761469518022489300,6.8334892578125,-0.04812174290418625,-0.05955425277352333,0.45411670207977295
1761469518032444200,6.843444091796875,-0.1055932566523552,0.11990322917699814,-0.13856226205825806
1761469518042399200,6.853399169921875,-0.1673375815153122,0.3087303936481476,-0.6569747924804688
1761469518052354300,6.863354248046875,-0.24472026526927948,0.49211910367012024,-1.04709792137146
1761469518062308400,6.873308349609375,-0.3099221885204315,0.6945342421531677,-1.2233988046646118
1761469518072263200,6.88326318359375,-0.5018870234489441,0.8870396018028259,-1.2494503259658813
1761469518082218200,6.89321826171875,-0.5316776633262634,1.00649094581604,-1.0937342643737793
1761469518092172000,6.903172119140625,-0.46422049403190613,0.9786316752433777,-0.6812920570373535
1761469518102127400,6.91312744140625,-0.3960227966308594,0.7653356194496155,-0.1887744814157486
1761469518112082200,6.923082275390625,-0.2636987864971161,0.45976364612579346,0.3024277985095978
1761469518122037200,6.933037353515625,-0.10486041754484177,0.07844185829162598,0.6961361765861511
1761469518131991000,6.942990966796875,0.06122222915291786,-0.1965305656194687,0.9220573306083679
1761469518141946400,6.9529462890625,0.22698615491390228,-0.27558088302612305,0.9644711017608643
1761469518151901200,6.962901123046875,0.2848808169364929,-0.2694622278213501,0.8355758786201477
1761469518161856300,6.972856201171875,0.13335123658180237,-0.2695844769477844,0.5838653445243835
1761469518171810000,6.98281005859375,-0.08977118879556656,-0.14229147136211395,0.3557182252407074
1761469518181765400,6.992765380859375,0.005638957489281893,0.18314281105995178,0.28175345063209534
1761469518191720200,7.00272021484375,0.39759665727615356,0.5380498766899109,0.41979745030403137
1761469518201675300,7.01267529296875,0.737609326839447,0.696368396282196,0.7330214381217957
1761469518211629000,7.022629150390625,0.8510342240333557,0.2641414403915405,0.9177557229995728
1761469518221584400,7.03258447265625,0.6807942986488342,-0.5439553260803223,0.7415404319763184
1761469518231539200,7.042539306640625,0.18700562417507172,-1.2068982124328613,0.3133104741573334
1761469518241494300,7.052494384765625,-0.33472466468811035,-1.6554434299468994,-0.18796755373477936
1761469518251448000,7.062447998046875,-0.42008495330810547,-1.350940227508545,-0.372792512178421
1761469518261403100,7.072403076171875,-0.1298866868019104,-0.518473207950592,-0.05814613401889801
1761469518271358200,7.082358154296875,0.12315807491540909,-0.18489257991313934,0.4512409269809723
1761469518281313300,7.092313232421875,0.07204242795705795,-0.22081249952316284,0.7895845770835876
1761469518291267000,7.10226708984375,-0.12188893556594849,0.3728165030479431,0.9995146989822388
1761469518301222100,7.11222216796875,-0.3553205728530884,-0.07734560966491699,0.26934388279914856
1761469518311177200,7.12217724609375,-0.4783436954021454,-0.4897330701351166,-0.677706778049469
1761469518321132300,7.13213232421875,-0.4786917567253113,0.019823657348752022,-1.1934773921966553
1761469518331086000,7.142086181640625,-0.2641914188861847,-0.3301955461502075,-1.6510769128799438
1761469518341041200,7.152041259765625,0.009045980870723724,-1.1180014610290527,-2.0020978450775146
1761469518350996000,7.161995849609375,0.10674729943275452,-1.8116650581359863,-1.9679473638534546
1761469518360950300,7.1719501953125,0.05609503760933876,-2.8800952434539795,-1.8536220788955688
1761469518370905000,7.181905029296875,-0.03115721233189106,-3.820361375808716,-1.6448817253112793
1761469518380860200,7.191860107421875,-0.19792889058589935,-3.720763683319092,-1.2836031913757324
1761469518390815000,7.20181494140625,-0.37871453166007996,-2.8376004695892334,-0.7209199070930481
1761469518400769300,7.211769287109375,-0.39547380805015564,-1.7872068881988525,-0.133492112159729
1761469518410724000,7.22172412109375,-0.22342270612716675,-0.18545860052108765,0.2248140424489975
1761469518420679200,7.23167919921875,-0.14717639982700348,1.7040659189224243,0.27649906277656555
1761469518430634000,7.241634033203125,-0.2659072279930115,3.1136529445648193,0.11153052747249603
1761469518440588300,7.25158837890625,-0.6071119904518127,3.4500133991241455,-0.04000945761799812
1761469518450543000,7.261543212890625,-1.2033360004425049,2.960167407989502,0.020553022623062134
1761469518460498200,7.271498291015625,-1.796363115310669,1.547776460647583,0.23435133695602417
1761469518470453000,7.281452880859375,-1.9318495988845825,0.003865624312311411,0.5234437584877014
1761469518480407300,7.2914072265625,-1.5969674587249756,-1.1389678716659546,0.7527792453765869
1761469518490362000,7.301362060546875,-1.036230444908142,-1.0917880535125732,1.0089855194091797
1761469518500317200,7.311317138671875,-0.5645864009857178,-0.014124242588877678,1.3826086521148682
1761469518510272000,7.32127197265625,-0.45339706540107727,0.9699512124061584,1.4716897010803223
1761469518520226300,7.331226318359375,-0.7274914979934692,1.7069565057754517,1.3132675886154175
1761469518530181000,7.34118115234375,-1.1024038791656494,1.8287070989608765,1.0586364269256592
1761469518540136200,7.35113623046875,-1.341180682182312,1.115464687347412,0.6897404789924622
1761469518550091000,7.361091064453125,-1.3920810222625732,0.18054412305355072,0.37432125210762024
1761469518560045300,7.37104541015625,-1.2340575456619263,-0.784730851650238,0.12153667211532593
1761469518570000100,7.381000244140625,-0.8034475445747375,-1.4623148441314697,-0.019897012040019035
1761469518579955200,7.390955078125,-0.2736188471317291,-1.6530413627624512,-0.04665565490722656
1761469518589910000,7.400909912109375,0.14413318037986755,-1.4335136413574219,0.030593406409025192
1761469518599864300,7.4108642578125,0.3463299870491028,-0.9874650835990906,0.20842279493808746
1761469518609819100,7.420819091796875,0.3788030743598938,-0.43760815262794495,0.44284725189208984
1761469518619774200,7.430774169921875,0.21257708966732025,-0.07260754704475403,0.6945993900299072
1761469518629728000,7.44072802734375,-0.09121355414390564,0.06180759519338608,0.9419702887535095
1761469518639683300,7.450683349609375,-0.3957665264606476,0.1416318565607071,1.0605651140213013
1761469518649638100,7.46063818359375,-0.5716298222541809,0.22487515211105347,1.0634196996688843
1761469518659593200,7.47059326171875,-0.6140494346618652,0.27491995692253113,1.022645115852356
1761469518669547000,7.480547119140625,-0.5256448984146118,0.2347484827041626,0.9098415970802307
1761469518679502300,7.49050244140625,-0.3027622699737549,0.29976823925971985,0.7928593158721924
1761469518689457200,7.50045703125,-0.008596734143793583,0.3418503403663635,0.7154555320739746
1761469518699412200,7.510412109375,0.2662457525730133,0.3211629092693329,0.7568645477294922
1761469518709366000,7.520365966796875,0.43970921635627747,0.2761542499065399,1.001157283782959
1761469518719321300,7.5303212890625,0.4334332048892975,0.13784538209438324,1.323441743850708
1761469518729276200,7.540276123046875,0.14410483837127686,-0.08923067897558212,1.5260696411132812
1761469518739231200,7.550231201171875,-0.36779627203941345,-0.7883104681968689,1.2327938079833984
1761469518749185000,7.56018505859375,-0.7907732725143433,-1.2865766286849976,0.377974271774292
1761469518759140400,7.570140380859375,-0.7462207078933716,-0.9728704690933228,-0.7766091227531433
1761469518769095200,7.58009521484375,-0.2929180860519409,0.059999484568834305,-1.8043911457061768
1761469518779050000,7.590050048828125,0.28830164670944214,1.1759727001190186,-2.1744489669799805
1761469518789004000,7.600004150390625,0.7250468730926514,1.700865626335144,-2.0197665691375732
1761469518798959000,7.609958984375,0.896484911441803,1.3236658573150635,-1.546413540840149
1761469518808914200,7.6199140625,1.08163321018219,0.02557411603629589,-1.062872052192688
1761469518818869000,7.629868896484375,1.2433233261108398,-1.3943732976913452,-0.8983691930770874
1761469518828823000,7.639822998046875,1.1892017126083374,-2.198500633239746,-1.1766493320465088
1761469518838778000,7.649778076171875,1.091558814048767,-2.0626394748687744,-1.6426631212234497
1761469518848733200,7.659733154296875,1.2320960760116577,-1.4573794603347778,-2.187284469604492
1761469518858687200,7.669687255859375,1.5803595781326294,-0.5850921869277954,-2.5547075271606445
1761469518868642000,7.67964208984375,1.8672600984573364,0.09132309257984161,-2.5388870239257812
1761469518878597000,7.68959716796875,1.7868595123291016,0.5673474669456482,-2.1495869159698486
1761469518888552200,7.69955224609375,1.2919142246246338,0.6187613606452942,-1.619551420211792
1761469518898506200,7.70950634765625,0.5467559099197388,-0.11518742889165878,-0.9991816878318787
1761469518908461000,7.7194609375,-0.1875273734331131,-1.3070708513259888,-0.3936668932437897
1761469518918416100,7.729416015625,-0.6222415566444397,-2.347994565963745,-0.05401479825377464
1761469518928371200,7.73937109375,-0.6640355587005615,-2.777402639389038,-0.020669247955083847
1761469518938325200,7.7493251953125,-0.3996022641658783,-2.5769922733306885,-0.3423719108104706
1761469518948280000,7.759280029296875,0.1772608757019043,-1.8380281925201416,-0.8611008524894714
1761469518958235100,7.769235107421875,0.9550554156303406,-0.6115319728851318,-1.459517478942871
1761469518968190200,7.779190185546875,1.6482188701629639,0.7618036866188049,-2.0909624099731445
1761469518978144300,7.789144287109375,2.008219003677368,1.786994218826294,-2.648796319961548
1761469518988099000,7.79909912109375,1.983090877532959,2.299802780151367,-2.927442789077759
1761469518998054100,7.80905419921875,1.669931411743164,2.4383091926574707,-2.8250670433044434
1761469519008009200,7.81900927734375,1.1456443071365356,2.2916500568389893,-2.2628800868988037
1761469519017963300,7.82896337890625,0.4951168894767761,1.8819341659545898,-1.3043042421340942
1761469519027918000,7.83891796875,-0.08008954674005508,1.2459808588027954,-0.25822964310646057
1761469519037873200,7.848873046875,-0.515254557132721,0.7376973628997803,0.6065499186515808
1761469519047828200,7.858828125,-0.8366527557373047,0.6257345080375671,1.2891513109207153
1761469519057782300,7.8687822265625,-1.0104188919067383,0.7190085053443909,1.7670954465866089
1761469519067737000,7.878737060546875,-1.0564440488815308,0.7259462475776672,1.9913266897201538
1761469519077692000,7.88869189453125,-0.993665337562561,0.8930639028549194,1.9993740320205688
1761469519087646200,7.898646240234375,-0.7816582322120667,1.0194898843765259,1.8375365734100342
1761469519097601300,7.908601318359375,-0.4712947905063629,1.1747002601623535,1.590999722480774
1761469519107556000,7.91855615234375,-0.20598682761192322,1.3563789129257202,1.2816901206970215
1761469519117511000,7.928510986328125,0.003473991062492132,1.402942419052124,0.9390115737915039
1761469519127465200,7.93846533203125,0.058122824877500534,1.2449829578399658,0.5818938612937927
1761469519137420300,7.948420166015625,0.03596319258213043,1.1795179843902588,0.3626544773578644
1761469519147375000,7.958375,-0.012003619223833084,1.1906201839447021,0.22823499143123627
1761469519157330000,7.968329833984375,-0.09369076043367386,1.3673787117004395,0.21967372298240662
1761469519167284200,7.9782841796875,-0.2513030171394348,1.640667200088501,0.3573242425918579
1761469519179105000,7.99010498046875,-0.505101203918457,1.8546035289764404,0.6414774656295776
1761469519189060000,8.00006005859375,-0.6640132069587708,1.7554261684417725,0.9446280002593994
1761469519199015200,8.01001513671875,-0.7819680571556091,1.37149178981781,1.2364369630813599
1761469519208969200,8.01996923828125,-0.7765564918518066,0.8628839254379272,1.3638203144073486
1761469519218924000,8.029924072265626,-0.5388227701187134,0.4151562452316284,1.3222193717956543
1761469519228879000,8.039879150390625,-0.22841550409793854,0.17789554595947266,1.2202528715133667
1761469519238835000,8.0498349609375,0.022394880652427673,0.004051586147397757,1.1216099262237549
1761469519248788700,8.059788818359374,0.27057668566703796,-0.16919471323490143,1.0747278928756714
1761469519258743800,8.069743896484376,0.4106144607067108,-0.5521519184112549,0.9517385959625244
1761469519268698600,8.07969873046875,0.30753007531166077,-0.9269097447395325,0.7737050652503967
