time,seconds_elapsed,z,y,x
1761468502692535000,0.05353515625,0.08567921859025955,0.10355411717258393,0.07475265957480295
1761468502702489900,0.06348974609375,-0.020016952112317084,0.10398490980528294,0.00286824891269207
1761468502712444700,0.073444580078125,-0.08156009283363819,0.09029095016941428,-0.12981904203006997
1761468502722398700,0.083398681640625,-0.10320201579928398,0.05082213248163461,-0.24615320059768855
1761468502732354000,0.09335400390625,-0.07307283499538898,-0.010617547865211963,-0.29857438404010606
1761468502742308900,0.103308837890625,-0.022567221117019653,-0.04155336887687444,-0.32061741688624024
1761468502752263700,0.113263671875,0.04980886378586292,-0.046862946527078744,-0.33256456938739865
1761468502762217700,0.1232177734375,0.07767594487667083,-0.053085035912320014,-0.2885484636588022
1761468502772172800,0.1331728515625,-0.0005400982260704041,-0.08017126882374286,-0.28473391033932566
1761468502782127900,0.1431279296875,-0.03968494465649128,-0.025407266848534345,-0.2894222325523384
1761468502792082700,0.153082763671875,-0.023694763842225075,0.029923940555378795,-0.21963106784243136
1761468502802036700,0.16303662109375,0.03833879074454307,0.05109057415947318,-0.11001279179267584
1761468502811991800,0.17299169921875,-0.031055063477158546,0.060728463337570426,-0.03236625567357987
1761468502821947000,0.18294677734375,-0.20816051987707615,0.06033244975730776,-0.06200988145023584
1761468502831901700,0.192901611328125,-0.24239772052168845,0.07197568740844726,-0.11273487370032817
1761468502841855700,0.202855712890625,-0.10012801518142223,0.08103234263248742,-0.1400888907024637
1761468502851810800,0.212810791015625,0.10306173054575919,0.05923683654032647,-0.12688538146466016
1761468502861766000,0.222765869140625,0.20567630184590815,0.008836071275919675,-0.11591854523774235
1761468502871720700,0.232720703125,0.1850970396757126,-0.039744931215420366,-0.14921035479102282
1761468502881676000,0.242676025390625,0.09306173005700111,-0.049260874514281745,-0.1571958005869761
1761468502891629800,0.2526298828125,-0.03412847957313061,-0.02008219936825335,-0.1319616983482614
1761468502901585000,0.2625849609375,-0.18613865768313406,-0.008257540735602378,-0.13029106172230093
1761468502911539700,0.272539794921875,-0.282080327090621,0.017394567719474435,-0.1753130930904299
1761468502921495000,0.2824951171875,-0.35216099453270433,0.03844948457740247,-0.19583149191886184
1761468502931448800,0.29244873046875,-0.37569267676770685,0.03177789785899222,-0.19147176233939825
1761468502941404000,0.30240380859375,-0.39903263582289217,0.030251126683130857,-0.20291925822272897
1761468502951358700,0.312358642578125,-0.3843938696175813,0.0061252048820257185,-0.23677264718152582
1761468502961314000,0.32231396484375,-0.23592764772474764,0.006874854205548763,-0.29909860884360967
1761468502971267800,0.332267822265625,-0.02003448776900768,0.03265972219482064,-0.27183168560303744
1761468502981223000,0.342222900390625,0.15928689111471175,0.023987755439430474,-0.1978132768532261
1761468502991177700,0.352177734375,0.2807604766637087,-0.004288052582740783,-0.1604004418471828
1761468503001133000,0.362133056640625,0.3752040164679289,-0.02837561513483524,-0.1644193220997229
1761468503011088000,0.372087890625,0.3921756095349788,-0.03520239241495728,-0.15390644018538296
1761468503021042000,0.3820419921875,0.30481238338053224,-0.02639408592879772,-0.1329363155340776
1761468503030996700,0.391996826171875,0.1282932024359703,-0.025486323434114454,-0.1254408817447722
1761468503040952000,0.4019521484375,0.033574937343597414,0.000990618472546339,-0.14132146470472215
1761468503050907000,0.411906982421875,0.04600537984967232,0.03478431313335895,-0.1422891406930983
1761468503060861000,0.42186083984375,0.08284954812228679,0.02802197939157486,-0.11124098188076167
1761468503070815700,0.431815673828125,0.12332827350497245,0.018937632443010805,-0.05682093450501561
1761468503080771000,0.44177099609375,0.16695932543873787,0.043063627309352155,-0.037734687371551986
1761468503090726000,0.451725830078125,0.14463175829648972,0.01807867752611637,-0.05393832827340811
1761468503100680000,0.461679931640625,0.10745616611242294,0.018240736220031976,-0.042156120542995626
1761468503110634800,0.471634765625,0.07829553807973862,0.014468816465884446,-0.022124336187727748
1761468503120590000,0.481590087890625,0.010143792873620987,-0.010122896216064691,-0.011404716187529265
1761468503130545000,0.491544921875,-0.04424655348360538,-0.01856046969369054,0.002771327876858413
1761468503140499700,0.501499755859375,-0.049207975283265114,0.01757087413445115,0.03439370638057589
1761468503150453800,0.511453857421875,-0.08915946192145346,0.013331336868554353,0.08259319874104112
1761468503160409000,0.5214091796875,-0.13175474106669424,0.01625767264403403,0.12602332127522675
1761468503170364000,0.531364013671875,-0.12344050170779228,0.0076248688552528615,0.17299849600512535
1761468503180318700,0.541318603515625,-0.10470248349010944,-0.028878523155674338,0.16599661788642406
1761468503190272800,0.551272705078125,-0.020593290695548057,-0.08899141187816857,0.16528499901834875
1761468503200228000,0.56122802734375,0.040513212174177166,-0.13190730127990244,0.17375435587372628
1761468503210183000,0.571182861328125,0.04427987123131752,-0.13129486846998334,0.19558774629086254
1761468503220137700,0.5811376953125,0.06483458348214625,-0.09627024377472698,0.16393610516004264
1761468503230091800,0.591091796875,0.06927636532187462,-0.07951791948154568,0.20977336190119383
1761468503240047000,0.601047119140625,0.05458733023405075,-0.11748349299952388,0.21811752147432414
1761468503250002000,0.611001953125,0.02214987248778343,-0.12523673747479916,0.14628917011469603
1761468503259956700,0.620956787109375,-0.002205401089787483,-0.14647490194514393,0.09166866826340556
1761468503269911800,0.630911865234375,-0.04025251541137695,-0.16204649202115834,0.07148899987004696
1761468503279865900,0.640865966796875,-0.08532324475944042,-0.13784297493919728,0.05649225053992122
1761468503289821000,0.650821044921875,-0.10209142420887947,-0.12229491186924278,0.0871607623849064
1761468503299775700,0.660775634765625,-0.14204057275950907,-0.09394289680570364,0.11074844912346452
1761468503309730800,0.670730712890625,-0.17979016543924808,-0.06955094447955489,0.07916220137905329
1761468503319685000,0.68068505859375,-0.19302432554364204,-0.0507389842428267,0.07078764666765928
1761468503329640400,0.690640380859375,-0.1783773760318756,-0.03690020930878818,0.04473375247865915
1761468503339595300,0.70059521484375,-0.10332651896178721,-0.022615444172918796,0.04047123619597405
1761468503349550300,0.71055029296875,-0.06136369250118732,-0.036859804233163596,0.04098890339452773
1761468503359504100,0.720504150390625,-0.07456161224842071,-0.06162921156957745,0.018238617328181862
1761468503369459500,0.73045947265625,-0.07153671146929264,-0.021169117822125553,0.02876728133354336
1761468503379414300,0.740414306640625,-0.08364800502359866,-0.0007824556145817041,0.02177329426035285
1761468503389369300,0.750369384765625,-0.1311906774431467,0.007997355429455637,-0.001785312514193356
1761468503399324400,0.760324462890625,-0.11103694720864295,0.02062295518144965,-0.0027183555806055662
1761468503409278500,0.770278564453125,-0.04859072016775608,0.029959742521122098,-0.015396708433143794
1761468503419233300,0.7802333984375,0.04230184915661812,0.01033595444485545,-0.03953961790166795
1761468503429188400,0.790188232421875,0.13251929569840432,-0.018500117808580397,-0.032593744286522265
1761468503439143400,0.800143310546875,0.21348902142345905,-0.03447385894469917,-0.025571444434300063
1761468503449097500,0.810097412109375,0.23719079952836036,-0.0615275778260082,-0.06808887257035821
1761468503459052300,0.82005224609375,0.21904256389737128,-0.049875718476995824,-0.07232921355385333
1761468503469007400,0.83000732421875,0.17300620438754558,-0.07187924129664898,-0.07400828921459615
1761468503478962400,0.83996240234375,0.09905600203573703,-0.05880808973424136,-0.06460442798808216
1761468503488916500,0.84991650390625,0.006984452059864998,-0.023518092101067305,-0.07656586474291979
1761468503498871300,0.859871337890625,-0.08993512246906757,-0.004558174761012196,-0.06456906441375612
1761468503508826400,0.869826416015625,-0.14121990402638912,0.017702464624866843,-0.09548618072494863
1761468503518781400,0.879781494140625,-0.14795827237069606,0.03838635621331632,-0.1130254176121205
1761468503528735500,0.889735595703125,-0.0963560954272747,0.03531483981348574,-0.12794928436912595
1761468503538690300,0.899690185546875,-0.012923194459080696,0.006464812099933624,-0.11415391018539667
1761468503548645400,0.909645263671875,0.0038461540341377257,-0.006465761948004365,-0.14498773212730884
1761468503558600400,0.919600341796875,-0.0502191981524229,-0.029956089259311557,-0.1453325269769877
1761468503568555300,0.92955517578125,-0.09716332015693187,-0.024702844906225797,-0.12361140129528939
1761468503578509300,0.93950927734375,-0.13814824149608612,-0.005093596811965108,-0.1040412431024015
1761468503588464400,0.94946435546875,-0.16559271326065061,0.001855272477865219,-0.1014489615868777
1761468503598419500,0.95941943359375,-0.18095102591216564,-0.0108054716527462,-0.08760214947685599
1761468503608374300,0.969374267578125,-0.20198679967820643,-0.0005334492895752191,-0.10359116124734281
1761468503618328300,0.979328369140625,-0.17182254756093024,0.012156886261701583,-0.08865677309632301
1761468503628283100,0.989283203125,-0.14402970075011254,-0.002230681661516428,-0.08070705620087683
1761468503638238500,0.999238525390625,-0.16260463736057282,0.0027499562952667473,-0.10988931154347956
1761468503648193300,1.009193359375,-0.16428864492475986,0.02841105177439749,-0.17159122302308677
1761468503658147300,1.019147216796875,-0.1225245559066534,-0.011654928088933229,-0.16164689824432132
1761468503668102100,1.02910205078125,-0.0660223319619894,-0.05331687190681696,-0.16450798676386474
1761468503678057500,1.039057373046875,-0.004608370578289032,-0.07304127081334591,-0.15879421222694218
1761468503688012300,1.04901220703125,0.04349661189913749,-0.07636055142916738,-0.13678871664591133
1761468503697967400,1.05896728515625,0.04778291091620922,-0.08747297013923526,-0.09662504856176674
1761468503707921200,1.068921142578125,0.0015343699604272842,-0.10005999144650995,-0.0728973688306287
1761468503717876500,1.07887646484375,-0.0405512060970068,-0.06620134179070591,-0.09571578822974115
1761468503727831300,1.088831298828125,-0.037647301349043844,-0.030453152061253784,-0.09213957371078431
1761468503737786400,1.098786376953125,-0.011377718582749366,0.012603680181130766,-0.05579765587188303
1761468503747740200,1.108740234375,0.019162381109595297,0.022149653292074797,-0.013596782871708273
1761468503757695500,1.118695556640625,0.040753450670838354,0.043803778152167794,-0.02065050077550113
1761468503767650300,1.128650390625,0.037059856849908826,0.026989567603915927,-0.07503850904516875
1761468503777605400,1.13860546875,-0.030750527572631834,0.025374825883656738,-0.11936061198301613
1761468503787559200,1.14855908203125,-0.08130582581162452,0.03962926894649863,-0.12674904173389076
1761468503797514500,1.158514404296875,-0.1692752011656761,0.030377967933192848,-0.14265622043982149
1761468503807469300,1.16846923828125,-0.1691360849559307,0.05151975935697555,-0.1337606740616262
1761468503817424400,1.17842431640625,-0.10104922167956829,0.05529072926305234,-0.1156582503337413
1761468503827379200,1.188379150390625,-0.0096247374355793,0.051116000861674546,-0.08400441724583506
1761468503837333500,1.19833349609375,0.11194412518143654,0.039927009784057735,-0.08220167867280542
1761468503847288300,1.208288330078125,0.22564532316327093,0.02572999599687755,-0.0599937923874706
1761468503857243400,1.218243408203125,0.2839326769590378,0.014688158304989337,-0.08918423103652894
1761468503867198200,1.2281982421875,0.2476069796025753,-0.0035856034018099305,-0.08798486518412828
1761468503877152500,1.238152587890625,0.12476619735360145,0.002060951117798686,-0.06500197593830526
1761468503887107300,1.248107421875,-0.02799626042842865,0.07006415469869971,-0.07152151390016079
1761468503897062400,1.2580625,-0.13429507319927214,0.1287501524232328,-0.08077288797870277
1761468503907017200,1.268017333984375,-0.2025233907729387,0.16312975721321998,-0.0663362932819873
1761468503916971500,1.277971435546875,-0.22042437364459036,0.1860863429740071,-0.04870813600234687
1761468503926926300,1.28792626953125,-0.1787690056979656,0.1917374275382608,-0.08905987400449812
1761468503936881400,1.29788134765625,-0.1634855118483305,0.17753639516308903,-0.10664696862138807
1761468503946836200,1.307836181640625,-0.11095160701274871,0.16513262146823107,-0.11407492666505277
1761468503956791300,1.317791259765625,-0.09269581935405731,0.16264591921903193,-0.11828808738067745
1761468503966745300,1.327745361328125,-0.10844985332489013,0.15553849836662412,-0.13253178985379635
1761468503976700400,1.337700439453125,-0.10478139394521713,0.15181962397396565,-0.1453844763599336
1761468503986655200,1.3476552734375,-0.07832710226178169,0.1457199188593775,-0.1252749505933374
1761468503996610300,1.3576103515625,-0.032121231403946876,0.13158267243541777,-0.1286602821826935
1761468504006564400,1.367564453125,0.03359539560973644,0.09933657254278659,-0.13805924803838132
1761468504016519400,1.37751953125,0.14247779513299463,0.0762465696606785,-0.15826880011335015
1761468504026474200,1.38747412109375,0.26650574133992194,0.026734642994776365,-0.1887561467051506
1761468504036429300,1.39742919921875,0.3586678922086954,-0.013215017012506722,-0.21741941967494785
1761468504046383400,1.40738330078125,0.3904869257956743,0.000493044213950634,-0.1956879917949438
1761468504056338400,1.41733837890625,0.35870354804396626,-0.006472922341153025,-0.17219189232997595
1761468504066293200,1.427293212890625,0.30564766516089437,-0.0063381900455802675,-0.1422365337230265
1761468504076248300,1.437248291015625,0.21313889281153678,0.00695449531301856,-0.12357603772096336
1761468504086202400,1.447202392578125,0.11780278808176517,0.01085515601336956,-0.11383264234177767
1761468504096157400,1.457157470703125,0.014414309799671171,0.020967969226837156,-0.10253445526864378
1761468504106112300,1.4671123046875,-0.023130115696787832,-0.001737199056148529,-0.09808459972031414
1761468504116067300,1.4770673828125,-0.049997079834342,-0.00039192192703485485,-0.10968275612071156
1761468504126022400,1.4870224609375,-0.08662497500777244,-0.023373715194314717,-0.09605207097940147
1761468504135976200,1.49697607421875,-0.1017851347386837,-0.05030183493457734,-0.07179938099347055
1761468504145931300,1.50693115234375,-0.08383914368152617,-0.05686411605961621,-0.0510394284941256
1761468504155886300,1.51688623046875,-0.026938860329985617,-0.09922989729791878,-0.04366400435529649
1761468504165841400,1.52684130859375,0.08080664411783219,-0.14849091794267297,-0.019735176028870045
1761468504175795200,1.536795166015625,0.1781114185720682,-0.15781601484455168,-0.02273753618262708
1761468504185750300,1.546750244140625,0.18594868806898593,-0.1780518704045564,0.033546003510057924
1761468504195705300,1.556705322265625,0.12153846747875213,-0.21763898070976137,0.02292980735171586
1761468504205660400,1.566660400390625,0.01650748268663883,-0.20540632579810916,-0.018881116482801736
1761468504215614200,1.5766142578125,-0.10219430006146431,-0.18821071471683679,-0.025063275716453788
1761468504225569300,1.5865693359375,-0.17302783169746397,-0.1671769137121737,0.03646126990225166
1761468504235524400,1.5965244140625,-0.19087386951148508,-0.08235621164739132,0.11821896766722202
1761468504245479400,1.6064794921875,-0.2238742218375206,-0.04912365800067782,0.18944295992553234
1761468504255434200,1.616434326171875,-0.21753040576875207,-0.019995617063343525,0.21050101858861744
1761468504265388300,1.62638818359375,-0.15816753169596195,-0.018803265473619102,0.20638799377921968
1761468504275343400,1.63634326171875,-0.09059446316063403,-0.08705094533488154,0.19059359126538036
1761468504285298400,1.64629833984375,-0.0625976182103157,-0.16219123425409196,0.10828943859878927
1761468504295253200,1.656253173828125,-0.03830547299683094,-0.19653204140365121,0.03422733683772385
1761468504305207300,1.666207275390625,0.008664367970824241,-0.22929675834290683,-0.0192271899741143
1761468504315162400,1.676162353515625,0.008928571864962577,-0.29324294161796566,-0.02776175755281001
1761468504325117400,1.686117431640625,0.018401333609223365,-0.2541905227113515,-0.013024937800504266
1761468504335072300,1.696072265625,-0.00485854594707489,-0.23188129494339227,-0.01158094953726977
1761468504345026300,1.7060263671875,0.048346974539756775,-0.20432875969447195,0.0060106751242652535
1761468504354981400,1.7159814453125,0.06412438938617705,-0.20939671060852705,-0.0007676599042490124
1761468504364936400,1.7259365234375,0.08167056747078895,-0.2304435902904719,-0.040120851855725045
1761468504374891300,1.735891357421875,0.14898819994032383,-0.21978812156766653,-0.0822501939896494
1761468504384846300,1.745846435546875,0.2006464909851551,-0.22532690486386417,-0.09696191583331673
1761468504394800400,1.75580029296875,0.23180676840245723,-0.22289237119331953,-0.09893613851573317
1761468504404755500,1.76575537109375,0.24495851092040538,-0.21217187441028654,-0.1050424925668165
1761468504414710300,1.775710205078125,0.3064309244930744,-0.19842603845670817,-0.14042422360405324
1761468504424665300,1.785665283203125,0.42546997637152667,-0.2062443840574473,-0.14805245346017182
1761468504434619400,1.795619384765625,0.5390870032012463,-0.2418742811694741,-0.1572187430711463
1761468504444574500,1.805574462890625,0.5943295824736357,-0.29977241645194586,-0.15923026555664838
1761468504454529300,1.815529296875,0.580263063198328,-0.322677345090732,-0.17776125342752783
1761468504464484400,1.825484375,0.4689788632303476,-0.33694844702742993,-0.19594214921910313
1761468504474439400,1.835439453125,0.334093422922492,-0.3344456704262644,-0.23956457945499568
1761468504484393500,1.8453935546875,0.2357341709792614,-0.3630431846834719,-0.27195571384150535
1761468504494348300,1.855348388671875,0.15719430274963378,-0.42257885803990064,-0.3423320397619158
1761468504504303000,1.86530322265625,0.12065350133776664,-0.48957142327353353,-0.4147924784800037
1761468504514258400,1.875258544921875,0.17437924630641935,-0.5355006691470742,-0.5049501941911876
1761468504524212500,1.88521240234375,0.2567734518766403,-0.6268303147144615,-0.5711787893150001
1761468504534167300,1.895167236328125,0.3090729634344578,-0.7208349516447633,-0.6125478876661509
1761468504544122000,1.9051220703125,0.27521511749625205,-0.8104983445003628,-0.619463731469214
1761468504554077400,1.915077392578125,0.16379121679663658,-0.8958060994297266,-0.5910838054854423
1761468504564031500,1.925031494140625,-0.02144669265449047,-0.9385487511564046,-0.5439577145101502
1761468504573986300,1.934986328125,-0.1894277623564005,-0.934652035978809,-0.4885423359541222
1761468504583941000,1.944941162109375,-0.33020518331229687,-0.9202047006923705,-0.39104295224323865
1761468504593896400,1.954896484375,-0.4650356785625219,-0.8887389375224709,-0.28872016696389763
1761468504603851300,1.964851318359375,-0.5714730230212212,-0.8696868118543177,-0.22375150877330452
1761468504613805300,1.974805419921875,-0.6581313157767057,-0.8231783778533339,-0.16326353966072202
1761468504623760100,1.984760009765625,-0.7834265054404735,-0.8061826732583344,-0.08373513531778007
1761468504633715500,1.994715576171875,-0.8092354849576949,-0.7886745621617883,-0.08607837397567927
1761468504643670300,2.004670166015625,-0.6945704103797674,-0.7749701541971414,-0.07766366991698742
1761468504653624300,2.014624267578125,-0.4853589201450348,-0.81129168683514,-0.06540303101986646
1761468504663579100,2.0245791015625,-0.2086900967091322,-0.8385906126491725,-0.02749068552646786
1761468504673534500,2.034534423828125,0.09403846613466739,-0.8842891185067594,0.004789608896709979
1761468504683489300,2.0444892578125,0.3488730589032173,-0.9374751305755227,0.03159932642169296
1761468504693443300,2.054443359375,0.5573088885903358,-0.9564511953327804,0.02190108535848558
1761468504703398100,2.064398193359375,0.7023883906543255,-0.9730741210926324,-0.0008992503946647048
1761468504713353500,2.074353515625,0.8009300134271383,-0.9917049526087939,0.010939290632866323
1761468504723308300,2.084308349609375,0.8130079892337322,-0.960829629612714,0.0016860899234190582
1761468504733263400,2.094263427734375,0.7556786668151617,-0.9144835465665906,-0.02555986359436065
1761468504743217200,2.104217041015625,0.6413029305726289,-0.8838030154902488,-0.05322117471368983
1761468504753172500,2.11417236328125,0.5432914691537618,-0.7947253866333513,-0.03191600942173973
1761468504763127300,2.124127197265625,0.48644379277229305,-0.6953018664594739,0.013029193850513546
1761468504773082400,2.134082275390625,0.40822131992876526,-0.6330047655656933,0.015255327201075851
1761468504783036200,2.1440361328125,0.38558161809742447,-0.5831959017798304,-0.0462297449237667
1761468504792991500,2.153991455078125,0.37458091613352296,-0.5360669977929443,-0.07772345554651693
1761468504802946300,2.1639462890625,0.37541795147955415,-0.5270064701113849,-0.10180561127113177
1761468504812901400,2.1739013671875,0.36374504934251306,-0.5230990874093026,-0.14113344958564267
1761468504822855200,2.183855224609375,0.325788535913825,-0.5299434734113514,-0.1839738443320617
1761468504832810500,2.193810546875,0.26449147890806196,-0.5237445457059889,-0.18369128279732538
1761468504842765300,2.203765380859375,0.205085350215435,-0.5300960336245596,-0.2104457264711149
1761468504852720400,2.213720458984375,0.14797522350549697,-0.5676004193715751,-0.1918433721307665
1761468504862675500,2.223675537109375,0.10914134272038936,-0.5977664250545204,-0.1607500955350697
1761468504872629500,2.23362939453125,0.04726210191249847,-0.6402610933694988,-0.11412488502031191
1761468504882584300,2.243584228515625,-0.007383095988631248,-0.7165995790973305,-0.039932398345228284
1761468504892539100,2.2535390625,-0.022013678887486458,-0.7915489485543221,0.007544917220529169
1761468504902494500,2.263494384765625,0.026548399707674978,-0.8689720146484673,0.049787035546544935
1761468504912448500,2.273448486328125,0.09047463617324829,-0.962646688972041,0.07962472259057685
1761468504922403300,2.2834033203125,0.0743178666204214,-1.0262322953063994,0.08406270503802224
1761468504932358100,2.293358154296875,0.02595978616476059,-1.059271518338099,0.1069705014873296
1761468504942313500,2.3033134765625,-0.07258242112994194,-1.0845702833108604,0.12656281671309844
1761468504952268300,2.313268310546875,-0.21849778949618337,-1.1316434385225176,0.13413040242316202
1761468504962222300,2.323222412109375,-0.33247312824428077,-1.167981922295317,0.11603269140301271
1761468504972177200,2.33317724609375,-0.43991935748457905,-1.1762350791167466,0.06776113845333456
1761468504982132500,2.343132568359375,-0.5208645332902669,-1.2084499070882797,0.009742153270170093
1761468504992087300,2.35308740234375,-0.5725432826012372,-1.252856181178242,-0.09512938491022213
1761468505002041300,2.363041259765625,-0.6231663853794336,-1.3148194470077752,-0.17908466578470542
1761468505011996200,2.37299609375,-0.6504051054388285,-1.3784978461921213,-0.22557370096547527
1761468505021951500,2.382951416015625,-0.687299542593956,-1.4709448053516447,-0.19756089126104487
1761468505031906300,2.39290625,-0.6821721165776252,-1.5462413077458739,-0.1061999007073231
1761468505041860400,2.4028603515625,-0.610705547735095,-1.5201900439053773,-0.012861344736628234
1761468505051815200,2.412815185546875,-0.5929623857736587,-1.43537869419083,0.045299989792983976
1761468505061770500,2.4227705078125,-0.7609300114721059,-1.2218518249750137,-0.0582864770129323
1761468505071725300,2.432725341796875,-1.1496095955848693,-0.929981998341158,-0.21372933298535643
1761468505081680400,2.442680419921875,-1.680894400602579,-0.6390910266768187,-0.36637192724738266
1761468505091634200,2.45263427734375,-2.2786434361308814,-0.3343748702123761,-0.48181909211371093
1761468505101589500,2.462589599609375,-2.7702976570278404,-0.037289793148264284,-0.49001613483373074
1761468505111544300,2.47254443359375,-2.955999092337489,0.2794275475595146,-0.5476442940684035
1761468505121499400,2.48249951171875,-2.8328625420123337,0.46535994208082554,-0.4505006649926305
1761468505131453200,2.492453125,-2.2845172966003418,0.6151848120409995,-0.2849834281209856
1761468505141408500,2.502408447265625,-1.3549088808119296,0.6703581985346972,-0.20008125831782816
1761468505151363300,2.51236328125,-0.4205360271006822,0.6231009919930249,-0.07217261648634449
1761468505161318400,2.522318359375,0.3712503104060888,0.5823178037710488,0.029009127265401183
1761468505171272200,2.532272216796875,1.0189449878424406,0.5569301914710552,0.12032980407504364
1761468505181227500,2.5422275390625,1.5225526813834904,0.5081934138961136,0.2146385202521458
1761468505191182300,2.552182373046875,1.8754776460260152,0.416204135376215,0.21114167284602298
1761468505201137400,2.562137451171875,2.0485610073029994,0.30322467579767104,0.1645596804184839
1761468505211091200,2.57209130859375,2.0110931541740893,0.20285437629297373,0.007894904268556274
1761468505221046500,2.582046630859375,1.857883537146449,0.1763271655037999,-0.19432830254798755
1761468505231001300,2.59200146484375,1.6610574812322854,0.1711930174857378,-0.3586594166412949
1761468505240956400,2.601956298828125,1.4944985532879829,0.2735771410308778,-0.4576501714210957
1761468505250911200,2.6119111328125,1.34069681558609,0.41063846407309174,-0.45594168700277804
1761468505260865500,2.621865478515625,1.1506745944678782,0.5575162477307021,-0.3875578135412186
1761468505270820400,2.6318203125,0.930744141820073,0.7115783899344503,-0.31116971651799974
1761468505280775400,2.641775390625,0.6301806480556726,0.8407473522916435,-0.21385524265365674
1761468505290730200,2.651730224609375,0.28994448459446426,0.9967017379827797,-0.14938143704161047
1761468505300684500,2.6616845703125,0.07053951712548732,1.0992686707489192,-0.011867894986178726
1761468505310639400,2.671639404296875,-0.09467910212576389,1.1598619633994995,0.09810067407228051
1761468505320594400,2.681594482421875,-0.13361585876345633,1.1704894481368362,0.1459039884557016
1761468505330548700,2.691548828125,-0.10280980161130428,1.1446128102108835,0.1921607675168663
1761468505340502800,2.701502685546875,-0.0820475840896368,1.0852471596591173,0.292021035140194
1761468505350457600,2.71145751953125,-0.0500666379392147,1.0432583219744265,0.38770920471064746
1761468505360412700,2.72141259765625,-0.08601181154549122,1.0017530300229787,0.4325180317195132
1761468505370367700,2.73136767578125,-0.13827274465858935,0.9733990421980618,0.4214900398898869
1761468505380322800,2.74132275390625,-0.17997955053150652,0.9464835627436637,0.3977920611772686
1761468505390276600,2.751276611328125,-0.1975783355861902,0.8957438478484749,0.3280324423830956
1761468505400231700,2.761231689453125,-0.2101180836856365,0.7994276460401714,0.21322978596538303
1761468505410186800,2.771186767578125,-0.21847440862059592,0.7149805995933711,0.036615949007309974
1761468505420141800,2.781141845703125,-0.22547522729337213,0.608525281086564,-0.07279270287975668
1761468505430095600,2.791095703125,-0.24561726709008216,0.5230960917346179,-0.17404435179624705
1761468505440050700,2.80105078125,-0.23933950199484824,0.43310880068689583,-0.2518160851975903
1761468505450005800,2.811005859375,-0.1802256342470646,0.349061128821224,-0.26259507070221005
1761468505459960600,2.820960693359375,-0.11652736131846904,0.2987371551200747,-0.21881463689301162
1761468505469914600,2.83091455078125,-0.0016255553752183914,0.2720006854943931,-0.15890698841903358
1761468505479869700,2.84086962890625,0.1393769065082073,0.23181451331749556,-0.07627247128691524
1761468505489824800,2.85082470703125,0.28221301355957984,0.16689985033646226,-0.007061426286213099
1761468505499779600,2.860779541015625,0.3327876010209322,0.14323592002391813,0.02490720837190747
1761468505509733600,2.870733642578125,0.31617198178470135,0.09317498117312789,0.037588228105567396
1761468505519688700,2.880688720703125,0.3349959247201681,0.05046747382506728,0.0411486970661208
1761468505529643800,2.890643798828125,0.369739321321249,-0.0038192660272121427,0.03284289674200117
1761468505539598600,2.9005986328125,0.4686924475044012,-0.05958645369559526,0.053314899145439264
1761468505549553700,2.9105537109375,0.5888432600170374,-0.11901888587325811,0.024794139918871222
1761468505559507700,2.9205078125,0.7021563354641198,-0.17391805853545664,0.040745705755800006
1761468505569462800,2.930462890625,0.7708686371624469,-0.22833485450819133,0.06050970602035522
1761468505579417600,2.94041748046875,0.7910223673969506,-0.30628742436915635,0.0702726828828454
1761468505589372700,2.95037255859375,0.8056009278476238,-0.376237889560312,0.018874577144160867
1761468505599326700,2.96032666015625,0.8058470115631818,-0.4779664718061685,-0.027548991584964096
1761468505609281800,2.97028173828125,0.7934235833197831,-0.5528447487883269,-0.04697396915350109
1761468505619236600,2.980236572265625,0.8105740400850773,-0.6470673393182456,-0.07384075062796473
1761468505629191700,2.990191650390625,0.8119038273841143,-0.7806576252490282,-0.08085230989046395
1761468505639145700,3.000145751953125,0.755375884476304,-0.8623978969551622,-0.10701397530287504
1761468505649100800,3.010100830078125,0.7215338206291199,-0.9142634010098875,-0.11253456535525619
1761468505659055600,3.0200556640625,0.6568985591113568,-0.9476717496149242,-0.0983894278857857
1761468505669010700,3.0300107421875,0.5898059675693511,-1.006483127284795,-0.0941208837211132
1761468505678965800,3.0399658203125,0.49522272703349585,-0.9997915937568992,-0.08494900461956859
1761468505688919800,3.049919921875,0.3333849823921919,-1.0173250584904103,-0.10029818411655723
1761468505698874600,3.05987451171875,0.16438158390522004,-1.031486854833737,-0.12893084275238215
1761468505708829700,3.06982958984375,0.0457359152585268,-1.0479271175030618,-0.11501228058040142
1761468505718784800,3.07978466796875,-0.028736265140771863,-1.068746764300391,-0.09406265072785318
1761468505728738800,3.08973876953125,-0.04578910675048828,-1.1056086874254047,-0.08514248136505484
1761468505738693600,3.099693603515625,-0.024534721797704696,-1.1438690061062573,-0.0955588806349784
1761468505748648700,3.109648681640625,-0.0077829089611768714,-1.1711612829837947,-0.12014818216413259
1761468505758603800,3.119603759765625,-0.05293021067678928,-1.177541704735905,-0.10612813237905502
1761468505768557800,3.129557861328125,-0.18462766859829424,-1.170066181223467,-0.12036387074142693
1761468505778512600,3.1395126953125,-0.36586686380207534,-1.1374915069635956,-0.15007190352380276
1761468505788467700,3.1494677734375,-0.5041770178616046,-1.1006702811751514,-0.2068547710407525
1761468505798422800,3.1594228515625,-0.6509890428066253,-1.0786750877924263,-0.23612280497066676
1761468505808377900,3.1693779296875,-0.8350912262260913,-1.004367669500783,-0.25857619044966995
1761468505818331600,3.17933154296875,-1.0491717838019132,-0.952777036864683,-0.1993990482073277
1761468505828286700,3.18928662109375,-1.2360089451432228,-0.8716106195237487,-0.1279636782206595
1761468505838241800,3.19924169921875,-1.2953572061687708,-0.8714625162899494,0.04478219473026693
1761468505848196900,3.20919677734375,-1.2089940969675779,-0.9263489756010472,0.24093553901463746
1761468505858150700,3.219150634765625,-1.0060013351172208,-0.9570399550061672,0.34007644285485145
1761468505868105700,3.229105712890625,-0.8342167814791202,-0.9725135646004229,0.3566610824309289
1761468505878060800,3.239060791015625,-0.7674626281112432,-1.009381844400987,0.30353315722495317
1761468505888016000,3.249015869140625,-0.7370435244500637,-1.0101786938671022,0.1890120942275971
1761468505897969700,3.2589697265625,-0.7879261549472808,-1.0027874876372516,-0.02599113115109503
1761468505907924700,3.2689248046875,-0.975838252043724,-0.9292797683559357,-0.31549905095919967
1761468505917879800,3.2788798828125,-1.3175403964042662,-0.769956490753591,-0.5232951214380562
1761468505927834600,3.288834716796875,-1.7664017697572707,-0.5876498124487698,-0.6972858798835426
1761468505937788700,3.29878857421875,-2.271284890061617,-0.28901874805167316,-0.8045448429234325
1761468505947743700,3.30874365234375,-2.7444594514161347,0.10830620707049965,-0.8675661664385348
1761468505957698800,3.31869873046875,-2.9714158571779725,0.4531346667580306,-0.7873032738085836
1761468505967653600,3.328653564453125,-2.917443443971872,0.7216789281882345,-0.5599077459771186
1761468505977607700,3.338607666015625,-2.4536843612164256,0.9572697451740503,-0.32990064740777014
1761468505987562800,3.348562744140625,-1.6625018348217009,1.0751802314139902,-0.189775552880764
1761468505997517800,3.358517822265625,-0.6855220115274191,1.0728073648028076,-0.13054222347177563
1761468506007472600,3.36847265625,0.02460778703391552,0.9880088745698332,-0.09239654414653778
1761468506017427700,3.378427734375,0.5399719693422317,0.9674483171001076,-0.20189758702479302
1761468506027381800,3.3883818359375,1.055251980498433,0.9742075821019709,-0.3062547642085701
1761468506037336800,3.3983369140625,1.390470023536682,0.9512187745720148,-0.3416108128152788
1761468506047291600,3.408291748046875,1.6080612195819615,0.9666068978399037,-0.3514426171302795
1761468506057246700,3.418246826171875,1.786688770982623,1.0499531434379517,-0.38596740254461764
1761468506067200800,3.42820068359375,1.964692053005099,1.1066719327427446,-0.4156927517879754
1761468506077155800,3.43815576171875,2.067681302836537,1.145111991904676,-0.4761084228493273
1761468506087110700,3.448110595703125,2.096689955177903,1.1217447064511477,-0.5765469652846456
1761468506097065700,3.458065673828125,2.0019635067790746,1.0961506848588585,-0.658034358208254
1761468506107019800,3.468019775390625,1.8168576992750167,1.146032906141877,-0.7265673578169196
1761468506116974600,3.477974609375,1.5957318993628025,1.212441460942477,-0.8031842220947146
1761468506126929700,3.4879296875,1.3567571390271187,1.261557520158589,-0.8545198570564388
1761468506136884700,3.497884765625,1.1564613611757755,1.291735654670745,-0.8874357459694147
1761468506146838800,3.5078388671875,0.9681775081574916,1.2718173406273126,-0.840969982066378
1761468506156793600,3.517793701171875,0.8886790240287781,1.2370132998801766,-0.7506940833356232
1761468506166748700,3.527748779296875,0.8631219734460115,1.1549775523588062,-0.6116461165208369
1761468506176703700,3.537703857421875,0.8421516661316156,1.1015138193272054,-0.44904644759632645
1761468506186658600,3.547658447265625,0.7723685203313827,1.0303051707684994,-0.24586225482709703
1761468506196612600,3.557612548828125,0.6221154150217771,0.9393108946353197,-0.046807928404211996
1761468506206567700,3.567567626953125,0.4982721777319908,0.8681330796062946,0.125385717491433
1761468506216522800,3.577522705078125,0.3727700673192739,0.7418414262510835,0.3112166243996471
1761468506226477600,3.5874775390625,0.27796412394344805,0.6192950969040394,0.4365959121502936
1761468506236431600,3.597431640625,0.24288404273390768,0.49438160003423687,0.5441744625333697
1761468506246386700,3.60738671875,0.2606757200121879,0.34236820705384013,0.6049054831542074
1761468506256341800,3.617341796875,0.3344675169318914,0.14036197202280162,0.6465873007163405
1761468506266296600,3.627296630859375,0.44220834520459174,-0.09390271092578768,0.6178205673720687
1761468506276250600,3.637250732421875,0.5190887557893992,-0.3336661374211311,0.5981131196003406
1761468506286205700,3.647205810546875,0.6172141989767551,-0.5669074686713517,0.6181607591118663
1761468506296160800,3.657160888671875,0.6803460701942443,-0.776963446906209,0.6177866651024669
1761468506306115600,3.667115478515625,0.7296627665489912,-0.981601053354144,0.6353142846170813
1761468506316069600,3.677069580078125,0.7851952686786651,-1.14404597010836,0.6509553597327321
1761468506326025500,3.687025390625,0.8402215748518704,-1.3037725678145884,0.6234302239473909
1761468506335980300,3.696980224609375,0.8625175778120756,-1.4475615916766225,0.6058307447729632
1761468506345935400,3.706935302734375,0.7835083385050297,-1.6020879903912544,0.5661491976499557
1761468506355889700,3.7168896484375,0.6551911706715822,-1.7121768430948257,0.4813636399637907
1761468506365844500,3.726844482421875,0.4737234274089336,-1.732305146627128,0.4284545086076483
1761468506375799300,3.73679931640625,0.2385083118677139,-1.7228128033995627,0.359043447522819
1761468506385754400,3.74675439453125,0.007503507497906684,-1.6966384977012872,0.3070056191084906
1761468506395709400,3.75670947265625,-0.2308142502337694,-1.631593924730271,0.23877463465370236
1761468506405663500,3.76666357421875,-0.43117491001486774,-1.5353876130372286,0.17888649459779263
1761468506415618300,3.776618408203125,-0.7034720942378043,-1.457122616226226,0.16351104814838618
1761468506425573400,3.786573486328125,-0.9343816215395927,-1.341308517743647,0.09814349030070006
1761468506435528400,3.796528564453125,-1.103354040366411,-1.223246567269042,0.03455806662943214
1761468506445482500,3.806482421875,-1.1963485504060982,-1.1697216786347329,-0.01775057808291167
1761468506455437300,3.816437255859375,-1.1872212410986422,-1.1082749840252102,-0.033087446087598796
1761468506465392400,3.826392333984375,-1.15859778868258,-1.02006493178308,0.013860694504901766
1761468506475347500,3.836347412109375,-1.0856938805133103,-0.9068384386409074,0.05350472262911498
1761468506485301500,3.846301513671875,-1.0023445661753416,-0.7858393387358635,0.09230974264591932
1761468506495256300,3.85625634765625,-0.8950427138417959,-0.7142937133077532,0.11548899471405893
1761468506505211400,3.86621142578125,-0.7891659258753061,-0.6804577138751745,0.1260162704799324
1761468506515166500,3.87616650390625,-0.7132996607691049,-0.6505478749103843,0.12422072883266955
1761468506525120500,3.88612060546875,-0.6722720693320036,-0.6187989839501679,0.13679112779870628
1761468506535075300,3.896075439453125,-0.6771814686834812,-0.599625643055141,0.13174999182634053
1761468506545030400,3.906030517578125,-0.6395242304623127,-0.6211402863793075,0.08684238061811775
1761468506554985500,3.9159853515625,-0.6076093352854252,-0.7129587383769452,0.09694149409979581
1761468506564939500,3.925939453125,-0.5887427222520113,-0.8179043829731643,0.025417057590186594
1761468506574894300,3.935894287109375,-0.5478098233610391,-0.8490702133484185,-0.1810973390476778
1761468506584849400,3.945849365234375,-0.5486731621921063,-0.8116086438298225,-0.4566175769703463
1761468506594804500,3.955804443359375,-0.7257248425781726,-0.763405607805401,-0.6589835486918687
1761468506604759600,3.965759521484375,-1.0705383969575166,-0.6679694037020206,-0.7836704702641815
1761468506614713300,3.97571337890625,-1.5417793599009513,-0.41098640072792764,-0.85083897658661
1761468506624668400,3.98566845703125,-2.1032266634702683,-0.008767682214826345,-0.8377161679022014
1761468506636489500,3.997489501953125,-2.7657991765648124,0.5012231364920735,-0.7238856444522738
1761468506646444500,4.007444580078125,-3.1190684246003624,0.8729986398160458,-0.5875260399386286
1761468506656398600,4.017398681640625,-3.2175176929146048,1.1835272088862956,-0.4100824376255274
1761468506666353400,4.027353515625,-2.897075778725743,1.4520250008262694,-0.2742798459401354
1761468506676308500,4.03730859375,-2.185539035975933,1.5944326533325015,-0.19312095431853085
1761468506686263600,4.047263671875,-1.2646785747885703,1.59398300986886,-0.1412036104787141
1761468506696217600,4.057217529296875,-0.354147784435749,1.4842325953394173,-0.13156838818173855
1761468506706172400,4.06717236328125,0.4122878387153148,1.3139502629578113,-0.1597164051057771
1761468506716127500,4.07712744140625,1.0442349119216203,1.2008889703147112,-0.2251758424879983
1761468506726082600,4.08708251953125,1.5762410169512033,1.1257203320838511,-0.2529730366803706
1761468506736036600,4.09703662109375,1.9703630843788384,1.0420461697056889,-0.1857251449787989
1761468506745991400,4.106991455078125,2.198463399478793,1.0007643112465738,-0.11706987983048893
1761468506755946500,4.116946533203125,2.28963069409132,0.9720863521642983,-0.08759039510698058
1761468506765901600,4.126901611328125,2.2251661129653453,0.9844695945277809,-0.07218674547639675
1761468506775856400,4.1368564453125,2.0722300521820785,1.055442973025888,-0.09112347373710945
1761468506785810400,4.146810546875,1.8533751198112964,1.1238054383732379,-0.13171979761747643
1761468506795765500,4.156765625,1.6517290963947773,1.1528042999729513,-0.1460325284725055
1761468506805720600,4.166720458984375,1.4658055427670478,1.1003142342790961,-0.11416941828178241
1761468506815675400,4.17667529296875,1.2844523657947777,1.070052659267187,-0.10124008634286001
1761468506825629400,4.18662939453125,1.0832990943312644,1.0334593970157206,-0.12176946322303264
1761468506835584500,4.19658447265625,0.8707920696824789,1.0269579061672092,-0.11539784583188592
1761468506845539600,4.20653955078125,0.6242518425285816,1.0151046790271996,-0.08754815426729619
1761468506855494400,4.216494384765625,0.3226046451807022,0.9900137846514582,-0.07790690408833324
1761468506865448400,4.226448486328125,0.03660217621028423,0.9901515856869518,-0.034816754098236556
1761468506875403500,4.236403564453125,-0.1479571033269167,1.0360535051621496,0.10717892007362097
1761468506885358600,4.246358642578125,-0.2823977224767208,1.0509874549217522,0.24299166782684622
1761468506895313400,4.2563134765625,-0.4240139323443174,0.9850427182406186,0.3395067166754976
1761468506905267500,4.266267333984375,-0.5400894582420587,0.9065691932454705,0.3637553515408188
1761468506915222500,4.276222412109375,-0.6011363398790359,0.805475547902286,0.3269157133128494
1761468506925177600,4.286177490234375,-0.6421504873126744,0.6550175676703452,0.2525741735558957
1761468506935132400,4.29613232421875,-0.6683487584084272,0.5075972015686333,0.1948345167707652
1761468506945086500,4.30608642578125,-0.6371820512503386,0.3413879638448357,0.13733290652520955
1761468506955665400,4.31666552734375,-0.611339753985405,0.1844565498150885,0.09047017919383943
1761468506965619500,4.326619384765625,-0.5092489142984151,0.06829685276523233,0.016969766436144708
1761468506975574500,4.336574462890625,-0.35038989320695396,-0.05427811815440654,-0.03762618549577892
1761468506985529300,4.346529296875,-0.19949732095003128,-0.1798787205055356,-0.05899513673894107
1761468506995484400,4.356484375,-0.08660743935108184,-0.2878540881864726,-0.06474610148109496
1761468507005438500,4.3664384765625,-0.04581190310418606,-0.310285700225085,-0.06610416502654552
1761468507015393500,4.3763935546875,0.015613164195418357,-0.3054043579243123,-0.043715661477297545
1761468507025348400,4.386348388671875,0.09254267461895942,-0.2715127558469772,-0.017963965105265378
1761468507035303400,4.396303466796875,0.22546470589935777,-0.24302286668270826,0.03320471579171717
1761468507045258500,4.406258544921875,0.3625368425965309,-0.2715126097165048,0.05665288446173072
1761468507055212500,4.416212646484375,0.4785048164665699,-0.2866692623160779,-0.017703560603410006
1761468507065167400,4.42616748046875,0.58199383251369,-0.32996772129461166,-0.08954495410770177
1761468507075122400,4.436122314453125,0.6481149486750364,-0.41158378209918733,-0.13528941799886524
1761468507085077500,4.446077392578125,0.7431833423793316,-0.4617763845056295,-0.2229739119969308
1761468507095031600,4.456031494140625,0.839131441527605,-0.5090386325486004,-0.31855646576844154
1761468507104986400,4.465986328125,0.9004670769780874,-0.5539753602534532,-0.4245050768621266
1761468507114941400,4.47594140625,0.889988353061676,-0.6080863051474094,-0.5176665409665554
1761468507124896500,4.485896484375,0.7819248687058686,-0.6219498491965234,-0.5982753974899649
1761468507134850600,4.4958505859375,0.6551204435229301,-0.6159187523387372,-0.650117301473394
1761468507144805400,4.505805419921875,0.6024047523796559,-0.6081015027165413,-0.6778031077131629
1761468507154760400,4.515760498046875,0.6055372051864862,-0.5779217607691883,-0.6641533525452017
1761468507164715500,4.525715576171875,0.6348427946478128,-0.5645515531949699,-0.6506552077423781
1761468507174669600,4.535669677734375,0.5800754316717386,-0.5582870859727264,-0.6793374046083539
1761468507184624400,4.545624267578125,0.5042851544111967,-0.5870682131685316,-0.7147665184512734
1761468507194579500,4.555579345703125,0.3493956214725971,-0.579454523294419,-0.7513800928384066
1761468507204534500,4.565534423828125,0.15534955166578293,-0.5441181292362511,-0.7795325667418539
1761468507214488600,4.575488525390625,-0.03891571384966373,-0.5311244998894632,-0.8385794336680322
1761468507224443400,4.585443359375,-0.217752524086833,-0.503608424193412,-0.8650980958245694
1761468507234398500,4.5953984375,-0.41266543985605236,-0.499934411855787,-0.8429620326664298
1761468507244353500,4.605353515625,-0.708138917005062,-0.5447782005801797,-0.7753671176254748
1761468507254308400,4.615308349609375,-0.8469763098090887,-0.5260119791813195,-0.7445456437084823
1761468507264262400,4.625262451171875,-0.7445663211703301,-0.495912462863326,-0.6442932714950292
1761468507274217500,4.635217529296875,-0.6064502283781766,-0.471849304100126,-0.5233576652802526
1761468507284172500,4.645172607421875,-0.6161258192181587,-0.39159079538434743,-0.5412702655244618
1761468507294127400,4.65512744140625,-0.685921239978075,-0.3494591882281005,-0.6213778945274651
1761468507304081400,4.665081298828125,-0.6906868469446897,-0.3485362281642854,-0.7111324727978557
1761468507314036500,4.675036376953125,-0.7486024448186158,-0.37789062520340083,-0.7921792823471129
1761468507323991800,4.68499169921875,-0.8352759351432323,-0.30313202907815573,-0.9101035048514604
1761468507333946600,4.694946533203125,-0.9653098437666893,-0.2286370523251593,-0.9473009435411542
1761468507343900700,4.704900634765625,-1.1447083795398474,-0.0896605433113873,-0.929456586227566
1761468507353855700,4.714855712890625,-1.3367489547431468,0.12287132351770996,-0.8860190110392868
1761468507363810800,4.724810791015625,-1.5477748009234666,0.39680560742318627,-0.8131813730392604
1761468507373765600,4.734765625,-1.721952387177944,0.6843380624398588,-0.6643391574408859
1761468507383720700,4.744720703125,-1.7672317908406256,0.9792008603446185,-0.4876364366229623
1761468507393674800,4.7546748046875,-1.702299007681012,1.2238973593279718,-0.34235176737569273
1761468507403629800,4.7646298828125,-1.5182868406325578,1.4223822883650659,-0.2504720136448741
1761468507413584600,4.774584716796875,-1.2277256854444742,1.592578988289833,-0.175028942386806
1761468507423539700,4.784539794921875,-0.8923609274119139,1.6903170395947993,-0.10972864108905196
1761468507433493800,4.79449365234375,-0.49718905867040153,1.7249699814334511,-0.08965820522382854
1761468507443448800,4.80444873046875,-0.03636544484496117,1.700237983497977,-0.11601816968731582
1761468507453403600,4.814403564453125,0.4642646941900253,1.6291756115421652,-0.1434570884939283
1761468507463358700,4.824358642578125,0.9313882849425077,1.556201853007078,-0.20445081517156213
1761468507473312800,4.834312744140625,1.3484189342707396,1.4597589560791848,-0.3041078153077513
1761468507483267800,4.844267822265625,1.7112597282499074,1.3604812741167842,-0.45155499635115265
1761468507493222700,4.85422265625,1.9459458514809607,1.2316489963680506,-0.6579198649831116
1761468507503177700,4.864177734375,1.9858184276640414,1.0710432777397334,-0.8957355184115469
1761468507513131800,4.8741318359375,1.920849988669157,0.9587823416940867,-1.1560745538152755
1761468507523086800,4.8840869140625,1.8407114530712365,0.8451496789038181,-1.2994370228283108
1761468507533041700,4.894041748046875,1.7288778025269507,0.7604594713509082,-1.3129147824302314
1761468507542996700,4.903996826171875,1.5965747799277306,0.7085935289047658,-1.2506360209107399
1761468507552950800,4.91395068359375,1.38748954642117,0.6965364497557281,-1.0863608930546789
1761468507562905900,4.92390576171875,1.0704682543307542,0.7562269483476877,-0.9046792147804051
1761468507572860700,4.933860595703125,0.7838532064199447,0.8056598184280097,-0.7553699661921709
1761468507582815700,4.943815673828125,0.4870522800594568,0.7724021303400397,-0.6161416743744165
1761468507592770800,4.953770751953125,0.22307985658943652,0.6445140015736222,-0.4669913426749408
1761468507602724900,4.963724853515625,0.02417465631365776,0.5000991008982062,-0.3371091174818575
1761468507612679700,4.9736796875,-0.08402619068622588,0.32361484513655303,-0.2563944624964148
1761468507622634800,4.983634765625,-0.13160159633159638,0.11812617481723427,-0.1885110859028995
1761468507632589800,4.99358984375,-0.19040157582461834,-0.10516600934863089,-0.13897205203436314
1761468507642543900,5.0035439453125,-0.20455226625204084,-0.29835473167374726,-0.14634601486846804
1761468507652498700,5.013498779296875,-0.18963468310534953,-0.462537285875529,-0.12642952745594083
1761468507662453800,5.023453857421875,-0.1266986267209053,-0.6074947689950466,-0.09721738843172788
1761468507672408800,5.033408935546875,0.0004196867167949676,-0.7682133003480732,-0.05912482753321528
1761468507682363000,5.04336279296875,0.14196283134818077,-0.9387766416281461,0.008818097227811813
1761468507692317700,5.053317626953125,0.2653910580962896,-1.0809985623039304,0.045837622067332266
1761468507702272800,5.063272705078125,0.3434919503867626,-1.1862515192836522,0.04483582461364567
1761468507712227800,5.073227783203125,0.4242506637096405,-1.2798726367890834,0.04649849712885916
1761468507722182000,5.083181884765625,0.509293922483921,-1.3503434725925325,0.057915963200107216
1761468507732136700,5.09313671875,0.5596908152908087,-1.4013811475209892,0.036712723912671205
1761468507742091800,5.103091796875,0.6393722547709941,-1.452601193279028,0.059014864352717994
1761468507752046800,5.113046875,0.6776783122897148,-1.4660525032654403,0.05668729818798601
1761468507762001000,5.1230009765625,0.6573316898316145,-1.4391175884582101,0.05184658015854656
1761468507771955700,5.132955810546875,0.5517594377696514,-1.4338976618528365,0.07942717245817184
1761468507781910800,5.142910888671875,0.4589700949132442,-1.441398685132712,0.07090911762285977
1761468507791865900,5.152865966796875,0.3912538185149431,-1.4424594462320208,0.055261649299040434
1761468507801820700,5.162820556640625,0.38362814594209194,-1.4846668951034545,0.04166183422002941
1761468507811774700,5.172774658203125,0.39419279457628725,-1.529935192850232,-0.01413129160720855
1761468507821729500,5.1827294921875,0.38255028757750986,-1.6132082270815968,-0.03656900459304452
1761468507831684900,5.192684814453125,0.3713204530328512,-1.6654957559406756,-0.11480780751686542
1761468507841639700,5.2026396484375,0.3358364671975374,-1.6713912437200544,-0.229945248846896
1761468507851593700,5.21259375,0.18206454011201859,-1.7011444308184087,-0.35156547632496804
1761468507861548500,5.222548583984375,0.0016220482438802717,-1.7077913214869795,-0.5386249021148308
1761468507871504000,5.23250390625,-0.25709435439407824,-1.7103161637894808,-0.6994988066926598
1761468507881458700,5.242458740234375,-0.5289876339912414,-1.6957361420340835,-0.8172668157219887
1761468507891412700,5.252412841796875,-0.7862661127805709,-1.6324096250273286,-0.8917722408037633
1761468507901367600,5.262367431640625,-1.0384282714694737,-1.5648992464646696,-0.9367742888297885
1761468507911323000,5.272322998046875,-1.1727946563392877,-1.4683631182953714,-1.0055749994639307
1761468507921277700,5.282277587890625,-1.1826339133083819,-1.3421584125712513,-1.042248560409993
1761468507931231700,5.292231689453125,-1.0787935996055602,-1.2499627978242933,-1.0198744507122783
1761468507941186600,5.3021865234375,-1.0079396097034214,-1.1849703934319316,-0.9486667520016431
1761468507951142000,5.312141845703125,-1.0114286208629608,-1.1297986874386667,-0.8476161420825868
1761468507961096700,5.3220966796875,-1.0459095671355725,-1.089091852388531,-0.697008743442595
1761468507971050800,5.33205078125,-1.0670797809362411,-1.0843301909446716,-0.5407970585221424
1761468507981005600,5.342005615234375,-1.078017939057946,-1.052364296232909,-0.42480314649324863
1761468507990961000,5.3519609375,-1.1369067658782004,-0.9628232876479625,-0.4519354470361024
1761468508000915700,5.361915771484375,-1.4941338116288185,-0.8147071943670511,-0.6733044080544263
1761468508010869800,5.371869873046875,-2.191751334619522,-0.5465177377238869,-0.9248162130758166
1761468508020824600,5.381824462890625,-3.0379940694570537,-0.19845774876922367,-1.1555074214518068
1761468508030780000,5.39177978515625,-3.8796401241540908,0.2778672394402325,-1.401335993205011
1761468508040734700,5.401734619140625,-4.442678496307134,0.8282441368103027,-1.4588815887227653
1761468508050689800,5.411689697265625,-4.559805577084422,1.2633628160148858,-1.3222419982239604
1761468508060643600,5.4216435546875,-4.017378615805506,1.6471398689083754,-1.0234916913613676
1761468508070599000,5.431598876953125,-2.869903109639883,1.8792463509097694,-0.6242282424572855
1761468508080553700,5.4415537109375,-1.5632447572559118,2.0017412423305214,-0.31577867161817846
1761468508090508800,5.4515087890625,-0.31476445307433604,2.028759159246087,-0.10737550209164619
1761468508100462600,5.461462646484375,0.7580255222022533,1.9430261646419762,0.10847301500476896
1761468508110418000,5.47141796875,1.5927069985836744,1.8629362904913722,0.3163647278778255
1761468508120372700,5.481372802734375,2.205714978042245,1.8185137959189712,0.4575906963188201
1761468508130327800,5.491327880859375,2.695131649145484,1.7437391254417598,0.5576565695168451
1761468508140281600,5.501281494140625,3.140978058591485,1.628583636998385,0.482066929394938
1761468508150237000,5.51123681640625,3.352046574869752,1.5720583244390784,0.37454018226433544
1761468508160191700,5.521191650390625,3.288371098294854,1.4471274380430579,0.16501144277397542
1761468508170146800,5.531146728515625,3.093345954322815,1.373741007053852,-0.12505995613578708
1761468508180100600,5.5411005859375,2.827738623127341,1.3361863524243234,-0.3296768851218745
1761468508190056000,5.551055908203125,2.635000128787756,1.3379413793981074,-0.3900257380247116
1761468508200010800,5.5610107421875,2.355901447856426,1.3526594944499433,-0.4037222914764657
1761468508209965800,5.5709658203125,1.9857249041616916,1.3945738055936991,-0.4179033039769158
1761468508219919600,5.580919677734375,1.6497890682429075,1.4319387828700243,-0.39737661224417387
1761468508229875000,5.590875,1.340359546455741,1.4080065570101141,-0.29797844570726156
1761468508239829800,5.600829833984375,0.9370429497033357,1.3550145331434904,-0.15965404392667112
1761468508249784800,5.610784912109375,0.5373737695425749,1.3360529353030026,-0.062478229614347215
1761468508259738600,5.620738525390625,0.18770576086938381,1.2561352028489112,0.005542728818953037
1761468508269694000,5.63069384765625,-0.09292202932536602,1.1366627279892563,0.031478622651472686
1761468508279648800,5.640648681640625,-0.27682313721477986,1.019173535901308,-0.039142216081917286
1761468508289603600,5.650603515625,-0.3371469652742147,0.8663935424625873,-0.12294336584061384
1761468508299557600,5.6605576171875,-0.3839502175033092,0.6435238214924931,-0.20470504566095768
1761468508309513000,5.670512939453125,-0.4501911606520414,0.4376055275842547,-0.28491372388564046
1761468508319467800,5.6804677734375,-0.5750859528213739,0.3029688013404608,-0.39234241746924814
1761468508329421800,5.690421875,-0.7573363708943128,0.2075391731083393,-0.4849792731776833
1761468508339377000,5.700376953125,-0.9336141442984343,0.15997092785611747,-0.5697539441436529
1761468508349331000,5.7103310546875,-1.0181284107625483,0.1247922085776925,-0.646786038158834
1761468508359285800,5.72028564453125,-0.949025063920021,0.053003422043472526,-0.7005958812143653
1761468508369240800,5.73024072265625,-0.7127408578425646,-0.05690101400390267,-0.7169877746973187
1761468508379196000,5.74019580078125,-0.33747429753243924,-0.1995043352127075,-0.6925127471975981
1761468508389150000,5.75014990234375,0.12044015084803103,-0.37230230367705225,-0.6793154119722544
1761468508399104800,5.760104736328125,0.5485042353659868,-0.5212297133408487,-0.7081802719287574
1761468508409059800,5.770059814453125,1.0463058729767798,-0.6459887503013014,-0.656397843047604
1761468508419015000,5.780014892578125,1.484932852563262,-0.7581205070093273,-0.6117000386651605
1761468508428969000,5.789968994140625,1.8477134407877922,-0.8482609427921474,-0.5775189521219581
1761468508438923800,5.799923828125,2.159072469332814,-0.9116150784581899,-0.5426031215634197
1761468508448878800,5.80987890625,2.417709376993775,-0.9881832082234322,-0.4132845946677029
1761468508458834000,5.819833984375,2.498541740074754,-1.0688945752732455,-0.28176081281267107
1761468508468788000,5.8297880859375,2.4168267489403483,-1.1106307533711195,-0.19744506459534167
1761468508478742800,5.83974267578125,2.2615917635649443,-1.1554290955185889,-0.17547675921954214
1761468508488697900,5.84969775390625,2.044143190860748,-1.14183560058251,-0.12958726083450017
1761468508498653000,5.85965283203125,1.7423329119056463,-1.1445469053678214,-0.09520517182648182
1761468508508607000,5.86960693359375,1.371324009039998,-1.1512177614338694,-0.0873679023295641
1761468508518561800,5.879561767578125,0.9617027591854334,-1.1463994013667107,-0.09802329798713326
1761468508528516900,5.889516845703125,0.5569511611938476,-1.143348635493964,-0.09645371058285236
1761468508538472000,5.899471923828125,0.1473725814372301,-1.1227081446558236,-0.123383218562603
1761468508548426000,5.909426025390625,-0.293820449244976,-1.10212961313799,-0.12625468234568835
1761468508558380800,5.919380859375,-0.7747147911965847,-1.0772836334340274,-0.12281506328582763
1761468508568336000,5.9293359375,-1.17329383803308,-1.003007706259191,-0.15948460564389824
1761468508578291000,5.939291015625,-1.5061708709031343,-0.9578790361788123,-0.18988551606126128
1761468508588245000,5.949244873046875,-1.816623890519142,-0.9321829424515367,-0.24733853792473673
1761468508598199800,5.95919970703125,-2.0900024402379986,-0.9514010723363607,-0.3152210377354175
1761468508608155000,5.96915478515625,-2.274251338651776,-0.9286479001931846,-0.35403109925352033
1761468508618110000,5.97910986328125,-2.3237667724490163,-0.9022631666146218,-0.39854024919606745
1761468508628064000,5.98906396484375,-2.24643628000915,-0.9251721869066357,-0.4572484587524086
1761468508638018800,5.999018798828125,-2.0855086359500885,-0.9371752708461135,-0.48053807585984465
1761468508647974000,6.008973876953125,-1.8613713792622089,-0.9134782419815659,-0.48840559436455366
1761468508657929000,6.018928955078125,-1.658305552175641,-0.8974116349302231,-0.422778618395701
1761468508667883000,6.028883056640625,-1.4029232623964547,-0.8851849713679403,-0.22031820985637604
1761468508677837800,6.038837890625,-1.109080016797781,-0.8549308490101247,-0.10390724145919084
1761468508687793000,6.04879296875,-0.9308283129721879,-0.7966423992358148,-0.05447532122693956
1761468508697748000,6.058748046875,-1.0100497337251901,-0.7936658676430582,-0.08337883269339799
1761468508707702000,6.068701904296875,-1.3560410997122525,-0.7738676728479563,-0.25659488043934103
1761468508717656800,6.07865673828125,-1.765405159935355,-0.7100549797594546,-0.48116650995649396
1761468508727612000,6.08861181640625,-2.079098768907785,-0.5631463625721633,-0.598565831803903
1761468508737567000,6.09856689453125,-2.319198733881116,-0.43812911306694147,-0.6510754789810628
1761468508747521800,6.108521728515625,-2.6011644946813584,-0.22571283544152973,-0.681925302209705
1761468508757475800,6.118475830078125,-2.8840497084140777,0.020548720901459455,-0.7181928396381437
1761468508767430700,6.1284306640625,-2.9929215865433214,0.3085970164857805,-0.6774126470908522
1761468508777386000,6.138385986328125,-2.904759903487563,0.6404454369604587,-0.5244454605169594
1761468508787340800,6.1483408203125,-2.493565120705962,0.9479439906850456,-0.24159955588132143
1761468508797294800,6.158294921875,-1.9456138430476186,1.1827217377223074,0.045093379571288825
1761468508807249700,6.168249755859375,-1.3188105624705553,1.4134981401637197,0.23751645128615198
1761468508817205000,6.178205078125,-0.608642769986391,1.5208460235960781,0.42184097221940753
1761468508827159800,6.188159912109375,0.13623276326358316,1.522718539469689,0.5677785524174571
1761468508837113900,6.19811376953125,0.7956716545075178,1.5285406697519122,0.6310997356619685
1761468508847068700,6.208068603515625,1.3586094888955353,1.5158186969533562,0.645972310623154
1761468508857023700,6.218023681640625,1.815999036619067,1.4601378723941743,0.5787947442114353
1761468508866978800,6.227978759765625,2.1930799528747795,1.3841221158146857,0.4492346636448055
1761468508876932900,6.237932861328125,2.4607792879134416,1.2568711159080266,0.2846227050498128
1761468508886887700,6.2478876953125,2.5967852566838263,1.1316833321414888,0.14717325947284698
1761468508896842800,6.2578427734375,2.5354034440040585,1.0606804352879524,0.03118073568344116
1761468508906797800,6.2677978515625,2.356705749976635,0.979872329865396,-0.11562098706327378
1761468508916752000,6.277751953125,2.092844970187545,0.9105416040077805,-0.246164452644065
1761468508926706700,6.287706787109375,1.7640104907065628,0.8963533580489456,-0.31815270727314054
1761468508936661800,6.297661865234375,1.3836135817706585,0.8843950630992651,-0.3430215563960373
1761468508946616800,6.307616943359375,0.9532353750914335,0.9246725668214261,-0.33884646266847845
1761468508956571000,6.31757080078125,0.5466828651577234,0.992888171043992,-0.2972743890911341
1761468508966525700,6.327525634765625,0.2092991685181856,1.0757001636348664,-0.20958324615657328
1761468508976480800,6.337480712890625,-0.14355974515080452,1.1206231550753116,-0.12936360814645886
1761468508986435800,6.347435791015625,-0.5276935025274754,1.15173433265388,-0.0954683528073132
1761468508996390000,6.357389892578125,-0.8758400007218122,1.1407165334247051,-0.13377309515178204
1761468509006344700,6.3673447265625,-1.0786953999280928,1.069003880866617,-0.1887169837385416
1761468509016299800,6.3772998046875,-1.1985112813979386,1.002571068407595,-0.21676044430956243
1761468509026254800,6.3872548828125,-1.2613596594989298,0.9117069945253431,-0.318960735720396
1761468509036209000,6.397208984375,-1.2000713703215122,0.7860565616831183,-0.39304201710596676
1761468509046163700,6.407163818359375,-0.8764023107796907,0.6454395919859409,-0.4190237228415906
1761468509056118800,6.417118896484375,-0.28844343238174913,0.4210670652374625,-0.39966099685430523
1761468509066073900,6.427073974609375,0.3309060250580311,0.13659282874763012,-0.325840850622952
1761468509076028000,6.43702783203125,0.8789239382117986,-0.0464710976652801,-0.3438554499369114
1761468509085982700,6.446982666015625,1.279696111178398,-0.2520129594765603,-0.3200568603940308
1761468509095937800,6.456937744140625,1.538730493724346,-0.4547917863152921,-0.281732025109604
1761468509105892900,6.466892822265625,1.668872538897395,-0.5478180066674947,-0.25411490019187327
1761468509115847000,6.476846923828125,1.7432611326664684,-0.6379511359266936,-0.23716113504245875
1761468509125801700,6.4868017578125,1.8124843064963816,-0.7220220425374806,-0.2509744102090597
1761468509135756800,6.4967568359375,1.887832100686431,-0.7710603603422641,-0.26301687631085513
1761468509145711900,6.5067119140625,1.925969231379032,-0.8532162271119653,-0.31962979408837855
1761468509155666000,6.516666015625,1.9357348385900257,-0.9564400163516402,-0.3861048382539302
1761468509165620700,6.526620849609375,1.8618109397232532,-1.076967114830762,-0.4427480050392449
1761468509175575800,6.536575927734375,1.6969330967336893,-1.1800986957423387,-0.4971078101277351
1761468509185531000,6.54653076171875,1.5042916330277918,-1.2405470269642769,-0.5499021925304085
1761468509195486000,6.55648583984375,1.2284300343215464,-1.2716938603781163,-0.5619219353437424
1761468509205439700,6.566439697265625,0.8201286348938941,-1.2852765416592358,-0.5901457939829677
1761468509215394800,6.576394775390625,0.38109073641896246,-1.257915802655369,-0.5875927484992891
1761468509225350000,6.586349853515625,0.05777180548906326,-1.2033623746909201,-0.5700868293598294
1761468509235304000,6.596303955078125,-0.15437632271945476,-1.1111261356726287,-0.5449604983445256
1761468509245258800,6.6062587890625,-0.34364801773130893,-1.0188530717752873,-0.525997950655967
1761468509255213800,6.6162138671875,-0.5275128852635622,-0.9434212525635958,-0.5155741717971861
1761468509265169000,6.6261689453125,-0.6942454162091016,-0.8545406075835228,-0.5178459891866892
1761468509275123000,6.636123046875,-0.9317407516419887,-0.757345430983603,-0.47829102758541703
1761468509285077800,6.646077880859375,-1.2617203095048666,-0.6932324397742747,-0.4058574403416365
1761468509295032800,6.65603271484375,-1.5078373428106306,-0.6395264224193989,-0.36866445863135155
1761468509304988000,6.66598779296875,-1.5923428414463996,-0.6331739846527576,-0.3087318949118256
1761468509314942700,6.675942626953125,-1.5508897180736063,-0.8035251444868743,-0.1259491965930909
1761468509324897500,6.6858974609375,-1.3817887044310568,-0.9643388067774474,-0.039937019721418617
1761468509334852600,6.6958525390625,-1.0903659639775753,-0.9862630538158118,-0.05504479167796671
1761468509344807700,6.7058076171875,-0.9063432755351066,-0.895398687672615,-0.07615392294116317
1761468509354762500,6.715762451171875,-1.175179505649209,-0.7696120612300932,-0.1683826362401247
1761468509364716500,6.725716552734375,-1.8898545464247465,-0.627169775801897,-0.3676639763519168
1761468509374671600,6.735671630859375,-2.6360616205394267,-0.3496681548036635,-0.5330501341897994
1761468509384626700,6.745626708984375,-3.2034418212890623,-0.08251242512241005,-0.6395044297832996
1761468509394581500,6.75558154296875,-3.589250818401575,0.1986205381155014,-0.6763266054198146
1761468509404535600,6.76553564453125,-3.7300948748528957,0.5328413868099451,-0.6860845407810062
1761468509414490600,6.77549072265625,-3.3952462496489284,0.8087137991711497,-0.5738049731001258
1761468509424445700,6.78544580078125,-2.498945060178637,0.9964864877969026,-0.3433623326577246
1761468509434400500,6.795400390625,-1.504896028661728,1.0624376542188227,-0.1377498898282647
1761468509444354600,6.8053544921875,-0.5061556244581937,1.100058798213303,0.007245806409791111
1761468509454309600,6.8153095703125,0.3753378719806671,1.0725038518115877,0.13394604056589304
1761468509464264700,6.8252646484375,1.0641460655719042,1.0529761445209382,0.2448709787674248
1761468509474219500,6.835219482421875,1.6598726553618908,1.026643871781975,0.32783005167879165
1761468509484173600,6.845173583984375,2.1249270386248824,1.0152676145039499,0.3808677778506651
1761468509494128400,6.85512841796875,2.4617934333920477,0.9759687465555965,0.4302738329892978
1761468509504083700,6.865083740234375,2.637736860275268,0.9739804953478276,0.5116654008556157
1761468509514038500,6.87503857421875,2.669032162249088,1.0265800127655267,0.5893994691276923
1761468509523992600,6.88499267578125,2.502153500831127,1.105270541512221,0.5835320018664002
1761468509533947400,6.894947509765625,2.0749901645451785,1.1572180247619748,0.5096205606224015
1761468509543902700,6.90490283203125,1.5722808811485767,1.2430220387756823,0.4033244877979159
1761468509553857500,6.914857421875,1.1594587894260882,1.3031265249960124,0.38342970076054333
1761468509563811600,6.9248115234375,0.8450666767954826,1.31427905652076,0.3359532254450023
1761468509573766400,6.934766357421875,0.6976531788259744,1.3510335006833076,0.35227198062650855
1761468509583721700,6.9447216796875,0.7456324890971183,1.3598910531386732,0.5065758956968784
1761468509593676500,6.954676513671875,0.9221604378700256,1.342208535323292,0.6733414521291852
1761468509603630600,6.964630615234375,1.02383217536211,1.2485384641095996,0.7548479881446808
1761468509613585400,6.97458544921875,1.091041671282053,1.1664894187152386,0.7978774209234863
1761468509623540700,6.984540771484375,1.1275649370372294,1.0778836451537908,0.8529458126727492
1761468509633495600,6.99449560546875,1.083617074239254,0.9695974579580128,0.8421453825213014
1761468509643449600,7.00444970703125,0.9317313992917537,0.8670001300536095,0.775442374818772
1761468509653404400,7.014404296875,0.6359919646829366,0.8000695972055196,0.7215064211655408
1761468509663359700,7.02435986328125,0.23771803827285765,0.7248365154363214,0.609229849159345
1761468509673314600,7.034314453125,-0.13678513644933699,0.6316277781240641,0.4866084818147123
1761468509683268600,7.0442685546875,-0.4714730181336403,0.5277534160211682,0.30957630984671414
1761468509693223400,7.054223388671875,-0.6726929250925779,0.43814109576568006,0.10562449370585382
1761468509703178800,7.0641787109375,-0.6254758313655853,0.33441914774551984,0.030076646899059412
1761468509713133600,7.074133544921875,-0.32540216694474217,0.19994214210808275,0.027632103291153905
1761468509723087600,7.084087646484375,-0.03256546804010868,0.013393588449805973,0.028859014737606048
1761468509733042400,7.09404248046875,0.13651158020496368,-0.15598039691522717,-0.008998349165543913
1761468509742997800,7.103997802734375,0.27377193295061586,-0.2434679801017046,-0.07667780068479478
1761468509752952600,7.11395263671875,0.32285598959326745,-0.32284722176492214,-0.055726125005632635
1761468509762906600,7.12390673828125,0.36098376793563364,-0.38122093866989015,-0.009872282455861569
1761468509772861400,7.133861328125,0.4760901565402746,-0.3819356628105044,0.029839696338027712
1761468509782816800,7.143816650390625,0.6271013867408037,-0.4252105947829783,0.0690554891128093
1761468509792771600,7.153771484375,0.7650842085421085,-0.4986151459507644,0.032623920229077334
1761468509802725600,7.1637255859375,0.8221656936794519,-0.6081327746376395,-0.04122961681522429
1761468509812680400,7.173680419921875,0.8207786232352257,-0.7042775654017925,-0.16486827144362032
1761468509822635800,7.1836357421875,0.7742606176882981,-0.763019823358208,-0.27983072153292593
1761468509832590600,7.193590576171875,0.6533803218573332,-0.8234919738471508,-0.3587281710285693
1761468509842544600,7.203544677734375,0.43426001654863355,-0.9276831468142569,-0.4011534273691475
1761468509852499500,7.21349951171875,0.1911211222708225,-0.9575360679600388,-0.47633901673480866
1761468509862454500,7.22345458984375,-0.02297814000546932,-0.9580004706013947,-0.5102281345941126
1761468509872409600,7.23340966796875,-0.24412381366193292,-0.9879923618264496,-0.49266727039702235
1761468509882363600,7.24336376953125,-0.5461982965111732,-0.9954276263937354,-0.49019255084656177
1761468509892318500,7.253318359375,-0.8513239836245775,-0.8980578969445079,-0.49102403323464094
1761468509902273500,7.2632734375,-1.0463052884548902,-0.7922980133559554,-0.4403393364623189
1761468509912228600,7.273228515625,-1.1310983718603849,-0.7437727596398442,-0.3728326111614704
1761468509922182700,7.2831826171875,-1.144388061544299,-0.7630312215350568,-0.3643602586314082
1761468509932137500,7.293137451171875,-1.1802198379039763,-0.8133379518404602,-0.4399970258306712
1761468509942092500,7.303092529296875,-1.2098913380682468,-0.8459173753406852,-0.5783969040002673
1761468509952047600,7.313047607421875,-1.2122387779772281,-0.9197555686853826,-0.7083011948946863
1761468509962001700,7.323001708984375,-1.2480635400742293,-0.9405735349822789,-0.8248431692603975
1761468509971956500,7.33295654296875,-1.236571839722991,-0.8847188882261514,-0.8263795850474387
1761468509981911600,7.34291162109375,-1.1730378174453973,-0.8259829869452864,-0.7449208336964249
1761468509991866600,7.35286669921875,-1.0623106668382882,-0.7554852631349116,-0.5787904333624988
1761468510001820700,7.362820556640625,-0.9523246899873018,-0.706244554625824,-0.38857422404214736
1761468510011775500,7.372775390625,-0.7550748557031154,-0.7386917300485074,-0.17239618273042143
1761468510021730600,7.38273046875,-0.4980412915855646,-0.7545644219629466,-0.0531646039545536
1761468510031685600,7.392685546875,-0.26432781277894973,-0.7700061751142143,-0.03774250535182655
1761468510041639700,7.4026396484375,-0.2025537859112024,-0.8614407423608005,-0.1137503708858043
1761468510051594500,7.412594482421875,-0.24507775338590143,-0.9369367128498852,-0.31155338207334277
1761468510061549600,7.422549560546875,-0.4612690195053816,-0.9451851934961975,-0.5533819974701851
1761468510071504600,7.432504638671875,-0.7728273700147866,-0.9073378395304084,-0.7312487936314195
1761468510081458700,7.442458740234375,-1.2622048781514168,-0.7547498615324497,-0.8217444725926965
1761468510091413500,7.45241357421875,-1.7940081540852784,-0.4987520702034235,-0.8070228504095226
1761468510101368600,7.46236865234375,-2.189095267152786,-0.15252791837379334,-0.6767788061667234
1761468510111323600,7.47232373046875,-2.375672316253185,0.1913924865581095,-0.4064301256630569
1761468510121278500,7.482278564453125,-2.31948924126029,0.5199576475784182,-0.06849354438111185
1761468510131232500,7.492232421875,-1.9956617762863635,0.7695379730805754,0.28315226717106995
1761468510141187600,7.5021875,-1.498789528480172,1.0016668130442499,0.5156675491690635
1761468510151142700,7.512142578125,-0.9429039506912231,1.2193066705368458,0.6597629355665295
1761468510161097500,7.522097412109375,-0.3985176720380783,1.3416650760963558,0.7236158145349473
1761468510171051500,7.532051513671875,0.1078285065561533,1.4066811536252497,0.7111716357644647
1761468510181006600,7.542006591796875,0.5365384877622127,1.4441579207129775,0.6192946585126221
1761468510190961700,7.551961669921875,0.8623305308073759,1.427320621550083,0.5345435876179486
1761468510200916500,7.56191650390625,1.1630693811386823,1.4213229885704814,0.4711073996916413
1761468510210870500,7.57187060546875,1.3671359097003937,1.3987252261847256,0.3912957579605281
1761468510220825600,7.58182568359375,1.4156483039349317,1.4189780328795314,0.2162114321246743
1761468510230780700,7.59178076171875,1.3593009782910346,1.4652674903675913,0.06583930354528128
1761468510240735500,7.601735595703125,1.2801666512995957,1.4671074191458522,-0.04038688238076865
1761468510250689500,7.611689453125,1.192158697500825,1.4643601662643253,-0.13608371018171309
1761468510260644600,7.62164453125,1.129768000039458,1.453424346230179,-0.2403059358742088
1761468510270599700,7.631599609375,1.0845043784677981,1.393811589049548,-0.2684464270789176
1761468510280554500,7.641554443359375,1.0820897185415028,1.3432048528842626,-0.2613607066016644
1761468510290508500,7.651508544921875,1.0487573577821254,1.2493658548444508,-0.26865327476263046
1761468510300463600,7.661463623046875,0.9945902987867593,1.150262068144232,-0.3233606511797756
1761468510310418700,7.671418701171875,0.9350462229281663,1.0695718900129199,-0.3746864953998476
1761468510320373500,7.68137353515625,0.872350989562273,0.9830271406345069,-0.3169881204731762
1761468510330327000,7.6913271484375,0.8200579077452421,0.9115724083602428,-0.23511275114528835
1761468510340282000,7.7012822265625,0.8023965788483619,0.788633572564274,-0.12836115310564636
1761468510350237200,7.7112373046875,0.8167191187113523,0.6680376466326415,-0.051974663517624135
1761468510360192000,7.72119189453125,0.8133505190610885,0.5302675907991826,0.058186669900268315
1761468510370146000,7.73114599609375,0.8364666062325239,0.37734804275929923,0.13158712941482661
1761468510380101000,7.74110107421875,0.7823492315977811,0.21255407866090534,0.15742087804712354
1761468510390056200,7.75105615234375,0.6380325305998324,0.004882657475024461,0.1607102749813348
1761468510400011000,7.761010986328125,0.52969899713099,-0.21720862646847963,0.043833004246652124
1761468510409965000,7.770965087890625,0.45614100896716114,-0.44853740209564563,-0.03440123209990561
1761468510419920100,7.780920166015625,0.4120809179663658,-0.6529689645774662,0.00777742906846106
1761468510429875200,7.790875244140625,0.345255452927947,-0.7773354950889945,0.02625745393708348
1761468510439830000,7.800830078125,0.28659049799144265,-0.8865447884790599,0.06215791161879897
1761468510449784000,7.8107841796875,0.29290508796572684,-1.0026612309090792,0.09515051902979611
1761468510459739100,7.8207392578125,0.3767342947751283,-1.1379103899627923,0.059931394675746555
1761468510469694200,7.830694091796875,0.4351566731274128,-1.3250856972172855,0.025123262275382877
1761468510479649000,7.84064892578125,0.4300608112931251,-1.4072775120832026,-0.0006753419782966375
1761468510489603000,7.85060302734375,0.3242582576066255,-1.4514488083735106,-0.012836027632281184
1761468510499558100,7.86055810546875,0.08412088323235511,-1.5488047284930944,-0.08483867611289024
1761468510509513200,7.87051318359375,-0.1079676227658987,-1.5662174894563854,-0.24143033679425716
1761468510519468000,7.880468017578125,-0.23450258335769175,-1.506386705610901,-0.33165041368454695
1761468510529422000,7.890422119140625,-0.3465425701290369,-1.4604244342505932,-0.3275343566678464
1761468510539377200,7.900377197265625,-0.3854489316284656,-1.413898537658155,-0.3084629417773336
1761468510549332200,7.910332275390625,-0.42609892192482945,-1.3816177317783236,-0.2955715306960046
1761468510559287000,7.920287109375,-0.44822833614647384,-1.3262757837846875,-0.27409984973073004
1761468510569241000,7.930240966796875,-0.5383037438690662,-1.2875026932761073,-0.2538698393896222
1761468510579196200,7.940196044921875,-0.6204577109426259,-1.2169131995290516,-0.31673721445202824
1761468510589151200,7.950151123046875,-0.6239519827991724,-1.176216155220568,-0.3490250345945358
1761468510599106000,7.96010595703125,-0.5307277556568384,-1.1489240975387394,-0.36194296835660933
1761468510609060000,7.97006005859375,-0.400455946624279,-1.1669810016244648,-0.381018840226531
1761468510619015200,7.98001513671875,-0.2815074956387281,-1.141664043407887,-0.387922189874202
1761468510628970200,7.98997021484375,-0.2651303613334894,-1.0694143613636493,-0.3982429467499256
1761468510648256000,8.009256103515625,-0.3572650396734476,-0.9303913828596472,-0.4047989442646503
1761468510658211300,8.01921142578125,-0.49472588342726226,-0.8293342701345682,-0.39217414823025465
1761468510668165000,8.0291650390625,-0.5582108058661223,-0.7782616700232029,-0.3472334019374102
1761468510678120200,8.0391201171875,-0.6371522406339645,-0.8057233851835132,-0.16845716278105974
1761468510688075000,8.049074951171875,-0.5947364097088575,-0.8320712938830256,-0.007294102530926465
1761468510698030300,8.0590302734375,-0.4626952529162168,-0.7469305660836398,0.012027706924080847
1761468510707984100,8.068984130859375,-0.5530383716642856,-0.5969590541943908,-0.0801546099498868
1761468510717939200,8.078939208984375,-1.1577180832386016,-0.40068025689944625,-0.22164704730734228
1761468510727894000,8.08889404296875,-1.9733026449620723,-0.05053893162608147,-0.33684542504437265
1761468510737849300,8.098849365234376,-2.7803572787493467,0.304108765155822,-0.431460229762271
1761468510747803100,8.10880322265625,-3.4975802504420277,0.6219980722524225,-0.5573158297877758
1761468510757758200,8.11875830078125,-3.9270863504618405,1.0075566017352044,-0.7505977833542973
1761468510767713000,8.128713134765626,-3.925518078231811,1.3350117556869983,-0.8898746635541319
1761468510777668400,8.13866845703125,-3.335202992096543,1.5273419614866375,-0.7826835781186818
1761468510787622100,8.1486220703125,-2.2003478980511426,1.6334188020698726,-0.5923070636700839
1761468510797577200,8.1585771484375,-1.0128273817449807,1.6335050190486013,-0.4220462855331599
1761468510807532000,8.168531982421875,0.08458966978788375,1.5644354283452033,-0.22330749133285133
1761468510817487400,8.1784873046875,0.9627093058794737,1.4536374044589697,-0.05979563946686685
1761468510827441200,8.188441162109376,1.6083376984357833,1.3486265856720507,0.1274049483593553
1761468510837396200,8.198396240234375,2.0805513058036564,1.3191717969983816,0.2570677586480975
1761468510847351000,8.20835107421875,2.420689854109287,1.3044590887740253,0.3301487769499421
1761468510857306400,8.218306396484374,2.618552267333865,1.2662611678048967,0.43062403466645627
1761468510867260200,8.22826025390625,2.6416554950237274,1.260466510051489,0.48574163585230706
1761468510877215200,8.23821533203125,2.5149165362924335,1.2247026843614877,0.40950387055259196
1761468510887170000,8.248170166015624,2.243418978014588,1.1687050489380955,0.2908553888943046
1761468510897125000,8.258125,1.955064977481961,1.1636736306421458,0.083133114304021
1761468510907079200,8.2680791015625,1.7350217121094464,1.1789311132676898,-0.07421904588844627
1761468510917034200,8.2780341796875,1.4423048401921987,1.12210389515236,-0.22308197548128664
1761468510926989000,8.287989013671876,1.2637146981924772,1.1288488393679261,-0.3976886738680303
1761468510936944000,8.297944091796875,1.125100008228421,1.0684551609426736,-0.4656256072796881
1761468510946898200,8.307898193359375,1.0308265642940997,0.9813603764660656,-0.40416539560146625
1761468510957476000,8.31847607421875,0.9237292946219444,0.9335290963634848,-0.28340858001969754
1761468510967430100,8.32843017578125,0.7564654332786798,0.9413232573710382,-0.1425491068035364
1761468510977385000,8.338385009765625,0.5923977376282215,0.9545084637671708,0.007049845446273684
1761468510987340300,8.34834033203125,0.3099514998346567,0.9634409811548889,0.1264678136397153
1761468510997295000,8.358295166015624,-0.06354162106215953,0.9683321141973137,0.27174327666722237
1761468511007249200,8.368249267578125,-0.38626492418646813,1.0286192635081708,0.3745076317016035
1761468511017204000,8.378203857421875,-0.622201339739561,1.087148609366268,0.44729105529636143
1761468511027159300,8.3881591796875,-0.8191904772609472,1.107865964832902,0.5146576414741575
1761468511037114000,8.398114013671876,-0.9700018009752035,1.0909275433830916,0.4664190957449376
1761468511047068200,8.408068115234375,-1.0805512569278477,0.9942594593971967,0.35799328088276083
1761468511057023000,8.41802294921875,-1.0421697960853575,0.8424152855038642,0.2213730526715517
1761468511066978300,8.427978271484376,-0.7950047150313854,0.5966935351260007,0.08635755624324083
1761468511076933000,8.43793310546875,-0.3644529053509235,0.3250549609422684,-0.01254983110204339
1761468511086887200,8.44788720703125,0.08944178599417209,0.05447802464067936,-0.01690408078879118
1761468511096842000,8.457842041015626,0.5281172808974981,-0.17639365486875175,-0.05849076741337776
1761468511106797300,8.46779736328125,0.8505144208073615,-0.3661788523606956,-0.07838131666705012
1761468511116752100,8.477752197265625,1.141786354613304,-0.5524504887737334,-0.12871822291500865
1761468511126706200,8.4877060546875,1.401173203858733,-0.775555333673954,-0.15060264939963816
1761468511136661000,8.497660888671875,1.5319184756219386,-0.9381488651186227,-0.13076996781304479
1761468511146616300,8.5076162109375,1.5520815582066774,-1.0534968073941766,-0.12374964072220027
1761468511156571100,8.517571044921874,1.4465531452864409,-1.0978818925656377,-0.09324607364796102
1761468511166525200,8.527525146484376,1.2775398099273443,-1.0947478323236106,0.0045694268073886634
1761468511176480000,8.53747998046875,0.9988836120665073,-1.059083375354856,0.06708681938834488
1761468511186435300,8.547435302734375,0.5692074161767959,-1.0033943674892187,0.06348879489637911
1761468511196390100,8.55739013671875,0.1780325081169605,-0.9276480755008757,0.06337693201974035
1761468511206344200,8.56734423828125,-0.14528466924726963,-0.8886202065136283,0.054025166306644674
1761468511216299000,8.577299072265625,-0.38212358659803863,-0.8185679614484309,0.04826864860653877
1761468511226254300,8.58725439453125,-0.5502274058967829,-0.790237135303393,0.06189626500792801
1761468511236209200,8.597209228515625,-0.6512725359231233,-0.773886596744135,0.10042129903957248
1761468511246163200,8.6071630859375,-0.7163456043362617,-0.7799126521006227,0.1316388596020639
1761468511256118000,8.617117919921874,-0.7335550978124141,-0.778265542480722,0.1188696866609156
1761468511266073300,8.6270732421875,-0.6968804408878088,-0.8060462604623287,0.07837949003614485
1761468511276028200,8.637028076171875,-0.6319196006774902,-0.8165502649504691,0.036154870834201575
1761468511285982200,8.646982177734374,-0.6561912876248359,-0.7936126761510968,-0.031439313554391266
1761468511295937000,8.65693701171875,-0.7763426846593618,-0.7552876216709613,-0.10200732612200081
1761468511305892400,8.666892333984375,-0.8906114533960818,-0.6291992358028888,-0.10890965285636484
1761468511315847200,8.67684716796875,-0.9935638783484697,-0.5216567065812647,-0.09093589700944721
1761468511325801200,8.68680126953125,-1.1115098742932081,-0.39783743468895555,-0.10351115481369197
1761468511335755800,8.696755859375,-1.2892051132798195,-0.29770941950753327,-0.18716317842528224
1761468511345710800,8.7067109375,-1.4038035523623227,-0.22461028102710842,-0.283742488149181
1761468511355665700,8.716665771484376,-1.4209896649628877,-0.21639365682378411,-0.3085096304632723
1761468511365619700,8.72661962890625,-1.2810919494509696,-0.2909840567752719,-0.33652802965827283
1761468511375574800,8.73657470703125,-0.9771090026319026,-0.29412366997525097,-0.4165302985906601
1761468511385529900,8.74652978515625,-0.7665718167513609,-0.3052652417145669,-0.5520052292242645
1761468511395484700,8.756484619140625,-0.7499860081315041,-0.3944724883005023,-0.6695588648505508
1761468511405438700,8.766438720703125,-0.8232651793539524,-0.48959758062809705,-0.9011594431564212
1761468511415393800,8.776393798828124,-0.9446528401851654,-0.5279490847237408,-1.2412202500507235
1761468511425348900,8.786348876953125,-1.1856745961785315,-0.4956259010069072,-1.456176859808713
1761468511435303700,8.7963037109375,-1.3999901315540075,-0.3706584819927811,-1.5097889152698218
1761468511445258800,8.8062587890625,-1.5313111573785543,-0.14706380774900316,-1.464921161147952
1761468511455212800,8.816212890625,-1.6164578765273092,0.13609846935942768,-1.2667572807587681
1761468511465168000,8.82616796875,-1.5921756681859491,0.44081031497493384,-0.9438953728813677
1761468511475122700,8.836122802734375,-1.5192314280062913,0.7714538897044956,-0.5724028512172401
1761468511485076700,8.84607666015625,-1.3380553611665964,1.140412143650651,-0.26999270667284725
1761468511495031800,8.85603173828125,-0.9903747269183397,1.42054265184775,-0.07755188010558485
1761468511504987000,8.86598681640625,-0.5761164649128914,1.6020245697662234,0.012918079892545937
1761468511514941700,8.875941650390626,-0.077651394957304,1.7485637691192328,0.07781893354393542
1761468511524896800,8.885896728515625,0.4675292489439249,1.7726570307597518,0.05144420990273356
1761468511534850800,8.895850830078125,1.0291863958716392,1.7304421292342245,-0.027838147257268426
1761468511544806000,8.905805908203124,1.5262158800661563,1.6833388711452484,-0.15135975137725471
1761468511554760700,8.9157607421875,1.922397802633047,1.6051901941902935,-0.24866920200660822
1761468511564715800,8.9257158203125,2.248980703794956,1.5322861398905514,-0.29610439546369016
1761468511574669800,8.935669921875,2.3422546152979136,1.5030162062644958,-0.2967568680230528
1761468511584624600,8.945624755859376,2.206210652604699,1.4496597329996526,-0.32100042485445734
1761468511594579700,8.955579833984375,1.9196143093943594,1.4072463862925768,-0.35856815816126764
1761468511604534800,8.96553466796875,1.5648498543649911,1.3594915324270724,-0.4305053401902318
1761468511614488800,8.97548876953125,1.2804302706718445,1.329254068943113,-0.47641588136330243
1761468511624443600,8.985443603515625,1.0303741443514822,1.2839514305353164,-0.5437191199813037
1761468511634398700,8.995398681640625,0.7406693137317896,1.2096622054874897,-0.6639834758710116
1761468511644353800,9.005353759765624,0.5198381128519773,1.1196021414645017,-0.7282743078652769
1761468511654307800,9.015307861328125,0.3736889357298612,1.016249172887206,-0.7210792817946523
1761468511664262700,9.0252626953125,0.2926069818019867,0.8691941329665481,-0.6315513518869876
1761468511674217700,9.0352177734375,0.276142169213295,0.776542737276107,-0.5358472175624222
1761468511684172800,9.0451728515625,0.2723942148566246,0.7071298860929905,-0.440747990328446
1761468511694126800,9.055126953125,0.25979543004631994,0.6210486625730991,-0.3110224170017987
1761468511704081700,9.06508154296875,0.2009896053344011,0.5076503930605948,-0.1466832839988172
1761468511714036700,9.07503662109375,0.0436357281088829,0.42979631513804195,0.03937346755452454
1761468511723991600,9.084991455078125,-0.1287327628970146,0.37446956471353765,0.152509432869032
1761468511733945900,9.09494580078125,-0.23720775066316127,0.25545593953728674,0.2513208855591714
1761468511743900700,9.104900634765626,-0.20235563299059867,0.1308463940501213,0.34106910715401173
1761468511753855700,9.114855712890625,-0.0821826086461544,-0.027371406528353688,0.38065672891587016
1761468511763810600,9.124810546875,0.0717687666594982,-0.26031770035475493,0.357772916130349
1761468511773764900,9.134764892578126,0.23560499164164064,-0.5280275567874312,0.31537294036149977
1761468511783719700,9.1447197265625,0.45135669730007644,-0.779664668688923,0.2462439476210624
1761468511793674800,9.1546748046875,0.6061907006591558,-1.0227782823950051,0.19273469494730233
1761468511803629600,9.164629638671874,0.6974579485148191,-1.2117589585710316,0.15827252644039688
1761468511813584000,9.174583984375,0.7573311101973056,-1.3614204546630382,0.09236929081343113
1761468511823538700,9.18453857421875,0.7665355763942003,-1.4008388573378323,0.02109842720609158
1761468511833493800,9.19449365234375,0.6894739640235901,-1.4100870165459811,0.03129665368068963
1761468511843448600,9.204448486328126,0.4560609294682741,-1.485116976958513,-0.004831292613968253
1761468511853403000,9.21440283203125,0.14261691134274004,-1.5357902024887502,-0.09899250834546983
1761468511863357700,9.224357666015624,-0.08685060045719147,-1.4977411884710192,-0.21454083203133195
1761468511873312800,9.234312744140626,-0.17937632394134997,-1.5071683575078845,-0.22936704710014164
1761468511883267600,9.244267578125,-0.20082652372717857,-1.4973884295105933,-0.19146222732607274
1761468511893222000,9.254221923828124,-0.2110597484499216,-1.4817483773082494,-0.2248775536611676
1761468511903176700,9.2641767578125,-0.2319949844509363,-1.513013138013333,-0.30536296646799893
1761468511913131800,9.2741318359375,-0.27169980285167694,-1.5607188920401036,-0.3998124245563522
1761468511923086600,9.284086669921875,-0.38492052384018893,-1.5234101749956608,-0.4748972569612786
1761468511933041000,9.294041015625,-0.5316489621549845,-1.4832999906644224,-0.5201653720449656
1761468511942995700,9.30399560546875,-0.703137163195014,-1.438430336846411,-0.5773096567528322
1761468511952950800,9.31395068359375,-0.8052239112287759,-1.3757872720591724,-0.6439142821148037
1761468511962905600,9.323905517578124,-0.8660960208207369,-1.3757855184935033,-0.7221377778716385
1761468511972860000,9.33385986328125,-0.9464332938611507,-1.373820355900377,-0.8024695710193366
1761468511982814700,9.343814697265625,-1.0249714085251092,-1.2773926565416156,-0.8696547362156212
1761468511992769800,9.353769775390624,-1.070472345983982,-1.1433172174423933,-0.837940624307841
1761468512002724600,9.363724609375,-1.127879409813881,-0.9762808812446891,-0.7386722946956753
1761468512012679000,9.373678955078125,-1.1818716967642307,-0.7829771542377769,-0.6572229687601328
1761468512022633700,9.3836337890625,-1.178413665264845,-0.6415488681577146,-0.5888345652539283
1761468512032588800,9.3935888671875,-1.1588690068393945,-0.5762735551707446,-0.5240048771426081
1761468512042543600,9.403543701171875,-1.0738988133013248,-0.5735482218600809,-0.45239605028517543
1761468512052498000,9.413497802734375,-0.9298159210592508,-0.5886002450414002,-0.3441427059130743
1761468512062452700,9.42345263671875,-0.7868190704882144,-0.5332806550100445,-0.3084895009906962
1761468512072407800,9.43340771484375,-0.7947942871510982,-0.45303734386339783,-0.37615032087471334
1761468512082362600,9.443362548828125,-1.0079875404983758,-0.3382340298585593,-0.47940077892560506
1761468512092317000,9.45331689453125,-1.4081868820130825,-0.11902940726727247,-0.5935624705586582
1761468512102271700,9.463271728515625,-1.8337714246749877,0.14182766066119074,-0.7150168399505317
1761468512112226800,9.473226806640625,-2.149908335146308,0.3877972483202815,-0.7399220755610615
1761468512122181600,9.483181640625,-2.439223874187469,0.6538061460539698,-0.7496933818604796
1761468512132136000,9.493135986328125,-2.5638357577621935,0.9649017013572155,-0.8512765642862766
1761468512142090800,9.5030908203125,-2.3439205026835204,1.2192056943804024,-0.8710806043002753
1761468512152045800,9.5130458984375,-1.7212854477018118,1.3412803145624697,-0.7804327304519713
1761468512162000600,9.523000732421876,-0.8561825295716523,1.4151038217946885,-0.6886319602414965
1761468512171955700,9.532955810546875,0.04749123449325561,1.4487874802097678,-0.56113582646735
1761468512181909800,9.54290966796875,0.8545634039372205,1.4348764437571166,-0.42443416705038395
1761468512191864800,9.55286474609375,1.5350877533078193,1.4444637717917561,-0.38484888337608425
1761468512201819600,9.562819580078125,2.104897811552882,1.4131385130710898,-0.3707458680152893
1761468512211774700,9.572774658203125,2.59422271271944,1.3616867043837904,-0.33608598497919734
1761468512221728800,9.582728759765626,2.8976883576661345,1.3094624500192702,-0.2545475559880957
1761468512231683800,9.592683837890625,3.007518267172575,1.2678335316881537,-0.1903898123215884
1761468512241638700,9.602638671875,2.8259154993534086,1.3320628427535295,-0.054057022749632595
1761468512251593700,9.61259375,2.434897827681899,1.4843277262769639,0.0722898679241538
1761468512261547800,9.6225478515625,2.0730326007366178,1.5275542890630662,0.1922241516092792
1761468512271502800,9.6325029296875,1.7600766583889722,1.5671126847304402,0.3028367359260097
1761468512281457700,9.642457763671874,1.4278461067289112,1.599931543009728,0.24790366099420932
1761468512291412700,9.652412841796876,1.1343073970347641,1.6181994594976306,0.1321452747542411
1761468512301366800,9.66236669921875,0.7293360188126563,1.5008470455318688,-0.021230163826979696
1761468512311321900,9.67232177734375,0.30301205596029757,1.4474876496575773,-0.29362357496600594
1761468512321276700,9.682276611328126,-0.10463058729767799,1.486645940091461,-0.33632826930247245
1761468512331232800,9.692232666015625,-0.3323603155195713,1.4139184114024042,-0.07545819576196372
1761468512341186800,9.702186767578125,-0.25213702424764634,1.321297118589282,0.1548923459501937
1761468512351141600,9.7121416015625,0.006810264536738395,1.2138969204477965,0.24794647722262889
1761468512361096700,9.7220966796875,0.17696517114639282,1.1493958067037164,0.3181146037524566
1761468512371051800,9.7320517578125,0.11968728665411471,1.05490302093029,0.35710780328512187
1761468512381005800,9.742005859375,-0.08661679170131682,1.0234848232291638,0.35754838665947314
1761468512390960600,9.751960693359376,-0.3134919489204883,1.0139492253817617,0.3684877868901938
1761468512400915700,9.761915771484375,-0.6679916155338287,0.9066101097777486,0.3018729689277708
1761468512410870800,9.771870849609375,-0.9342284768044948,0.7970996414840221,0.16759850012511013
1761468512420824800,9.781824951171876,-0.9615987142890691,0.6781555744126438,0.03041471974700689
1761468512430779600,9.791779541015625,-0.7565010891139506,0.4457657454252243,-0.012120061382651329
1761468512440734700,9.801734619140625,-0.5504617991745472,0.25304741709083317,-0.05280168892629444
1761468512450689800,9.811689697265624,-0.2830541405588388,0.1024231403812766,-0.11126728536579757
1761468512460643800,9.821643798828125,-0.018516484421491623,-0.06896408450230955,-0.04082622364610433
1761468512470598700,9.8315986328125,0.261636089476943,-0.2167852864898741,-0.04451302240006626
1761468512480553700,9.8415537109375,0.5779845968723297,-0.3794489605613053,-0.03497223692089319
1761468512490508800,9.8515087890625,0.8335282146930694,-0.5520873545497655,-0.0222927880898118
1761468512500462800,9.861462890625,0.9376742333441972,-0.6255353064678609,-0.010700440375693142
1761468512510417700,9.871417724609374,0.9645411974817514,-0.6805107592366635,0.02506590606495738
1761468512520372700,9.881372802734376,0.924805983942747,-0.7500294088818132,0.06327233913410454
1761468512530327800,9.891327880859375,0.836266699746251,-0.8326594690345227,0.0073314023340120904
1761468512540281900,9.90128173828125,0.6611509558588266,-0.8920371022850274,-0.14319686665516346
1761468512550236700,9.911236572265626,0.5822673887580633,-0.9340638608273119,-0.18607527359072118
1761468512560191700,9.921191650390625,0.5579144532680511,-1.0305196903020142,-0.25216416798289865
1761468512570146800,9.931146728515625,0.6392459980428219,-1.1579146287240087,-0.31818584235776215
1761468512580100900,9.941100830078126,0.5757435399472713,-1.2073103816643356,-0.3449718136809766
1761468512590055700,9.9510556640625,0.4151327067524194,-1.090649676289782,-0.3744704049637541
1761468512600010800,9.9610107421875,0.1186205342054367,-1.0494298502162098,-0.3012440599070862
1761468512609965800,9.9709658203125,-0.2095604498028755,-0.9608083676289767,-0.26242811663746834
