time,seconds_elapsed,z,y,x
1761468502692535000,0.05353515625,0.05577181279659271,-0.11627333611249924,-0.11209794878959656
1761468502702489900,0.06348974609375,0.08445565402507782,-0.12036421149969101,-0.0932542160153389
1761468502712444700,0.073444580078125,0.09050864726305008,-0.12377399206161499,-0.06914931535720825
1761468502722398700,0.083398681640625,0.07571931183338165,-0.12328183650970459,-0.04025028645992279
1761468502732354000,0.09335400390625,0.05261841416358948,-0.1160537376999855,-0.021359123289585114
1761468502742308900,0.103308837890625,0.026927433907985687,-0.10406950861215591,-0.016145985573530197
1761468502752263700,0.113263671875,0.004140300210565329,-0.09419308602809906,-0.022275246679782867
1761468502762217700,0.1232177734375,-0.018082713708281517,-0.09570416063070297,-0.027964558452367783
1761468502772172800,0.1331728515625,-0.03595704585313797,-0.08923360705375671,-0.023643381893634796
1761468502782127900,0.1431279296875,-0.05319967865943909,-0.07735031843185425,-0.003256883006542921
1761468502792082700,0.153082763671875,-0.06403794884681702,-0.07981199771165848,0.01586827263236046
1761468502802036700,0.16303662109375,-0.06288905441761017,-0.11339685320854187,0.019341569393873215
1761468502811991800,0.17299169921875,-0.05902242287993431,-0.15065103769302368,0.02813732624053955
1761468502821947000,0.18294677734375,-0.05559466779232025,-0.13107255101203918,0.05635218694806099
1761468502831901700,0.192901611328125,-0.0511074997484684,-0.07887923717498779,0.07521315664052963
1761468502841855700,0.202855712890625,-0.04153130576014519,-0.042367830872535706,0.06756962090730667
1761468502851810800,0.212810791015625,-0.03101522848010063,-0.04087908938527107,0.03473051264882088
1761468502861766000,0.222765869140625,-0.027324354276061058,-0.05544525012373924,-0.00803559273481369
1761468502871720700,0.232720703125,-0.03155840188264847,-0.07066801190376282,-0.041338253766298294
1761468502881676000,0.242676025390625,-0.0395289771258831,-0.10773016512393951,-0.060897838324308395
1761468502891629800,0.2526298828125,-0.04319748654961586,-0.15384267270565033,-0.04883392155170441
1761468502901585000,0.2625849609375,-0.050380829721689224,-0.16955745220184326,-0.01332892570644617
1761468502911539700,0.272539794921875,-0.06195099279284477,-0.1832682341337204,0.019313108175992966
1761468502921495000,0.2824951171875,-0.06491775065660477,-0.17905138432979584,0.057084452360868454
1761468502931448800,0.29244873046875,-0.06645600497722626,-0.17030085623264313,0.09235412627458572
1761468502941404000,0.30240380859375,-0.06988642364740372,-0.14976628124713898,0.1295105516910553
1761468502951358700,0.312358642578125,-0.07920853793621063,-0.08068067580461502,0.1467149704694748
1761468502961314000,0.32231396484375,-0.07887724041938782,0.01627090573310852,0.1345728188753128
1761468502971267800,0.332267822265625,-0.07292274385690689,0.08222225308418274,0.10018499195575714
1761468502981223000,0.342222900390625,-0.061981141567230225,0.10100366175174713,0.05859467014670372
1761468502991177700,0.352177734375,-0.06335650384426117,0.09292137622833252,0.021149924024939537
1761468503001133000,0.362133056640625,-0.07124798744916916,0.06221219524741173,-0.013677298091351986
1761468503011088000,0.372087890625,-0.08331385254859924,0.00808398611843586,-0.039217982441186905
1761468503021042000,0.3820419921875,-0.0935254842042923,-0.04575980082154274,-0.0453866608440876
1761468503030996700,0.391996826171875,-0.10078328847885132,-0.0756678581237793,-0.02985110878944397
1761468503040952000,0.4019521484375,-0.10379186272621155,-0.09022603183984756,-0.007680825889110565
1761468503050907000,0.411906982421875,-0.1080164834856987,-0.10202730447053909,0.005548758432269096
1761468503060861000,0.42186083984375,-0.10547635704278946,-0.1069813147187233,0.0038496614433825016
1761468503070815700,0.431815673828125,-0.09637565165758133,-0.10685180872678757,-0.002997791161760688
1761468503080771000,0.44177099609375,-0.0880679190158844,-0.0963917151093483,-0.018229208886623383
1761468503090726000,0.451725830078125,-0.08480065315961838,-0.09192568808794022,-0.02911028452217579
1761468503100680000,0.461679931640625,-0.08509067445993423,-0.09361785650253296,-0.03547923266887665
1761468503110634800,0.471634765625,-0.08964073657989502,-0.11152671277523041,-0.050162702798843384
1761468503120590000,0.481590087890625,-0.09488982707262039,-0.11539282649755478,-0.06044836342334747
1761468503130545000,0.491544921875,-0.0952257588505745,-0.09725415706634521,-0.06857064366340637
1761468503140499700,0.501499755859375,-0.08689512312412262,-0.07379144430160522,-0.07796148210763931
1761468503150453800,0.511453857421875,-0.07050928473472595,-0.05514828488230705,-0.07748616486787796
1761468503160409000,0.5214091796875,-0.05330526456236839,-0.036988724023103714,-0.06925114244222641
1761468503170364000,0.531364013671875,-0.031841881573200226,-0.023128671571612358,-0.04442119598388672
1761468503180318700,0.541318603515625,-0.02345026098191738,-0.02170201577246189,-0.02985530160367489
1761468503190272800,0.551272705078125,-0.02294483594596386,-0.03699183091521263,-0.02528155967593193
1761468503200228000,0.56122802734375,-0.019668614491820335,-0.051208581775426865,-0.02630874142050743
1761468503210183000,0.571182861328125,-0.012865912169218063,-0.05329856276512146,-0.028042320162057877
1761468503220137700,0.5811376953125,-0.005074034910649061,-0.05353531986474991,-0.031765688210725784
1761468503230091800,0.591091796875,0.007944140583276749,-0.059275370091199875,-0.03753765672445297
1761468503240047000,0.601047119140625,0.018098507076501846,-0.062102582305669785,-0.04395667091012001
1761468503250002000,0.611001953125,0.01834655925631523,-0.06108672544360161,-0.050253819674253464
1761468503259956700,0.620956787109375,0.012383741326630116,-0.047818854451179504,-0.06207665428519249
1761468503269911800,0.630911865234375,0.006572409998625517,-0.025006966665387154,-0.06860662996768951
1761468503279865900,0.640865966796875,0.0037593126762658358,-0.0019312079530209303,-0.06516049802303314
1761468503289821000,0.650821044921875,0.00036458123940974474,0.0017860322259366512,-0.05944269150495529
1761468503299775700,0.660775634765625,0.0024405152071267366,-0.007426108233630657,-0.0475306361913681
1761468503309730800,0.670730712890625,0.005485573783516884,-0.009529205970466137,-0.03167657554149628
1761468503319685000,0.68068505859375,0.008490418083965778,-0.007765394635498524,-0.017680328339338303
1761468503329640400,0.690640380859375,0.011845309287309647,-0.0019507268443703651,-0.01088294479995966
1761468503339595300,0.70059521484375,0.011345434002578259,-0.01121959276497364,-0.012827052734792233
1761468503349550300,0.71055029296875,0.010336046107113361,-0.015849653631448746,-0.015004853717982769
1761468503359504100,0.720504150390625,0.008600996807217598,-0.009162189438939095,-0.019148197025060654
1761468503369459500,0.73045947265625,0.011220846325159073,-0.0035212424118071795,-0.018577180802822113
1761468503379414300,0.740414306640625,0.01529894582927227,-0.00434629013761878,-0.012336863204836845
1761468503389369300,0.750369384765625,0.020739195868372917,-0.0016984030371531844,0.0010331713128834963
1761468503399324400,0.760324462890625,0.02658962830901146,0.01063309796154499,0.012830708175897598
1761468503409278500,0.770278564453125,0.029387017711997032,0.016271481290459633,0.01859748363494873
1761468503419233300,0.7802333984375,0.030014723539352417,0.014204335398972034,0.01215449720621109
1761468503429188400,0.790188232421875,0.03053601272404194,0.011777586303651333,0.0019952706061303616
1761468503439143400,0.800143310546875,0.02379715070128441,0.002918580314144492,-0.020638668909668922
1761468503449097500,0.810097412109375,0.019840918481349945,0.00006235664477571845,-0.04080009460449219
1761468503459052300,0.82005224609375,0.010264190845191479,-0.0074379038996994495,-0.059016115963459015
1761468503469007400,0.83000732421875,0.0017961434787139297,-0.024366941303014755,-0.07068908959627151
1761468503478962400,0.83996240234375,-0.0024534626863896847,-0.04357206076383591,-0.06842220574617386
1761468503488916500,0.84991650390625,-0.009139657020568848,-0.06146655231714249,-0.06212009862065315
1761468503498871300,0.859871337890625,-0.012000690214335918,-0.06737158447504044,-0.04741119593381882
1761468503508826400,0.869826416015625,-0.012822387740015984,-0.05945891886949539,-0.03235224634408951
1761468503518781400,0.879781494140625,-0.01159466989338398,-0.0345383919775486,-0.02208496443927288
1761468503528735500,0.889735595703125,-0.005790516268461943,-0.004230847582221031,-0.02519071102142334
1761468503538690300,0.899690185546875,-0.00493191322311759,0.0161705631762743,-0.03732860088348389
1761468503548645400,0.909645263671875,-0.012760329060256481,0.020680800080299377,-0.05132387951016426
1761468503558600400,0.919600341796875,-0.02216075360774994,0.01678432896733284,-0.054887186735868454
1761468503568555300,0.92955517578125,-0.02862734906375408,0.010276529006659985,-0.04669762775301933
1761468503578509300,0.93950927734375,-0.03035147860646248,-0.0061352006159722805,-0.03633633628487587
1761468503588464400,0.94946435546875,-0.027107853442430496,-0.021487241610884666,-0.02397098019719124
1761468503598419500,0.95941943359375,-0.029672211036086082,-0.022252900525927544,-0.010898055508732796
1761468503608374300,0.969374267578125,-0.029997749254107475,-0.018635310232639313,0.0024379887618124485
1761468503618328300,0.979328369140625,-0.025918852537870407,-0.02229609154164791,0.011533482931554317
1761468503628283100,0.989283203125,-0.022362791001796722,-0.031189216300845146,0.018527410924434662
1761468503638238500,0.999238525390625,-0.023645369336009026,-0.03368646278977394,0.030402712523937225
1761468503648193300,1.009193359375,-0.027427421882748604,-0.01562048215419054,0.030745426192879677
1761468503658147300,1.019147216796875,-0.026454303413629532,0.01119222305715084,0.01734839379787445
1761468503668102100,1.02910205078125,-0.028001438826322556,0.045917198061943054,-0.0006486829370260239
1761468503678057500,1.039057373046875,-0.023106282576918602,0.08258732408285141,-0.017085181549191475
1761468503688012300,1.04901220703125,-0.024538155645132065,0.09267370402812958,-0.029154960066080093
1761468503697967400,1.05896728515625,-0.028105726465582848,0.06809166818857193,-0.03141651675105095
1761468503707921200,1.068921142578125,-0.03523484990000725,0.03681610897183418,-0.018933149054646492
1761468503717876500,1.07887646484375,-0.03812464699149132,0.015872212126851082,0.0007478785701096058
1761468503727831300,1.088831298828125,-0.035020094364881516,0.00022639076632913202,0.02120385318994522
1761468503737786400,1.098786376953125,-0.024542685598134995,-0.018740909174084663,0.03502112999558449
1761468503747740200,1.108740234375,-0.011376063339412212,-0.039367370307445526,0.03960662707686424
1761468503757695500,1.118695556640625,0.00021427933825179935,-0.0493805892765522,0.037794079631567
1761468503767650300,1.128650390625,0.01051526702940464,-0.05127350986003876,0.03186129033565521
1761468503777605400,1.13860546875,0.013442347757518291,-0.0471394844353199,0.02630646899342537
1761468503787559200,1.14855908203125,0.012409196235239506,-0.03438040614128113,0.03221665695309639
1761468503797514500,1.158514404296875,0.015191401354968548,-0.00999224092811346,0.04771013185381889
1761468503807469300,1.16846923828125,0.014577016234397888,0.0047021606005728245,0.05865565687417984
1761468503817424400,1.17842431640625,0.019962726160883904,0.019245684146881104,0.06126102805137634
1761468503827379200,1.188379150390625,0.02819802053272724,0.04069371521472931,0.053269680589437485
1761468503837333500,1.19833349609375,0.030064363032579422,0.05159137025475502,0.038887277245521545
1761468503847288300,1.208288330078125,0.03237039968371391,0.0406704880297184,0.016904978081583977
1761468503857243400,1.218243408203125,0.025390518829226494,0.00826833862811327,-0.0036687401589006186
1761468503867198200,1.2281982421875,0.014285142533481121,-0.03587527573108673,-0.017625903710722923
1761468503877152500,1.238152587890625,0.003556331619620323,-0.07263568788766861,-0.015201627276837826
1761468503887107300,1.248107421875,0.0006296570063568652,-0.09236980229616165,-0.0013774202670902014
1761468503897062400,1.2580625,0.0024477969855070114,-0.08850395679473877,0.014794625341892242
1761468503907017200,1.268017333984375,0.013025948777794838,-0.06369800865650177,0.02996544912457466
1761468503916971500,1.277971435546875,0.022870589047670364,-0.03206764534115791,0.03783136233687401
1761468503926926300,1.28792626953125,0.030664274469017982,-0.004443773068487644,0.03479662537574768
1761468503936881400,1.29788134765625,0.0339098684489727,0.029642557725310326,0.02775522693991661
1761468503946836200,1.307836181640625,0.039360977709293365,0.05479637533426285,0.02101466991007328
1761468503956791300,1.317791259765625,0.04303533956408501,0.0564696379005909,0.018404504284262657
1761468503966745300,1.327745361328125,0.04131755605340004,0.049548808485269547,0.02385256439447403
1761468503976700400,1.337700439453125,0.04011700302362442,0.043052028864622116,0.04074472934007645
1761468503986655200,1.3476552734375,0.04056505486369133,0.035553883761167526,0.06211736425757408
1761468503996610300,1.3576103515625,0.04116666316986084,0.021819960325956345,0.07808194309473038
1761468504006564400,1.367564453125,0.039639610797166824,0.014982972294092178,0.09124667942523956
1761468504016519400,1.37751953125,0.032540153712034225,0.01871965453028679,0.08831507712602615
1761468504026474200,1.38747412109375,0.020884986966848373,0.022043416276574135,0.061849482357501984
1761468504036429300,1.39742919921875,0.0066815512254834175,0.03331524506211281,0.02084212750196457
1761468504046383400,1.40738330078125,0.0006332459161058068,0.04222085699439049,-0.020827023312449455
1761468504056338400,1.41733837890625,-0.002270665019750595,0.040278878062963486,-0.05260332673788071
1761468504066293200,1.427293212890625,-0.004713965114206076,0.029970841482281685,-0.07282773405313492
1761468504076248300,1.437248291015625,-0.0038513673935085535,0.01766837015748024,-0.07495986670255661
1761468504086202400,1.447202392578125,-0.0029241996817290783,0.00667179562151432,-0.06307761371135712
1761468504096157400,1.457157470703125,-0.00005783961387351155,-0.008490378968417645,-0.042712416499853134
1761468504106112300,1.4671123046875,0.00036906509194523096,-0.014854534529149532,-0.025280160829424858
1761468504116067300,1.4770673828125,0.0016564371762797236,-0.026587091386318207,-0.010195218026638031
1761468504126022400,1.4870224609375,-0.00649790046736598,-0.025867383927106857,0.0011613670503720641
1761468504135976200,1.49697607421875,-0.006620672065764666,-0.012718558311462402,0.010686162859201431
1761468504145931300,1.50693115234375,-0.006647247821092606,0.010824884288012981,0.017137203365564346
1761468504155886300,1.51688623046875,-0.006931673269718885,0.04610218107700348,0.005685610696673393
1761468504165841400,1.52684130859375,-0.010913217440247536,0.08113159984350204,-0.01915828511118889
1761468504175795200,1.536795166015625,-0.01523685920983553,0.09067476540803909,-0.05093778297305107
1761468504185750300,1.546750244140625,-0.02170092798769474,0.08608586341142654,-0.07470669597387314
1761468504195705300,1.556705322265625,-0.033114705234766006,0.08037551492452621,-0.08957859128713608
1761468504205660400,1.566660400390625,-0.047589730471372604,0.07687700539827347,-0.0948459580540657
1761468504215614200,1.5766142578125,-0.06144535914063454,0.08417993038892746,-0.08290860056877136
1761468504225569300,1.5865693359375,-0.06794976443052292,0.08239811658859253,-0.0654669925570488
1761468504235524400,1.5965244140625,-0.06268416345119476,0.06421484798192978,-0.043907105922698975
1761468504245479400,1.6064794921875,-0.044791437685489655,0.06335866451263428,-0.014602351002395153
1761468504255434200,1.616434326171875,-0.027331752702593803,0.058706123381853104,0.008652105927467346
1761468504265388300,1.62638818359375,-0.012294490821659565,0.04646355286240578,0.021751532331109047
1761468504275343400,1.63634326171875,-0.004734043963253498,0.03665699437260628,0.028402244672179222
1761468504285298400,1.64629833984375,-0.007821761071681976,0.03416405990719795,0.028341621160507202
1761468504295253200,1.656253173828125,-0.01265646331012249,0.041276562958955765,0.02495594695210457
1761468504305207300,1.666207275390625,-0.03080824762582779,0.04602447524666786,0.017562277615070343
1761468504315162400,1.676162353515625,-0.0490461029112339,0.04186142235994339,0.0038877446204423904
1761468504325117400,1.686117431640625,-0.05846821144223213,0.05032641813158989,0.0031589381396770477
1761468504335072300,1.696072265625,-0.06063069775700569,0.06293675303459167,0.006946485955268145
1761468504345026300,1.7060263671875,-0.05972330644726753,0.06809299439191818,0.009696831926703453
1761468504354981400,1.7159814453125,-0.05882289260625839,0.07286538183689117,0.011558648198843002
1761468504364936400,1.7259365234375,-0.06048960983753204,0.08232560008764267,0.02033173479139805
1761468504374891300,1.735891357421875,-0.06726282835006714,0.08293572813272476,0.026744626462459564
1761468504384846300,1.745846435546875,-0.07246695458889008,0.07262928038835526,0.03237061947584152
1761468504394800400,1.75580029296875,-0.07546993345022202,0.06981165707111359,0.04588083550333977
1761468504404755500,1.76575537109375,-0.07428466528654099,0.072935089468956,0.06571745872497559
1761468504414710300,1.775710205078125,-0.07423513382673264,0.07412020117044449,0.0743359848856926
1761468504424665300,1.785665283203125,-0.07092519849538803,0.06619272381067276,0.06831271201372147
1761468504434619400,1.795619384765625,-0.07127779722213745,0.051313646137714386,0.0449698306620121
1761468504444574500,1.805574462890625,-0.07279031723737717,0.03837839886546135,0.007410109508782625
1761468504454529300,1.815529296875,-0.07291895151138306,0.02826078236103058,-0.03164009004831314
1761468504464484400,1.825484375,-0.06311057507991791,0.034705888479948044,-0.05590727925300598
1761468504474439400,1.835439453125,-0.05501563474535942,0.036572765558958054,-0.0625409409403801
1761468504484393500,1.8453935546875,-0.04392916336655617,0.029976973310112953,-0.06109348312020302
1761468504494348300,1.855348388671875,-0.038610298186540604,0.02213289961218834,-0.05654001235961914
1761468504504303000,1.86530322265625,-0.04124794527888298,0.015696270391345024,-0.05779975652694702
1761468504514258400,1.875258544921875,-0.0429728738963604,0.007360843941569328,-0.07102900743484497
1761468504524212500,1.88521240234375,-0.0524006262421608,-0.0008612109813839197,-0.1057116836309433
1761468504534167300,1.895167236328125,-0.07038814574480057,-0.014014297164976597,-0.15644995868206024
1761468504544122000,1.9051220703125,-0.09496113657951355,-0.032770346850156784,-0.2074499875307083
1761468504554077400,1.915077392578125,-0.12288437783718109,-0.043004874140024185,-0.24613960087299347
1761468504564031500,1.925031494140625,-0.14726358652114868,-0.044017184525728226,-0.27141860127449036
1761468504573986300,1.934986328125,-0.16287823021411896,-0.049004752188920975,-0.2718699872493744
1761468504583941000,1.944941162109375,-0.17476888000965118,-0.05857551470398903,-0.2547532916069031
1761468504593896400,1.954896484375,-0.1810116022825241,-0.07398723065853119,-0.228682279586792
1761468504603851300,1.964851318359375,-0.187056764960289,-0.07892163097858429,-0.20433416962623596
1761468504613805300,1.974805419921875,-0.17714688181877136,-0.04792483150959015,-0.16397982835769653
1761468504623760100,1.984760009765625,-0.15606532990932465,0.01999662257730961,-0.09927163273096085
1761468504633715500,1.994715576171875,-0.14067545533180237,0.0819699838757515,-0.033731505274772644
1761468504643670300,2.004670166015625,-0.1269325464963913,0.13596686720848083,0.02288457192480564
1761468504653624300,2.014624267578125,-0.11809884011745453,0.16559240221977234,0.07106941193342209
1761468504663579100,2.0245791015625,-0.118492990732193,0.16803304851055145,0.1004079282283783
1761468504673534500,2.034534423828125,-0.11905624717473984,0.14837412536144257,0.11482308804988861
1761468504683489300,2.0444892578125,-0.12202487140893936,0.12491241097450256,0.11198438704013824
1761468504693443300,2.054443359375,-0.12919330596923828,0.10329127311706543,0.09547625482082367
1761468504703398100,2.064398193359375,-0.1416425257921219,0.08124027401208878,0.07334046065807343
1761468504713353500,2.074353515625,-0.1564694046974182,0.05771178379654884,0.047749344259500504
1761468504723308300,2.084308349609375,-0.17065222561359406,0.04270493611693382,0.02241615764796734
1761468504733263400,2.094263427734375,-0.18257467448711395,0.027312131598591805,0.0030698899645358324
1761468504743217200,2.104217041015625,-0.19243481755256653,0.023392662405967712,-0.0059114545583724976
1761468504753172500,2.11417236328125,-0.19351792335510254,0.02301076613366604,-0.010714731179177761
1761468504763127300,2.124127197265625,-0.18242327868938446,0.016724208369851112,-0.013078355230391026
1761468504773082400,2.134082275390625,-0.1683942824602127,0.02097328193485737,-0.016670694574713707
1761468504783036200,2.1440361328125,-0.15145659446716309,0.030932294204831123,-0.02242172136902809
1761468504792991500,2.153991455078125,-0.1334509551525116,0.03447190299630165,-0.035018742084503174
1761468504802946300,2.1639462890625,-0.1181461364030838,0.03253154084086418,-0.05752295255661011
1761468504812901400,2.1739013671875,-0.10734301805496216,0.026594553142786026,-0.08182775229215622
1761468504822855200,2.183855224609375,-0.09505871683359146,0.028023838996887207,-0.1008228212594986
1761468504832810500,2.193810546875,-0.0824236199259758,0.029257414862513542,-0.11497299373149872
1761468504842765300,2.203765380859375,-0.06841783970594406,0.027669217437505722,-0.12410084903240204
1761468504852720400,2.213720458984375,-0.05241596698760986,0.027249237522482872,-0.12963463366031647
1761468504862675500,2.223675537109375,-0.026779573410749435,0.038912102580070496,-0.13046084344387054
1761468504872629500,2.23362939453125,0.0027154688723385334,0.06167121231555939,-0.1235552653670311
1761468504882584300,2.243584228515625,0.028783554211258888,0.0773034319281578,-0.10061772167682648
1761468504892539100,2.2535390625,0.050494976341724396,0.07663524150848389,-0.07152827829122543
1761468504902494500,2.263494384765625,0.0705665722489357,0.06245709955692291,-0.04920949414372444
1761468504912448500,2.273448486328125,0.08474604040384293,0.0331447534263134,-0.037805039435625076
1761468504922403300,2.2834033203125,0.10048537701368332,-0.003989676013588905,-0.028245754539966583
1761468504932358100,2.293358154296875,0.12068571895360947,-0.04008163511753082,-0.012656142935156822
1761468504942313500,2.3033134765625,0.14079652726650238,-0.07685071974992752,0.0020526284351944923
1761468504952268300,2.313268310546875,0.1609145849943161,-0.10260482132434845,0.0224713496863842
1761468504962222300,2.323222412109375,0.18442800641059875,-0.1132594645023346,0.042656149715185165
1761468504972177200,2.33317724609375,0.21122606098651886,-0.1027519628405571,0.06463601440191269
1761468504982132500,2.343132568359375,0.23379123210906982,-0.07825443893671036,0.08148786425590515
1761468504992087300,2.35308740234375,0.24843302369117737,-0.04034540802240372,0.09437276422977448
1761468505002041300,2.363041259765625,0.25094544887542725,0.008060656487941742,0.10651076585054398
1761468505011996200,2.37299609375,0.24594882130622864,0.04920383170247078,0.11142776161432266
1761468505021951500,2.382951416015625,0.23502586781978607,0.07991480827331543,0.11097392439842224
1761468505031906300,2.39290625,0.21981576085090637,0.08602622896432877,0.09280157834291458
1761468505041860400,2.4028603515625,0.20088879764080048,0.03812328353524208,0.05202155560255051
1761468505051815200,2.412815185546875,0.17874540388584137,-0.07343094050884247,-0.016283469274640083
1761468505061770500,2.4227705078125,0.15036050975322723,-0.21498075127601624,-0.08739695698022842
1761468505071725300,2.432725341796875,0.11768460273742676,-0.34094610810279846,-0.14475186169147491
1761468505081680400,2.442680419921875,0.086252860724926,-0.4169398546218872,-0.155862957239151
1761468505091634200,2.45263427734375,0.06410867720842361,-0.40769442915916443,-0.10406901687383652
1761468505101589500,2.462589599609375,0.050871118903160095,-0.2826022803783417,-0.0018371196929365396
1761468505111544300,2.47254443359375,0.06662026047706604,-0.049413517117500305,0.14138102531433105
1761468505121499400,2.48249951171875,0.12334205955266953,0.23620453476905823,0.3238832354545593
1761468505131453200,2.492453125,0.18596044182777405,0.4912536144256592,0.47212889790534973
1761468505141408500,2.502408447265625,0.24298004806041718,0.6582074761390686,0.5512505173683167
1761468505151363300,2.51236328125,0.2897672653198242,0.7302441596984863,0.5817673802375793
1761468505161318400,2.522318359375,0.324227511882782,0.7221699357032776,0.5875042080879211
1761468505171272200,2.532272216796875,0.35860225558280945,0.6456930041313171,0.5832559466362
1761468505181227500,2.5422275390625,0.39152711629867554,0.5116166472434998,0.5657185316085815
1761468505191182300,2.552182373046875,0.41715607047080994,0.3270907402038574,0.5415969491004944
1761468505201137400,2.562137451171875,0.4192411005496979,0.1318201869726181,0.505821943283081
1761468505211091200,2.57209130859375,0.3861214816570282,-0.04299715533852577,0.46595093607902527
1761468505221046500,2.582046630859375,0.32456234097480774,-0.1811184138059616,0.4249427020549774
1761468505231001300,2.59200146484375,0.25156351923942566,-0.2675316035747528,0.3706935942173004
1761468505240956400,2.601956298828125,0.18435177206993103,-0.3083798587322235,0.2990751564502716
1761468505250911200,2.6119111328125,0.13285262882709503,-0.319960355758667,0.21556426584720612
1761468505260865500,2.621865478515625,0.08900918066501617,-0.31543415784835815,0.1201264038681984
1761468505270820400,2.6318203125,0.05973118543624878,-0.28140801191329956,0.02791764587163925
1761468505280775400,2.641775390625,0.049097128212451935,-0.20673678815364838,-0.03189545124769211
1761468505290730200,2.651730224609375,0.05214698240160942,-0.11668147891759872,-0.06418655067682266
1761468505300684500,2.6616845703125,0.07115831971168518,-0.038530703634023666,-0.07243595272302628
1761468505310639400,2.671639404296875,0.09690043330192566,0.025801414623856544,-0.06445472687482834
1761468505320594400,2.681594482421875,0.11903099715709686,0.06417921185493469,-0.053479209542274475
1761468505330548700,2.691548828125,0.13061361014842987,0.05178406462073326,-0.04105556383728981
1761468505340502800,2.701502685546875,0.13814722001552582,-0.006772896274924278,-0.025326833128929138
1761468505350457600,2.71145751953125,0.1452527940273285,-0.0846376046538353,-0.0062159881927073
1761468505360412700,2.72141259765625,0.1600373387336731,-0.15544326603412628,0.0046683852560818195
1761468505370367700,2.73136767578125,0.1793718785047531,-0.20576556026935577,0.005504085216671228
1761468505380322800,2.74132275390625,0.2032044529914856,-0.2272561490535736,-0.006420918740332127
1761468505390276600,2.751276611328125,0.2248825877904892,-0.22794032096862793,-0.030943039804697037
1761468505400231700,2.761231689453125,0.2360888421535492,-0.1943749636411667,-0.0607416145503521
1761468505410186800,2.771186767578125,0.23300676047801971,-0.15127170085906982,-0.09637097269296646
1761468505420141800,2.781141845703125,0.21898271143436432,-0.10192025452852249,-0.12206532061100006
1761468505430095600,2.791095703125,0.19138143956661224,-0.06333717703819275,-0.1380583941936493
1761468505440050700,2.80105078125,0.15605302155017853,-0.04655909538269043,-0.14224162697792053
1761468505450005800,2.811005859375,0.120419941842556,-0.04747282713651657,-0.13569185137748718
1761468505459960600,2.820960693359375,0.08835344761610031,-0.0547444187104702,-0.12210620939731598
1761468505469914600,2.83091455078125,0.06104539334774017,-0.07520841807126999,-0.10957629978656769
1761468505479869700,2.84086962890625,0.04410747438669205,-0.09563722461462021,-0.10533354431390762
1761468505489824800,2.85082470703125,0.028144756332039833,-0.11262393742799759,-0.11018502712249756
1761468505499779600,2.860779541015625,0.024814307689666748,-0.11360473185777664,-0.12270747125148773
1761468505509733600,2.870733642578125,0.020990807563066483,-0.08974280953407288,-0.12579087913036346
1761468505519688700,2.880688720703125,0.02174363285303116,-0.06450817734003067,-0.12626665830612183
1761468505529643800,2.890643798828125,0.020230691879987717,-0.044987741857767105,-0.12302906066179276
1761468505539598600,2.9005986328125,0.018904540687799454,-0.037629179656505585,-0.12006845325231552
1761468505549553700,2.9105537109375,0.010977109894156456,-0.04721575975418091,-0.11893554031848907
1761468505559507700,2.9205078125,0.00142957316711545,-0.07142414152622223,-0.11863137781620026
1761468505569462800,2.930462890625,0.00023434648755937815,-0.09948267042636871,-0.11703987419605255
1761468505579417600,2.94041748046875,-0.0049340976402163506,-0.1259177029132843,-0.1116897463798523
1761468505589372700,2.95037255859375,-0.014231725595891476,-0.14214859902858734,-0.11020929366350174
1761468505599326700,2.96032666015625,-0.02645031176507473,-0.14371606707572937,-0.10486935824155807
1761468505609281800,2.97028173828125,-0.03891177847981453,-0.14781200885772705,-0.10209940373897552
1761468505619236600,2.980236572265625,-0.05487077310681343,-0.15599770843982697,-0.1077391505241394
1761468505629191700,2.990191650390625,-0.08213195204734802,-0.15707390010356903,-0.12051912397146225
1761468505639145700,3.000145751953125,-0.10712315887212753,-0.14040447771549225,-0.13676683604717255
1761468505649100800,3.010100830078125,-0.12945961952209473,-0.13245947659015656,-0.15280412137508392
1761468505659055600,3.0200556640625,-0.14985287189483643,-0.13007476925849915,-0.16804946959018707
1761468505669010700,3.0300107421875,-0.17626211047172546,-0.13632415235042572,-0.17520485818386078
1761468505678965800,3.0399658203125,-0.1979122906923294,-0.14293135702610016,-0.16710196435451508
1761468505688919800,3.049919921875,-0.21598289906978607,-0.14013822376728058,-0.1473492980003357
1761468505698874600,3.05987451171875,-0.23282191157341003,-0.12748047709465027,-0.11107435822486877
1761468505708829700,3.06982958984375,-0.2496941089630127,-0.1223863735795021,-0.0747712180018425
1761468505718784800,3.07978466796875,-0.260269433259964,-0.11548541486263275,-0.03614446148276329
1761468505728738800,3.08973876953125,-0.26957398653030396,-0.10594863444566727,-0.005460582673549652
1761468505738693600,3.099693603515625,-0.28425657749176025,-0.10323584079742432,-0.0006099638994783163
1761468505748648700,3.109648681640625,-0.3004531264305115,-0.11061759293079376,-0.008119812235236168
1761468505758603800,3.119603759765625,-0.31519439816474915,-0.12434961646795273,-0.025124933570623398
1761468505768557800,3.129557861328125,-0.32793253660202026,-0.13487309217453003,-0.04210364818572998
1761468505778512600,3.1395126953125,-0.3437845706939697,-0.13720470666885376,-0.059165555983781815
1761468505788467700,3.1494677734375,-0.3589022755622864,-0.1313236504793167,-0.0685124471783638
1761468505798422800,3.1594228515625,-0.37598636746406555,-0.10772838443517685,-0.07017753273248672
1761468505808377900,3.1693779296875,-0.3906284272670746,-0.07807222008705139,-0.053011324256658554
1761468505818331600,3.17933154296875,-0.3967706859111786,-0.03464697301387787,-0.009417837485671043
1761468505828286700,3.18928662109375,-0.389676034450531,0.03441891446709633,0.049729637801647186
1761468505838241800,3.19924169921875,-0.35975098609924316,0.10910851508378983,0.11917911469936371
1761468505848196900,3.20919677734375,-0.3217056095600128,0.13729168474674225,0.1787007600069046
1761468505858150700,3.219150634765625,-0.2879471480846405,0.113753542304039,0.20550768077373505
1761468505868105700,3.229105712890625,-0.25645580887794495,0.05491100251674652,0.20479793846607208
1761468505878060800,3.239060791015625,-0.22886386513710022,-0.022880321368575096,0.18777787685394287
1761468505888016000,3.249015869140625,-0.22356897592544556,-0.1460730880498886,0.14895059168338776
1761468505897969700,3.2589697265625,-0.25321418046951294,-0.3183368444442749,0.08500031381845474
1761468505907924700,3.2689248046875,-0.30582308769226074,-0.5029916167259216,0.0065238745883107185
1761468505917879800,3.2788798828125,-0.37363946437835693,-0.645289957523346,-0.06600921601057053
1761468505927834600,3.288834716796875,-0.4371683895587921,-0.7010741233825684,-0.11030957102775574
1761468505937788700,3.29878857421875,-0.48454245924949646,-0.648908257484436,-0.10290887206792831
1761468505947743700,3.30874365234375,-0.5022354125976562,-0.4722040295600891,-0.031136682257056236
1761468505957698800,3.31869873046875,-0.47447946667671204,-0.21960385143756866,0.08796218037605286
1761468505967653600,3.328653564453125,-0.40075865387916565,0.05576407536864281,0.24625088274478912
1761468505977607700,3.338607666015625,-0.30727243423461914,0.2830284833908081,0.4007796049118042
1761468505987562800,3.348562744140625,-0.23052066564559937,0.4188704788684845,0.5042389035224915
1761468505997517800,3.358517822265625,-0.16580314934253693,0.45245057344436646,0.5514304637908936
1761468506007472600,3.36847265625,-0.11475860327482224,0.4168979227542877,0.6070316433906555
1761468506017427700,3.378427734375,-0.106631800532341,0.34069371223449707,0.6268945932388306
1761468506027381800,3.3883818359375,-0.12298361212015152,0.23846960067749023,0.6298437714576721
1761468506037336800,3.3983369140625,-0.14302091300487518,0.13872820138931274,0.6240834593772888
1761468506047291600,3.408291748046875,-0.16363297402858734,0.0543600432574749,0.6192988753318787
1761468506057246700,3.418246826171875,-0.18285493552684784,-0.014913070015609264,0.6000542640686035
1761468506067200800,3.42820068359375,-0.19535714387893677,-0.08404180407524109,0.5583837628364563
1761468506077155800,3.43815576171875,-0.21623745560646057,-0.16236402094364166,0.4918994903564453
1761468506087110700,3.448110595703125,-0.253191202878952,-0.245071142911911,0.4039536416530609
1761468506097065700,3.458065673828125,-0.302172988653183,-0.32013022899627686,0.3081303834915161
1761468506107019800,3.468019775390625,-0.3489612638950348,-0.3711627721786499,0.20814943313598633
1761468506116974600,3.477974609375,-0.3957640826702118,-0.3955972194671631,0.11770009994506836
1761468506126929700,3.4879296875,-0.44344770908355713,-0.37295740842819214,0.02901177667081356
1761468506136884700,3.497884765625,-0.4855619966983795,-0.30379289388656616,-0.049918659031391144
1761468506146838800,3.5078388671875,-0.5274769067764282,-0.21036840975284576,-0.12780919671058655
1761468506156793600,3.517793701171875,-0.5633675456047058,-0.11877328902482986,-0.20806266367435455
1761468506166748700,3.527748779296875,-0.5919259786605835,-0.03741558641195297,-0.2972082495689392
1761468506176703700,3.537703857421875,-0.6038975119590759,0.01460551843047142,-0.38522014021873474
1761468506186658600,3.547658447265625,-0.6090089678764343,0.05377183109521866,-0.46238043904304504
1761468506196612600,3.557612548828125,-0.5938712954521179,0.09051620960235596,-0.5151939988136292
1761468506206567700,3.567567626953125,-0.5697382092475891,0.11098713427782059,-0.5481455326080322
1761468506216522800,3.577522705078125,-0.5344367027282715,0.1270350068807602,-0.5587954521179199
1761468506226477600,3.5874775390625,-0.4861283302307129,0.14996348321437836,-0.5510361194610596
1761468506236431600,3.597431640625,-0.4263608753681183,0.1848089098930359,-0.5334513187408447
1761468506246386700,3.60738671875,-0.3584550619125366,0.22168810665607452,-0.5031090974807739
1761468506256341800,3.617341796875,-0.29869264364242554,0.25085440278053284,-0.46922633051872253
1761468506266296600,3.627296630859375,-0.2519935965538025,0.26000234484672546,-0.4397469758987427
1761468506276250600,3.637250732421875,-0.2118295431137085,0.2660444378852844,-0.4112469553947449
1761468506286205700,3.647205810546875,-0.1751309335231781,0.2726040780544281,-0.38402944803237915
1761468506296160800,3.657160888671875,-0.14949707686901093,0.26613545417785645,-0.36094868183135986
1761468506306115600,3.667115478515625,-0.12887223064899445,0.25195491313934326,-0.331757515668869
1761468506316069600,3.677069580078125,-0.1110948920249939,0.2223495990037918,-0.30752232670783997
1761468506326025500,3.687025390625,-0.09322987496852875,0.17368805408477783,-0.29259610176086426
1761468506335980300,3.696980224609375,-0.09250656515359879,0.11929251253604889,-0.2824861407279968
1761468506345935400,3.706935302734375,-0.10503140836954117,0.043627843260765076,-0.2705695629119873
1761468506355889700,3.7168896484375,-0.12833289802074432,-0.03487396612763405,-0.256888210773468
1761468506365844500,3.726844482421875,-0.1500331312417984,-0.09368082135915756,-0.24306584894657135
1761468506375799300,3.73679931640625,-0.16363421082496643,-0.12375245243310928,-0.22910068929195404
1761468506385754400,3.74675439453125,-0.17353184521198273,-0.11512700468301773,-0.21380402147769928
1761468506395709400,3.75670947265625,-0.17802749574184418,-0.08569873124361038,-0.1976517289876938
1761468506405663500,3.76666357421875,-0.17887064814567566,-0.04714442044496536,-0.17548970878124237
1761468506415618300,3.776618408203125,-0.17120835185050964,0.006552696693688631,-0.13861942291259766
1761468506425573400,3.786573486328125,-0.16071921586990356,0.06254912167787552,-0.08535940945148468
1761468506435528400,3.796528564453125,-0.14863364398479462,0.11907845735549927,-0.029827140271663666
1761468506445482500,3.806482421875,-0.13542675971984863,0.17114299535751343,0.025644905865192413
1761468506455437300,3.816437255859375,-0.1277996301651001,0.20621182024478912,0.07401030510663986
1761468506465392400,3.826392333984375,-0.11352933943271637,0.23454810678958893,0.12006941437721252
1761468506475347500,3.836347412109375,-0.08746260404586792,0.24942338466644287,0.16106276214122772
1761468506485301500,3.846301513671875,-0.0449867807328701,0.2601167857646942,0.1975531280040741
1761468506495256300,3.85625634765625,-0.002193830208852887,0.2614203095436096,0.22233346104621887
1761468506505211400,3.86621142578125,0.037174880504608154,0.24801260232925415,0.23832760751247406
1761468506515166500,3.87616650390625,0.07140576839447021,0.2200024425983429,0.25360554456710815
1761468506525120500,3.88612060546875,0.11547283083200455,0.1899377554655075,0.2717357873916626
1761468506535075300,3.896075439453125,0.15882723033428192,0.17093317210674286,0.2914213538169861
1761468506545030400,3.906030517578125,0.19409947097301483,0.14832426607608795,0.3010803759098053
1761468506554985500,3.9159853515625,0.22698301076889038,0.13300524652004242,0.2953181266784668
1761468506564939500,3.925939453125,0.24901799857616425,0.10742238909006119,0.26176947355270386
1761468506574894300,3.935894287109375,0.23975057899951935,0.06054176762700081,0.1923234462738037
1761468506584849400,3.945849365234375,0.195673406124115,-0.018368491902947426,0.08716506510972977
1761468506594804500,3.955804443359375,0.125345379114151,-0.10483378171920776,-0.0245023462921381
1761468506604759600,3.965759521484375,0.03689967095851898,-0.18211126327514648,-0.11930288374423981
1761468506614713300,3.97571337890625,-0.045298993587493896,-0.25713616609573364,-0.1735755205154419
1761468506624668400,3.98566845703125,-0.09976515918970108,-0.3085508942604065,-0.16960367560386658
1761468506636489500,3.997489501953125,-0.12315838038921356,-0.28519460558891296,-0.07739405333995819
1761468506646444500,4.007444580078125,-0.09217842668294907,-0.16998396813869476,0.06479747593402863
1761468506656398600,4.017398681640625,-0.023577261716127396,0.019615793600678444,0.23368795216083527
1761468506666353400,4.027353515625,0.07581176608800888,0.24025729298591614,0.39441725611686707
1761468506676308500,4.03730859375,0.18158666789531708,0.4332430064678192,0.5128291249275208
1761468506686263600,4.047263671875,0.2734107971191406,0.5715650916099548,0.5820615887641907
1761468506696217600,4.057217529296875,0.32970044016838074,0.6386271715164185,0.6051325798034668
1761468506706172400,4.06717236328125,0.3536338806152344,0.639538049697876,0.6022716164588928
1761468506716127500,4.07712744140625,0.3501880168914795,0.5893542766571045,0.5824891328811646
1761468506726082600,4.08708251953125,0.3343556523323059,0.47289183735847473,0.546308696269989
1761468506736036600,4.09703662109375,0.3107488453388214,0.30627116560935974,0.49284178018569946
1761468506745991400,4.106991455078125,0.27676692605018616,0.11639298498630524,0.4282054305076599
1761468506755946500,4.116946533203125,0.2405487298965454,-0.06384789198637009,0.35363665223121643
1761468506765901600,4.126901611328125,0.21390961110591888,-0.1989392340183258,0.2821991443634033
1761468506775856400,4.1368564453125,0.19919511675834656,-0.28109240531921387,0.2191663682460785
1761468506785810400,4.146810546875,0.19231149554252625,-0.32741403579711914,0.15775267779827118
1761468506795765500,4.156765625,0.18817533552646637,-0.35492128133773804,0.1029948890209198
1761468506805720600,4.166720458984375,0.17387250065803528,-0.37069398164749146,0.043244242668151855
1761468506815675400,4.17667529296875,0.15308572351932526,-0.38653475046157837,-0.015557821840047836
1761468506825629400,4.18662939453125,0.13214422762393951,-0.39619866013526917,-0.07988760620355606
1761468506835584500,4.19658447265625,0.11294949799776077,-0.3975672721862793,-0.14388976991176605
1761468506845539600,4.20653955078125,0.09120883792638779,-0.4019443988800049,-0.20004431903362274
1761468506855494400,4.216494384765625,0.061347611248493195,-0.39132824540138245,-0.23557861149311066
1761468506865448400,4.226448486328125,0.046263188123703,-0.36991244554519653,-0.25387758016586304
1761468506875403500,4.236403564453125,0.055302754044532776,-0.35194090008735657,-0.26202261447906494
1761468506885358600,4.246358642578125,0.08098709583282471,-0.33479946851730347,-0.26475486159324646
1761468506895313400,4.2563134765625,0.11133275181055069,-0.31133541464805603,-0.25364550948143005
1761468506905267500,4.266267333984375,0.1356673240661621,-0.28536364436149597,-0.2422008216381073
1761468506915222500,4.276222412109375,0.15089766681194305,-0.2467041313648224,-0.22861523926258087
1761468506925177600,4.286177490234375,0.1556062400341034,-0.1999114602804184,-0.22132174670696259
1761468506935132400,4.29613232421875,0.1526181846857071,-0.14808021485805511,-0.21601033210754395
1761468506945086500,4.30608642578125,0.1416711062192917,-0.08885785192251205,-0.2077101767063141
1761468506955665400,4.31666552734375,0.12525059282779694,-0.024406690150499344,-0.19023984670639038
1761468506965619500,4.326619384765625,0.10458540171384811,0.03180982917547226,-0.1737927347421646
1761468506975574500,4.336574462890625,0.07158670574426651,0.062470804899930954,-0.16220185160636902
1761468506985529300,4.346529296875,0.0332573801279068,0.07056600600481033,-0.1566442996263504
1761468506995484400,4.356484375,-0.011774541810154915,0.06134001165628433,-0.1496412456035614
1761468507005438500,4.3664384765625,-0.05479557067155838,0.05632151663303375,-0.13217951357364655
1761468507015393500,4.3763935546875,-0.08595827966928482,0.062180206179618835,-0.10961640626192093
1761468507025348400,4.386348388671875,-0.10579036176204681,0.06748288124799728,-0.08423399180173874
1761468507035303400,4.396303466796875,-0.1093083918094635,0.059827085584402084,-0.05782927945256233
1761468507045258500,4.406258544921875,-0.10982830077409744,0.05499427765607834,-0.02841363102197647
1761468507055212500,4.416212646484375,-0.11758555471897125,0.049910835921764374,-0.00479352381080389
1761468507065167400,4.42616748046875,-0.12069510668516159,0.04356338456273079,0.015543203800916672
1761468507075122400,4.436122314453125,-0.13080498576164246,0.02779374085366726,0.03738538548350334
1761468507085077500,4.446077392578125,-0.15135714411735535,-0.0031860116869211197,0.0625661090016365
1761468507095031600,4.456031494140625,-0.1807275414466858,-0.05930813401937485,0.08154938369989395
1761468507104986400,4.465986328125,-0.2173304557800293,-0.12088196724653244,0.09127897769212723
1761468507114941400,4.47594140625,-0.2677241265773773,-0.1816451996564865,0.10397239774465561
1761468507124896500,4.485896484375,-0.31635794043540955,-0.21858547627925873,0.12179494649171829
1761468507134850600,4.4958505859375,-0.36233076453208923,-0.22139830887317657,0.1404930055141449
1761468507144805400,4.505805419921875,-0.4021642506122589,-0.21481379866600037,0.15101848542690277
1761468507154760400,4.515760498046875,-0.4348447024822235,-0.21848709881305695,0.15002751350402832
1761468507164715500,4.525715576171875,-0.46669691801071167,-0.23736047744750977,0.136142760515213
1761468507174669600,4.535669677734375,-0.5009616613388062,-0.2646717429161072,0.11856775730848312
1761468507184624400,4.545624267578125,-0.538460910320282,-0.30044060945510864,0.09261948615312576
1761468507194579500,4.555579345703125,-0.5857128500938416,-0.3354089856147766,0.0708039328455925
1761468507204534500,4.565534423828125,-0.6261945366859436,-0.3441617786884308,0.054931189864873886
1761468507214488600,4.575488525390625,-0.6642439365386963,-0.327372670173645,0.039583660662174225
1761468507224443400,4.585443359375,-0.7058514952659607,-0.31575149297714233,0.02477838099002838
1761468507234398500,4.5953984375,-0.7507595419883728,-0.28348010778427124,0.02868044376373291
1761468507244353500,4.605353515625,-0.7891895174980164,-0.2092335969209671,0.05697779729962349
1761468507254308400,4.615308349609375,-0.8250439763069153,-0.1531362384557724,0.07787907868623734
1761468507264262400,4.625262451171875,-0.8508366346359253,-0.14278757572174072,0.06830409169197083
1761468507274217500,4.635217529296875,-0.8576242327690125,-0.1601700335741043,0.03053833357989788
1761468507284172500,4.645172607421875,-0.8632954955101013,-0.16789661347866058,-0.018404077738523483
1761468507294127400,4.65512744140625,-0.876624345779419,-0.1579720675945282,-0.07140631228685379
1761468507304081400,4.665081298828125,-0.904921293258667,-0.14924634993076324,-0.13377024233341217
1761468507314036500,4.675036376953125,-0.947130024433136,-0.1416930854320526,-0.20708175003528595
1761468507323991800,4.68499169921875,-1.0087705850601196,-0.13306114077568054,-0.2732608914375305
1761468507333946600,4.694946533203125,-1.0681712627410889,-0.12419147789478302,-0.32483699917793274
1761468507343900700,4.704900634765625,-1.1246618032455444,-0.11892041563987732,-0.35755038261413574
1761468507353855700,4.714855712890625,-1.164209008216858,-0.1042189672589302,-0.36584240198135376
1761468507363810800,4.724810791015625,-1.1913881301879883,-0.0864047035574913,-0.33649635314941406
1761468507373765600,4.734765625,-1.1931918859481812,-0.06872744113206863,-0.27119484543800354
1761468507383720700,4.744720703125,-1.166820764541626,-0.03666655719280243,-0.18129758536815643
1761468507393674800,4.7546748046875,-1.1221911907196045,0.010043424554169178,-0.08373533934354782
1761468507403629800,4.7646298828125,-1.0613054037094116,0.06729832291603088,0.017911553382873535
1761468507413584600,4.774584716796875,-0.9831221699714661,0.12415841221809387,0.10978049039840698
1761468507423539700,4.784539794921875,-0.8959792256355286,0.17813749611377716,0.1962689757347107
1761468507433493800,4.79449365234375,-0.8095471262931824,0.24333621561527252,0.2755390405654907
1761468507443448800,4.80444873046875,-0.7306024432182312,0.2774799168109894,0.3425043225288391
1761468507453403600,4.814403564453125,-0.6665550470352173,0.24444817006587982,0.38430875539779663
1761468507463358700,4.824358642578125,-0.6196174025535583,0.15648342669010162,0.40663090348243713
1761468507473312800,4.834312744140625,-0.5890701413154602,0.027321701869368553,0.40065768361091614
1761468507483267800,4.844267822265625,-0.5764794945716858,-0.12133293598890305,0.3555625379085541
1761468507493222700,4.85422265625,-0.5834482312202454,-0.25132104754447937,0.2811833918094635
1761468507503177700,4.864177734375,-0.6149263978004456,-0.3376374840736389,0.18861670792102814
1761468507513131800,4.8741318359375,-0.6710514426231384,-0.39085811376571655,0.0899314135313034
1761468507523086800,4.8840869140625,-0.7418746948242188,-0.41515815258026123,-0.015995845198631287
1761468507533041700,4.894041748046875,-0.8210472464561462,-0.42338651418685913,-0.1265207678079605
1761468507542996700,4.903996826171875,-0.8944909572601318,-0.431057870388031,-0.24265412986278534
1761468507552950800,4.91395068359375,-0.9450652003288269,-0.4308575987815857,-0.3501850962638855
1761468507562905900,4.92390576171875,-0.9571061730384827,-0.3960086405277252,-0.4422438144683838
1761468507572860700,4.933860595703125,-0.938025712966919,-0.34802860021591187,-0.5159009695053101
1761468507582815700,4.943815673828125,-0.9004356861114502,-0.2847208082675934,-0.5645489692687988
1761468507592770800,4.953770751953125,-0.8537991642951965,-0.21983236074447632,-0.5847421288490295
1761468507602724900,4.963724853515625,-0.8019688725471497,-0.1426907181739807,-0.5863767862319946
1761468507612679700,4.9736796875,-0.7496159076690674,-0.0786086767911911,-0.5755726099014282
1761468507622634800,4.983634765625,-0.7026984095573425,-0.030223336070775986,-0.5519284605979919
1761468507632589800,4.99358984375,-0.6661345362663269,0.0013622860424220562,-0.5174319744110107
1761468507642543900,5.0035439453125,-0.6369709968566895,0.019333738833665848,-0.4736805260181427
1761468507652498700,5.013498779296875,-0.6088589429855347,0.029714474454522133,-0.4214295446872711
1761468507662453800,5.023453857421875,-0.5779597163200378,0.037136953324079514,-0.36575061082839966
1761468507672408800,5.033408935546875,-0.5462492108345032,0.03539071977138519,-0.31479236483573914
1761468507682363000,5.04336279296875,-0.5208223462104797,0.02009645849466324,-0.2714383900165558
1761468507692317700,5.053317626953125,-0.49866482615470886,0.005011513829231262,-0.23479251563549042
1761468507702272800,5.063272705078125,-0.47574153542518616,0.001211219816468656,-0.2062113881111145
1761468507712227800,5.073227783203125,-0.4554218649864197,0.015119578689336777,-0.18977037072181702
1761468507722182000,5.083181884765625,-0.4307408332824707,0.03675008565187454,-0.18320530652999878
1761468507732136700,5.09313671875,-0.40817001461982727,0.053787924349308014,-0.1845451444387436
1761468507742091800,5.103091796875,-0.38341641426086426,0.06191278249025345,-0.1932487189769745
1761468507752046800,5.113046875,-0.3589438199996948,0.058942556381225586,-0.19645357131958008
1761468507762001000,5.1230009765625,-0.3341989815235138,0.03556113690137863,-0.18823999166488647
1761468507771955700,5.132955810546875,-0.3006969392299652,0.017391983419656754,-0.1647932529449463
1761468507781910800,5.142910888671875,-0.2659341096878052,0.004488980397582054,-0.127853661775589
1761468507791865900,5.152865966796875,-0.22614622116088867,0.007430441677570343,-0.09294122457504272
1761468507801820700,5.162820556640625,-0.17765778303146362,0.01692301221191883,-0.0661783218383789
1761468507811774700,5.172774658203125,-0.13324904441833496,0.024290114641189575,-0.052270229905843735
1761468507821729500,5.1827294921875,-0.09453153610229492,0.02018275111913681,-0.05231606587767601
1761468507831684900,5.192684814453125,-0.0576920248568058,0.0027347849681973457,-0.05843973904848099
1761468507841639700,5.2026396484375,-0.024768522009253502,-0.025925051420927048,-0.07034870237112045
1761468507851593700,5.21259375,0.005363547243177891,-0.05338037759065628,-0.07427126914262772
1761468507861548500,5.222548583984375,0.02939804084599018,-0.07974960654973984,-0.06619174033403397
1761468507871504000,5.23250390625,0.03373419865965843,-0.09334371238946915,-0.0452483706176281
1761468507881458700,5.242458740234375,0.028272800147533417,-0.09804534912109375,-0.003606222104281187
1761468507891412700,5.252412841796875,0.016274195164442062,-0.09483756870031357,0.05960177630186081
1761468507901367600,5.262367431640625,-0.0022273752838373184,-0.08346910029649734,0.1400049477815628
1761468507911323000,5.272322998046875,-0.02227352187037468,-0.03753197193145752,0.22231899201869965
1761468507921277700,5.282277587890625,-0.0348796471953392,0.001167657901532948,0.2867884039878845
1761468507931231700,5.292231689453125,-0.04690062254667282,0.024318251758813858,0.31827017664909363
1761468507941186600,5.3021865234375,-0.060298457741737366,0.046053431928157806,0.3272477388381958
1761468507951142000,5.312141845703125,-0.06954362243413925,0.06827884912490845,0.3184632956981659
1761468507961096700,5.3220966796875,-0.07254227250814438,0.09662578999996185,0.2963022291660309
1761468507971050800,5.33205078125,-0.06506012380123138,0.08740299940109253,0.2520492672920227
1761468507981005600,5.342005615234375,-0.05861746519804001,-0.0077611836604774,0.17563337087631226
1761468507990961000,5.3519609375,-0.07150982320308685,-0.20537811517715454,0.0744234025478363
1761468508000915700,5.361915771484375,-0.12081591784954071,-0.45961761474609375,-0.021229689940810204
1761468508010869800,5.371869873046875,-0.18835873901844025,-0.6838831901550293,-0.06362108886241913
1761468508020824600,5.381824462890625,-0.2648952007293701,-0.8010650873184204,-0.030751388520002365
1761468508030780000,5.39177978515625,-0.3298766016960144,-0.7509534955024719,0.09531360119581223
1761468508040734700,5.401734619140625,-0.3720425069332123,-0.5378572344779968,0.2980155050754547
1761468508050689800,5.411689697265625,-0.3704525828361511,-0.2032451331615448,0.5290071964263916
1761468508060643600,5.4216435546875,-0.3257359266281128,0.17020423710346222,0.7187328338623047
1761468508070599000,5.431598876953125,-0.23378150165081024,0.5050437450408936,0.8194546103477478
1761468508080553700,5.4415537109375,-0.13149294257164001,0.7838095426559448,0.8336691856384277
1761468508090508800,5.4515087890625,-0.040728695690631866,0.9691106677055359,0.7909752726554871
1761468508100462600,5.461462646484375,0.042277246713638306,1.0462583303451538,0.7200714945793152
1761468508110418000,5.47141796875,0.11452054977416992,1.0161608457565308,0.6560682654380798
1761468508120372700,5.481372802734375,0.20002762973308563,0.9017314314842224,0.6151168942451477
1761468508130327800,5.491327880859375,0.26990923285484314,0.709069013595581,0.5667182207107544
1761468508140281600,5.501281494140625,0.32468917965888977,0.42111706733703613,0.5048731565475464
1761468508150237000,5.51123681640625,0.3542478680610657,0.0980742946267128,0.44781169295310974
1761468508160191700,5.521191650390625,0.34023869037628174,-0.19374899566173553,0.3599923551082611
1761468508170146800,5.531146728515625,0.2896689772605896,-0.3981173038482666,0.27431154251098633
1761468508180100600,5.5411005859375,0.22883620858192444,-0.5231278538703918,0.17594197392463684
1761468508190056000,5.551055908203125,0.17983749508857727,-0.5972292423248291,0.05659240484237671
1761468508200010800,5.5610107421875,0.14330452680587769,-0.6016777753829956,-0.06848495453596115
1761468508209965800,5.5709658203125,0.11656665802001953,-0.5442389845848083,-0.18791042268276215
1761468508219919600,5.580919677734375,0.10582723468542099,-0.4718499183654785,-0.29748407006263733
1761468508229875000,5.590875,0.10668583959341049,-0.4168716073036194,-0.39315706491470337
1761468508239829800,5.600829833984375,0.11525259166955948,-0.3727816045284271,-0.45207732915878296
1761468508249784800,5.610784912109375,0.12826532125473022,-0.34416672587394714,-0.47578370571136475
1761468508259738600,5.620738525390625,0.1493217796087265,-0.3203505873680115,-0.46703198552131653
1761468508269694000,5.63069384765625,0.1750178188085556,-0.3061692416667938,-0.44169309735298157
1761468508279648800,5.640648681640625,0.19323310256004333,-0.3050152659416199,-0.4087395966053009
1761468508289603600,5.650603515625,0.1934504210948944,-0.32348668575286865,-0.3849354684352875
1761468508299557600,5.6605576171875,0.17621533572673798,-0.35608911514282227,-0.3736596703529358
1761468508309513000,5.670512939453125,0.1461746096611023,-0.39876869320869446,-0.37284448742866516
1761468508319467800,5.6804677734375,0.10801651328802109,-0.4102007746696472,-0.36933472752571106
1761468508329421800,5.690421875,0.07541489601135254,-0.3682498633861542,-0.34953412413597107
1761468508339377000,5.700376953125,0.048306044191122055,-0.2739380896091461,-0.31639406085014343
1761468508349331000,5.7103310546875,0.029339278116822243,-0.14076565206050873,-0.2678888440132141
1761468508359285800,5.72028564453125,0.011171510443091393,0.0024118993896991014,-0.21120038628578186
1761468508369240800,5.73024072265625,-0.012151655741035938,0.13516993820667267,-0.15468385815620422
1761468508379196000,5.74019580078125,-0.04124205559492111,0.24360260367393494,-0.1106078028678894
1761468508389150000,5.75014990234375,-0.08023100346326828,0.3374587893486023,-0.07899634540081024
1761468508399104800,5.760104736328125,-0.12604445219039917,0.4180346429347992,-0.058966584503650665
1761468508409059800,5.770059814453125,-0.17296135425567627,0.46668103337287903,-0.0588131844997406
1761468508419015000,5.780014892578125,-0.22493363916873932,0.4840547442436218,-0.07399213314056396
1761468508428969000,5.789968994140625,-0.275558203458786,0.4687511622905731,-0.10838499665260315
1761468508438923800,5.799923828125,-0.3264157176017761,0.4159570634365082,-0.16118483245372772
1761468508448878800,5.80987890625,-0.3726292848587036,0.3356201648712158,-0.22926321625709534
1761468508458834000,5.819833984375,-0.4076927602291107,0.23006995022296906,-0.3030811548233032
1761468508468788000,5.8297880859375,-0.4446382522583008,0.1370294988155365,-0.3693709671497345
1761468508478742800,5.83974267578125,-0.47383490204811096,0.042724624276161194,-0.43666571378707886
1761468508488697900,5.84969775390625,-0.49004077911376953,-0.03731667995452881,-0.49501290917396545
1761468508498653000,5.85965283203125,-0.49741309881210327,-0.10439393669366837,-0.5348985195159912
1761468508508607000,5.86960693359375,-0.5039677023887634,-0.15974055230617523,-0.560005784034729
1761468508518561800,5.879561767578125,-0.5134919285774231,-0.21689331531524658,-0.566206693649292
1761468508528516900,5.889516845703125,-0.5188792943954468,-0.2628645896911621,-0.5630044341087341
1761468508538472000,5.899471923828125,-0.5212871432304382,-0.3185462951660156,-0.5554518103599548
1761468508548426000,5.909426025390625,-0.5200732946395874,-0.3563559949398041,-0.5251586437225342
1761468508558380800,5.919380859375,-0.5145949721336365,-0.3806867003440857,-0.4687073528766632
1761468508568336000,5.9293359375,-0.49847301840782166,-0.39083361625671387,-0.39857059717178345
1761468508578291000,5.939291015625,-0.47452065348625183,-0.38598838448524475,-0.31251734495162964
1761468508588245000,5.949244873046875,-0.4519716799259186,-0.35744622349739075,-0.21640171110630035
1761468508598199800,5.95919970703125,-0.43821656703948975,-0.3225086033344269,-0.11320258677005768
1761468508608155000,5.96915478515625,-0.42347225546836853,-0.26784029603004456,-0.011098591610789299
1761468508618110000,5.97910986328125,-0.4128521978855133,-0.20030830800533295,0.07977332174777985
1761468508628064000,5.98906396484375,-0.41341039538383484,-0.12551182508468628,0.14706900715827942
1761468508638018800,5.999018798828125,-0.42697903513908386,-0.05664239078760147,0.19060151278972626
1761468508647974000,6.008973876953125,-0.45284873247146606,0.002881390508264303,0.2149055153131485
1761468508657929000,6.018928955078125,-0.47256144881248474,0.05746197700500488,0.22130292654037476
1761468508667883000,6.028883056640625,-0.4763828217983246,0.06930531561374664,0.1984010636806488
1761468508677837800,6.038837890625,-0.4701875150203705,-0.004434284754097462,0.13921737670898438
1761468508687793000,6.04879296875,-0.4651666581630707,-0.15700970590114594,0.05026113986968994
1761468508697748000,6.058748046875,-0.46612972021102905,-0.3305584192276001,-0.03217025473713875
1761468508707702000,6.068701904296875,-0.48736414313316345,-0.48324117064476013,-0.08150850981473923
1761468508717656800,6.07865673828125,-0.5314049124717712,-0.5992834568023682,-0.09929552674293518
1761468508727612000,6.08861181640625,-0.5873659253120422,-0.6866601705551147,-0.10232194513082504
1761468508737567000,6.09856689453125,-0.6380833387374878,-0.7164158225059509,-0.09722328931093216
1761468508747521800,6.108521728515625,-0.6791394352912903,-0.6421735286712646,-0.06510716676712036
1761468508757475800,6.118475830078125,-0.7083128690719604,-0.467528760433197,-0.014321980997920036
1761468508767430700,6.1284306640625,-0.7099653482437134,-0.22073496878147125,0.06206014007329941
1761468508777386000,6.138385986328125,-0.6738625764846802,0.04056783765554428,0.16011694073677063
1761468508787340800,6.1483408203125,-0.6072390675544739,0.2516321539878845,0.2661573588848114
1761468508797294800,6.158294921875,-0.5215405225753784,0.3916698396205902,0.38952505588531494
1761468508807249700,6.168249755859375,-0.432883083820343,0.4599740505218506,0.5235310792922974
1761468508817205000,6.178205078125,-0.3493819832801819,0.4549531638622284,0.6471611857414246
1761468508827159800,6.188159912109375,-0.2724757492542267,0.3938501477241516,0.7354843616485596
1761468508837113900,6.19811376953125,-0.20131534337997437,0.3127870559692383,0.7892594337463379
1761468508847068700,6.208068603515625,-0.13014476001262665,0.2255035638809204,0.8151592016220093
1761468508857023700,6.218023681640625,-0.0703398585319519,0.13140955567359924,0.8010317087173462
1761468508866978800,6.227978759765625,-0.036586690694093704,0.03879254311323166,0.7461476922035217
1761468508876932900,6.237932861328125,-0.024221252650022507,-0.052299484610557556,0.6594771146774292
1761468508886887700,6.2478876953125,-0.03074546530842781,-0.13289739191532135,0.549959123134613
1761468508896842800,6.2578427734375,-0.055363986641168594,-0.2156243473291397,0.4375765919685364
1761468508906797800,6.2677978515625,-0.09821052104234695,-0.29376763105392456,0.3211216330528259
1761468508916752000,6.277751953125,-0.1514211744070053,-0.3447650969028473,0.20422691106796265
1761468508926706700,6.287706787109375,-0.2075643390417099,-0.37600982189178467,0.09170009195804596
1761468508936661800,6.297661865234375,-0.2630727291107178,-0.38576415181159973,-0.010070277377963066
1761468508946616800,6.307616943359375,-0.31349995732307434,-0.3770127296447754,-0.09159602969884872
1761468508956571000,6.31757080078125,-0.34792864322662354,-0.358790785074234,-0.15341319143772125
1761468508966525700,6.327525634765625,-0.360446035861969,-0.3567878305912018,-0.19711913168430328
1761468508976480800,6.337480712890625,-0.35845690965652466,-0.35806769132614136,-0.218294158577919
1761468508986435800,6.347435791015625,-0.3473872244358063,-0.3325500786304474,-0.2101062685251236
1761468508996390000,6.357389892578125,-0.32690563797950745,-0.2754809260368347,-0.1846136897802353
1761468509006344700,6.3673447265625,-0.3017489016056061,-0.2000008225440979,-0.14821574091911316
1761468509016299800,6.3772998046875,-0.26652538776397705,-0.09437677264213562,-0.09965412318706512
1761468509026254800,6.3872548828125,-0.23006539046764374,0.061326008290052414,-0.03114856779575348
1761468509036209000,6.397208984375,-0.18584737181663513,0.26034387946128845,0.05063191428780556
1761468509046163700,6.407163818359375,-0.15141242742538452,0.44925305247306824,0.11906636506319046
1761468509056118800,6.417118896484375,-0.12436394393444061,0.5767225027084351,0.15272027254104614
1761468509066073900,6.427073974609375,-0.1107432097196579,0.6353346705436707,0.15366490185260773
1761468509076028000,6.43702783203125,-0.11257556080818176,0.6386558413505554,0.13311085104942322
1761468509085982700,6.446982666015625,-0.11996849626302719,0.5944622755050659,0.10698363929986954
1761468509095937800,6.456937744140625,-0.137992724776268,0.5072132349014282,0.0916152074933052
1761468509105892900,6.466892822265625,-0.15493787825107574,0.4129149913787842,0.08971184492111206
1761468509115847000,6.476846923828125,-0.16283266246318817,0.3231373727321625,0.09905101358890533
1761468509125801700,6.4868017578125,-0.16202332079410553,0.24014317989349365,0.09800439327955246
1761468509135756800,6.4967568359375,-0.1509389877319336,0.16706329584121704,0.08354539424180984
1761468509145711900,6.5067119140625,-0.13704927265644073,0.10248909145593643,0.04994748532772064
1761468509155666000,6.516666015625,-0.13428661227226257,0.037402186542749405,-0.0020131843630224466
1761468509165620700,6.526620849609375,-0.1441754549741745,-0.020955659449100494,-0.0636613667011261
1761468509175575800,6.536575927734375,-0.1568170040845871,-0.05714450776576996,-0.12648417055606842
1761468509185531000,6.54653076171875,-0.16892479360103607,-0.08524458855390549,-0.18298472464084625
1761468509195486000,6.55648583984375,-0.17379130423069,-0.11782383918762207,-0.21937265992164612
1761468509205439700,6.566439697265625,-0.18685011565685272,-0.14260640740394592,-0.222797229886055
1761468509215394800,6.576394775390625,-0.20059815049171448,-0.1631416380405426,-0.19556407630443573
1761468509225350000,6.586349853515625,-0.20585788786411285,-0.1777711808681488,-0.1637755185365677
1761468509235304000,6.596303955078125,-0.19667461514472961,-0.1678897738456726,-0.14563776552677155
1761468509245258800,6.6062587890625,-0.18093666434288025,-0.130501389503479,-0.14479273557662964
1761468509255213800,6.6162138671875,-0.1537618339061737,-0.057276684790849686,-0.16163353621959686
1761468509265169000,6.6261689453125,-0.1267067790031433,0.01901382766664028,-0.186857670545578
1761468509275123000,6.636123046875,-0.08830676972866058,0.07540453970432281,-0.19654721021652222
1761468509285077800,6.646077880859375,-0.04665572941303253,0.1406162977218628,-0.16659224033355713
1761468509295032800,6.65603271484375,-0.00197511981241405,0.1991642862558365,-0.10826922208070755
1761468509304988000,6.66598779296875,0.044922880828380585,0.23992450535297394,-0.05175374448299408
1761468509314942700,6.675942626953125,0.08703922480344772,0.27498066425323486,-0.020212993025779724
1761468509324897500,6.6858974609375,0.1149776503443718,0.29482439160346985,-0.038748063147068024
1761468509334852600,6.6958525390625,0.12853561341762543,0.24248844385147095,-0.11977250128984451
1761468509344807700,6.7058076171875,0.13589340448379517,0.0614616684615612,-0.2464500218629837
1761468509354762500,6.715762451171875,0.12602293491363525,-0.18702302873134613,-0.3506087064743042
1761468509364716500,6.725716552734375,0.1023748591542244,-0.39827802777290344,-0.37395477294921875
1761468509374671600,6.735671630859375,0.07050710916519165,-0.5267560482025146,-0.322663277387619
1761468509384626700,6.745626708984375,0.05226339027285576,-0.5313358902931213,-0.20930691063404083
1761468509394581500,6.75558154296875,0.04759971797466278,-0.36890092492103577,-0.04455092176795006
1761468509404535600,6.76553564453125,0.07385396212339401,-0.06519828736782074,0.15822827816009521
1761468509414490600,6.77549072265625,0.13484327495098114,0.26392096281051636,0.3426534831523895
1761468509424445700,6.78544580078125,0.20548681914806366,0.5037878751754761,0.4714767038822174
1761468509434400500,6.795400390625,0.2568275034427643,0.6441769599914551,0.5512258410453796
1761468509444354600,6.8053544921875,0.2904219627380371,0.687227189540863,0.5793440341949463
1761468509454309600,6.8153095703125,0.3127421736717224,0.6689050197601318,0.57530277967453
1761468509464264700,6.8252646484375,0.3258310556411743,0.6318591237068176,0.5459712147712708
1761468509474219500,6.835219482421875,0.32728415727615356,0.5548695921897888,0.4936588406562805
1761468509484173600,6.845173583984375,0.3142533004283905,0.443307101726532,0.4171701967716217
1761468509494128400,6.85512841796875,0.2948646545410156,0.3096195459365845,0.3193502128124237
1761468509504083700,6.865083740234375,0.27747446298599243,0.1474229246377945,0.20679569244384766
1761468509514038500,6.87503857421875,0.27329927682876587,-0.03640678897500038,0.0951642319560051
1761468509523992600,6.88499267578125,0.2709418535232544,-0.20240429043769836,0.0017501283437013626
1761468509533947400,6.894947509765625,0.2614864408969879,-0.30929744243621826,-0.056660547852516174
1761468509543902700,6.90490283203125,0.25512945652008057,-0.3544287085533142,-0.07924574613571167
1761468509553857500,6.914857421875,0.245831698179245,-0.32404401898384094,-0.08261555433273315
1761468509563811600,6.9248115234375,0.2351822555065155,-0.2442072629928589,-0.07232057303190231
1761468509573766400,6.934766357421875,0.23307612538337708,-0.14161834120750427,-0.06971946358680725
1761468509583721700,6.9447216796875,0.24492958188056946,-0.05407758057117462,-0.09163808077573776
1761468509593676500,6.954676513671875,0.2679976522922516,-0.008188375271856785,-0.13889168202877045
1761468509603630600,6.964630615234375,0.29101401567459106,0.015347311273217201,-0.20837248861789703
1761468509613585400,6.97458544921875,0.31826919317245483,0.01876048371195793,-0.28694865107536316
1761468509623540700,6.984540771484375,0.3521110713481903,-0.007843163795769215,-0.3695753514766693
1761468509633495600,6.99449560546875,0.3816239833831787,-0.06055261939764023,-0.4499398469924927
1761468509643449600,7.00444970703125,0.4037700295448303,-0.13448064029216766,-0.509459376335144
1761468509653404400,7.014404296875,0.42259564995765686,-0.22248660027980804,-0.5391024351119995
1761468509663359700,7.02435986328125,0.4372755289077759,-0.2780632972717285,-0.5307824611663818
1761468509673314600,7.034314453125,0.45779183506965637,-0.2650858759880066,-0.49828726053237915
1761468509683268600,7.0442685546875,0.4616182744503021,-0.1815667301416397,-0.43840792775154114
1761468509693223400,7.054223388671875,0.45943483710289,-0.05285552516579628,-0.36163800954818726
1761468509703178800,7.0641787109375,0.45396605134010315,0.05920949578285217,-0.29313430190086365
1761468509713133600,7.074133544921875,0.4437606930732727,0.10899243503808975,-0.26110538840293884
1761468509723087600,7.084087646484375,0.422712117433548,0.1368086189031601,-0.2537553310394287
1761468509733042400,7.09404248046875,0.3934224247932434,0.1576647162437439,-0.2594705820083618
1761468509742997800,7.103997802734375,0.36026233434677124,0.17434994876384735,-0.2676137387752533
1761468509752952600,7.11395263671875,0.33681386709213257,0.1896817535161972,-0.26620253920555115
1761468509762906600,7.12390673828125,0.3182913064956665,0.20257145166397095,-0.2600104510784149
1761468509772861400,7.133861328125,0.3118320107460022,0.18671083450317383,-0.2502375841140747
1761468509782816800,7.143816650390625,0.3144019544124603,0.14667659997940063,-0.24569740891456604
1761468509792771600,7.153771484375,0.31194499135017395,0.09247971326112747,-0.25641897320747375
1761468509802725600,7.1637255859375,0.30230116844177246,0.05958887189626694,-0.27531570196151733
1761468509812680400,7.173680419921875,0.2878771424293518,0.04526195302605629,-0.2994425892829895
1761468509822635800,7.1836357421875,0.2705511450767517,0.019807197153568268,-0.3191728889942169
1761468509832590600,7.193590576171875,0.24530373513698578,-0.014189369976520538,-0.3326500654220581
1761468509842544600,7.203544677734375,0.20839498937129974,-0.05922156199812889,-0.3284910023212433
1761468509852499500,7.21349951171875,0.1692000776529312,-0.1051936224102974,-0.30766960978507996
1761468509862454500,7.22345458984375,0.1310867816209793,-0.14691844582557678,-0.2882753908634186
1761468509872409600,7.23340966796875,0.10275841504335403,-0.16367873549461365,-0.2651679813861847
1761468509882363600,7.24336376953125,0.0765015110373497,-0.1701720654964447,-0.2228061407804489
1761468509892318500,7.253318359375,0.06233878806233406,-0.1573866903781891,-0.15614113211631775
1761468509902273500,7.2632734375,0.0709698274731636,-0.14594441652297974,-0.077398382127285
1761468509912228600,7.273228515625,0.08024666458368301,-0.16053476929664612,-0.008923552930355072
1761468509922182700,7.2831826171875,0.0871778130531311,-0.19195234775543213,0.045986566692590714
1761468509932137500,7.293137451171875,0.07726062834262848,-0.21209228038787842,0.08980675041675568
1761468509942092500,7.303092529296875,0.05040957033634186,-0.21379004418849945,0.12145868688821793
1761468509952047600,7.313047607421875,0.008617013692855835,-0.18562470376491547,0.14134347438812256
1761468509962001700,7.323001708984375,-0.04263525456190109,-0.12824369966983795,0.15878744423389435
1761468509971956500,7.33295654296875,-0.10057967156171799,-0.05497649312019348,0.17527340352535248
1761468509981911600,7.34291162109375,-0.15080635249614716,-0.0009497435530647635,0.19895769655704498
1761468509991866600,7.35286669921875,-0.18689581751823425,0.02918003499507904,0.23604677617549896
1761468510001820700,7.362820556640625,-0.2040303349494934,0.0535690002143383,0.28348618745803833
1761468510011775500,7.372775390625,-0.2109660506248474,0.034148477017879486,0.32016947865486145
1761468510021730600,7.38273046875,-0.21912997961044312,-0.05150464177131653,0.3061386048793793
1761468510031685600,7.392685546875,-0.23056824505329132,-0.15409311652183533,0.2382894903421402
1761468510041639700,7.4026396484375,-0.2426118552684784,-0.2268139272928238,0.13164374232292175
1761468510051594500,7.412594482421875,-0.2757604420185089,-0.267765074968338,0.01025466900318861
1761468510061549600,7.422549560546875,-0.3404265344142914,-0.29080408811569214,-0.11677571386098862
1761468510071504600,7.432504638671875,-0.43418848514556885,-0.30574437975883484,-0.22171054780483246
1761468510081458700,7.442458740234375,-0.5315778851509094,-0.2850992977619171,-0.2809089124202728
1761468510091413500,7.45241357421875,-0.6113021969795227,-0.20160795748233795,-0.2710559368133545
1761468510101368600,7.46236865234375,-0.6635448932647705,-0.07375571131706238,-0.2040252387523651
1761468510111323600,7.47232373046875,-0.6743045449256897,0.06092830002307892,-0.08686502277851105
1761468510121278500,7.482278564453125,-0.6470659971237183,0.1725376546382904,0.0594213493168354
1761468510131232500,7.492232421875,-0.5887157917022705,0.2333306074142456,0.20593994855880737
1761468510141187600,7.5021875,-0.508516788482666,0.25542309880256653,0.33210933208465576
1761468510151142700,7.512142578125,-0.4239325523376465,0.25283458828926086,0.43080416321754456
1761468510161097500,7.522097412109375,-0.33919501304626465,0.2337423861026764,0.49037641286849976
1761468510171051500,7.532051513671875,-0.26477140188217163,0.19709467887878418,0.5209183692932129
1761468510181006600,7.542006591796875,-0.20215356349945068,0.16910433769226074,0.5203393697738647
1761468510190961700,7.551961669921875,-0.1523212194442749,0.14249666035175323,0.5026810765266418
1761468510200916500,7.56191650390625,-0.11307262629270554,0.10124590247869492,0.45625659823417664
1761468510210870500,7.57187060546875,-0.0860186368227005,0.06506552547216415,0.39491918683052063
1761468510220825600,7.58182568359375,-0.07379765808582306,0.03290438652038574,0.3377520442008972
1761468510230780700,7.59178076171875,-0.07197295874357224,0.0031400565057992935,0.28864896297454834
1761468510240735500,7.601735595703125,-0.07089863717556,-0.014125216752290726,0.2527942657470703
1761468510250689500,7.611689453125,-0.0811123475432396,-0.02868364006280899,0.2186650037765503
1761468510260644600,7.62164453125,-0.0986977368593216,-0.03923854976892471,0.1789998859167099
1761468510270599700,7.631599609375,-0.11753443628549576,-0.05172352492809296,0.1292671412229538
1761468510280554500,7.641554443359375,-0.14176572859287262,-0.06309735029935837,0.07545317709445953
1761468510290508500,7.651508544921875,-0.16455069184303284,-0.04580378532409668,0.00629198644310236
1761468510300463600,7.661463623046875,-0.18819743394851685,0.00937158428132534,-0.07768946886062622
1761468510310418700,7.671418701171875,-0.20860590040683746,0.0803680568933487,-0.15682090818881989
1761468510320373500,7.68137353515625,-0.22640301287174225,0.12512408196926117,-0.2142666131258011
1761468510330327000,7.6913271484375,-0.23413784801959991,0.144018292427063,-0.2560858130455017
1761468510340282000,7.7012822265625,-0.23526836931705475,0.1370551884174347,-0.29397860169410706
1761468510350237200,7.7112373046875,-0.23118935525417328,0.11510800570249557,-0.3306165933609009
1761468510360192000,7.72119189453125,-0.21352380514144897,0.10784583538770676,-0.37271344661712646
1761468510370146000,7.73114599609375,-0.1856953352689743,0.11511681228876114,-0.414043128490448
1761468510380101000,7.74110107421875,-0.1487402468919754,0.12226872891187668,-0.43464186787605286
1761468510390056200,7.75105615234375,-0.110721156001091,0.15190249681472778,-0.4243151545524597
1761468510400011000,7.761010986328125,-0.08908990025520325,0.18994255363941193,-0.3947815001010895
1761468510409965000,7.770965087890625,-0.0761721283197403,0.19409434497356415,-0.3535768687725067
1761468510419920100,7.780920166015625,-0.06623747199773788,0.1685951054096222,-0.2918109893798828
1761468510429875200,7.790875244140625,-0.056558798998594284,0.12358007580041885,-0.22074012458324432
1761468510439830000,7.800830078125,-0.036707594990730286,0.08510565012693405,-0.14819136261940002
1761468510449784000,7.8107841796875,-0.01588578149676323,0.044916294515132904,-0.08650579303503036
1761468510459739100,7.8207392578125,-0.0018935338594019413,0.016867617145180702,-0.05940227210521698
1761468510469694200,7.830694091796875,0.006042144726961851,0.015119107440114021,-0.06266004592180252
1761468510479649000,7.84064892578125,0.01339593157172203,0.0049413051456213,-0.07507676631212234
1761468510489603000,7.85060302734375,0.015813082456588745,-0.013911835849285126,-0.07632926106452942
1761468510499558100,7.86055810546875,0.007076583337038755,-0.017341721802949905,-0.05341941490769386
1761468510509513200,7.87051318359375,-0.006258612964302301,-0.0018430330092087388,-0.028131501749157906
1761468510519468000,7.880468017578125,-0.015364759601652622,0.008666599169373512,6.984919309616089e-10
1761468510529422000,7.890422119140625,-0.016932088881731033,0.023705437779426575,0.031230557709932327
1761468510539377200,7.900377197265625,-0.01549797598272562,0.02566445805132389,0.05936552211642265
1761468510549332200,7.910332275390625,-0.013239873573184013,0.01794303208589554,0.08251924812793732
1761468510559287000,7.920287109375,-0.006481037009507418,0.00224236655049026,0.11650703847408295
1761468510569241000,7.930240966796875,0.0024872617796063423,-0.007336241193115711,0.15340164303779602
1761468510579196200,7.940196044921875,0.014315691776573658,0.014529643580317497,0.2035313844680786
1761468510589151200,7.950151123046875,0.03148151934146881,0.05128859356045723,0.24787499010562897
1761468510599106000,7.96010595703125,0.04162390157580376,0.06781164556741714,0.2775777578353882
1761468510609060000,7.97006005859375,0.04475615918636322,0.06463722139596939,0.28758683800697327
1761468510619015200,7.98001513671875,0.045038189738988876,0.05796041339635849,0.27556055784225464
1761468510628970200,7.98997021484375,0.055770255625247955,0.06971850991249084,0.25385740399360657
1761468510648256000,8.009256103515625,0.08736865967512131,0.10698039084672928,0.22925911843776703
1761468510658211300,8.01921142578125,0.09897135198116302,0.133133202791214,0.21384526789188385
1761468510668165000,8.0291650390625,0.11959913372993469,0.1656554639339447,0.18439097702503204
1761468510678120200,8.0391201171875,0.146231010556221,0.16787000000476837,0.11497149616479874
1761468510688075000,8.049074951171875,0.16741938889026642,0.10406120121479034,-0.022518988698720932
1761468510698030300,8.0590302734375,0.1642647534608841,-0.03410419449210167,-0.18853232264518738
1761468510707984100,8.068984130859375,0.14366759359836578,-0.22527095675468445,-0.3077620565891266
1761468510717939200,8.078939208984375,0.12551991641521454,-0.4152018427848816,-0.3374749720096588
1761468510727894000,8.08889404296875,0.10832761973142624,-0.571475625038147,-0.2781221568584442
1761468510737849300,8.098849365234376,0.09246227145195007,-0.5876015424728394,-0.14682163298130035
1761468510747803100,8.10880322265625,0.07946950942277908,-0.41343802213668823,0.04087609425187111
1761468510757758200,8.11875830078125,0.08327047526836395,-0.0850176140666008,0.24426856637001038
1761468510767713000,8.128713134765626,0.1315288245677948,0.2810192406177521,0.40118467807769775
1761468510777668400,8.13866845703125,0.19905923306941986,0.583869993686676,0.47364717721939087
1761468510787622100,8.1486220703125,0.25617656111717224,0.8103731870651245,0.47951143980026245
1761468510797577200,8.1585771484375,0.29930105805397034,0.9258543848991394,0.4332137107849121
1761468510807532000,8.168531982421875,0.3288663923740387,0.9409113526344299,0.3567197322845459
1761468510817487400,8.1784873046875,0.36000367999076843,0.8995768427848816,0.28184106945991516
1761468510827441200,8.188441162109376,0.3885205388069153,0.8013504147529602,0.22661377489566803
1761468510837396200,8.198396240234375,0.41472169756889343,0.6388195753097534,0.18544502556324005
1761468510847351000,8.20835107421875,0.44808444380760193,0.41072380542755127,0.1672244668006897
1761468510857306400,8.218306396484374,0.47273683547973633,0.11875952780246735,0.16780121624469757
1761468510867260200,8.22826025390625,0.4842928349971771,-0.1840924769639969,0.18658022582530975
1761468510877215200,8.23821533203125,0.4776674807071686,-0.42515259981155396,0.2118886560201645
1761468510887170000,8.248170166015624,0.4565579295158386,-0.5872437953948975,0.21166761219501495
1761468510897125000,8.258125,0.43520888686180115,-0.6439442038536072,0.18143294751644135
1761468510907079200,8.2680791015625,0.4095866084098816,-0.5898962020874023,0.1265563815832138
1761468510917034200,8.2780341796875,0.37385639548301697,-0.47546491026878357,0.04811429977416992
1761468510926989000,8.287989013671876,0.33225008845329285,-0.34147942066192627,-0.048195190727710724
1761468510936944000,8.297944091796875,0.2794140875339508,-0.22068512439727783,-0.16097377240657806
1761468510946898200,8.307898193359375,0.23217734694480896,-0.13183461129665375,-0.2646506428718567
1761468510957476000,8.31847607421875,0.19287340342998505,-0.08502426743507385,-0.3552177846431732
1761468510967430100,8.32843017578125,0.16113199293613434,-0.10357797890901566,-0.4167911410331726
1761468510977385000,8.338385009765625,0.13146096467971802,-0.17656661570072174,-0.45034152269363403
1761468510987340300,8.34834033203125,0.10856789350509644,-0.26306581497192383,-0.44327855110168457
1761468510997295000,8.358295166015624,0.10677877813577652,-0.3543541133403778,-0.417846143245697
1761468511007249200,8.368249267578125,0.12537962198257446,-0.41784095764160156,-0.383331298828125
1761468511017204000,8.378203857421875,0.16698789596557617,-0.4214094579219818,-0.3462277352809906
1761468511027159300,8.3881591796875,0.21914644539356232,-0.3723588287830353,-0.30617353320121765
1761468511037114000,8.398114013671876,0.26832789182662964,-0.26785361766815186,-0.2569752335548401
1761468511047068200,8.408068115234375,0.30633997917175293,-0.12759585678577423,-0.19426019489765167
1761468511057023000,8.41802294921875,0.3236762583255768,0.007917702198028564,-0.1504310816526413
1761468511066978300,8.427978271484376,0.32127007842063904,0.108558289706707,-0.12570255994796753
1761468511076933000,8.43793310546875,0.3052978813648224,0.17241597175598145,-0.1162005066871643
1761468511086887200,8.44788720703125,0.2763296365737915,0.20440265536308289,-0.12425710260868073
1761468511096842000,8.457842041015626,0.24893225729465485,0.22407038509845734,-0.1373680830001831
1761468511106797300,8.46779736328125,0.21402513980865479,0.2166052758693695,-0.16265718638896942
1761468511116752100,8.477752197265625,0.1732081025838852,0.17324310541152954,-0.20119471848011017
1761468511126706200,8.4877060546875,0.12188978493213654,0.10842444002628326,-0.2395077496767044
1761468511136661000,8.497660888671875,0.062091052532196045,0.02528754621744156,-0.27379509806632996
1761468511146616300,8.5076162109375,0.0043758247047662735,-0.06286841630935669,-0.2970128059387207
1761468511156571100,8.517571044921874,-0.031366728246212006,-0.15135347843170166,-0.3203476667404175
1761468511166525200,8.527525146484376,-0.05168558284640312,-0.2199098914861679,-0.3306242525577545
1761468511176480000,8.53747998046875,-0.06414609402418137,-0.2428140789270401,-0.32169219851493835
1761468511186435300,8.547435302734375,-0.06303315609693527,-0.2381993532180786,-0.29285362362861633
1761468511196390100,8.55739013671875,-0.05762874707579613,-0.20958811044692993,-0.24760377407073975
1761468511206344200,8.56734423828125,-0.045407503843307495,-0.17247988283634186,-0.18962383270263672
1761468511216299000,8.577299072265625,-0.03259092569351196,-0.1429021656513214,-0.12367154657840729
1761468511226254300,8.58725439453125,-0.02115824446082115,-0.1224200576543808,-0.058352991938591
1761468511236209200,8.597209228515625,-0.015177956782281399,-0.10948260873556137,0.006777876988053322
1761468511246163200,8.6071630859375,-0.01172143965959549,-0.11216574162244797,0.06907320767641068
1761468511256118000,8.617117919921874,-0.018361229449510574,-0.13185322284698486,0.11565665900707245
1761468511266073300,8.6270732421875,-0.036056336015462875,-0.16456936299800873,0.13871856033802032
1761468511276028200,8.637028076171875,-0.06151173636317253,-0.17574045062065125,0.14136475324630737
1761468511285982200,8.646982177734374,-0.09277617931365967,-0.16997070610523224,0.13979429006576538
1761468511295937000,8.65693701171875,-0.11938218772411346,-0.16384196281433105,0.1394091248512268
1761468511305892400,8.666892333984375,-0.1368543803691864,-0.1767260581254959,0.14489497244358063
1761468511315847200,8.67684716796875,-0.14554744958877563,-0.18837189674377441,0.16534411907196045
1761468511325801200,8.68680126953125,-0.1545497328042984,-0.18542005121707916,0.19907012581825256
1761468511335755800,8.696755859375,-0.16633647680282593,-0.14887310564517975,0.24564185738563538
1761468511345710800,8.7067109375,-0.17370757460594177,-0.08817461878061295,0.2845684885978699
1761468511355665700,8.716665771484376,-0.1842893809080124,-0.05315298214554787,0.30074506998062134
1761468511365619700,8.72661962890625,-0.20875637233257294,-0.09426020830869675,0.27099886536598206
1761468511375574800,8.73657470703125,-0.23816516995429993,-0.16048310697078705,0.19912610948085785
1761468511385529900,8.74652978515625,-0.27067387104034424,-0.20311473309993744,0.11380988359451294
1761468511395484700,8.756484619140625,-0.3242592513561249,-0.21330900490283966,0.021427292376756668
1761468511405438700,8.766438720703125,-0.4194425046443939,-0.18335510790348053,-0.08708293735980988
1761468511415393800,8.776393798828124,-0.5286077857017517,-0.11650359630584717,-0.17914575338363647
1761468511425348900,8.786348876953125,-0.6268014907836914,-0.016016405075788498,-0.23830974102020264
1761468511435303700,8.7963037109375,-0.7111729979515076,0.0771491751074791,-0.2670336365699768
1761468511445258800,8.8062587890625,-0.7703953385353088,0.14804944396018982,-0.2383042424917221
1761468511455212800,8.816212890625,-0.800050675868988,0.17335274815559387,-0.1569014936685562
1761468511465168000,8.82616796875,-0.7950356602668762,0.1650034636259079,-0.02596159279346466
1761468511475122700,8.836122802734375,-0.7576701641082764,0.12997637689113617,0.1399037390947342
1761468511485076700,8.84607666015625,-0.7003714442253113,0.06836866587400436,0.3074570596218109
1761468511495031800,8.85603173828125,-0.6283951997756958,0.0035573544446378946,0.4635111689567566
1761468511504987000,8.86598681640625,-0.5591903328895569,-0.048635806888341904,0.5915900468826294
1761468511514941700,8.875941650390626,-0.5091888904571533,-0.08686093986034393,0.6656143665313721
1761468511524896800,8.885896728515625,-0.4816472828388214,-0.0901065319776535,0.6688178777694702
1761468511534850800,8.895850830078125,-0.46761423349380493,-0.04238724336028099,0.6012063026428223
1761468511544806000,8.905805908203124,-0.46555960178375244,0.04220487177371979,0.47598904371261597
1761468511554760700,8.9157607421875,-0.4638495147228241,0.10413327068090439,0.3144310414791107
1761468511564715800,8.9257158203125,-0.45554018020629883,0.11860861629247665,0.14130719006061554
1761468511574669800,8.935669921875,-0.4541081488132477,0.09723348915576935,-0.0004041697829961777
1761468511584624600,8.945624755859376,-0.4663778841495514,0.05379733070731163,-0.09995152801275253
1761468511594579700,8.955579833984375,-0.49069735407829285,-0.005996311083436012,-0.15449003875255585
1761468511604534800,8.96553466796875,-0.5163955688476562,-0.05951865762472153,-0.19133274257183075
1761468511614488800,8.97548876953125,-0.5391452312469482,-0.10612639039754868,-0.2164170891046524
1761468511624443600,8.985443603515625,-0.5669372081756592,-0.11447460204362869,-0.23862919211387634
1761468511634398700,8.995398681640625,-0.6063390970230103,-0.10016297549009323,-0.26867884397506714
1761468511644353800,9.005353759765624,-0.6453114748001099,-0.07537347078323364,-0.3095381259918213
1761468511654307800,9.015307861328125,-0.6799116134643555,-0.020040739327669144,-0.3651556372642517
1761468511664262700,9.0252626953125,-0.6990072727203369,0.044938523322343826,-0.43650999665260315
1761468511674217700,9.0352177734375,-0.7024329304695129,0.11320365220308304,-0.5118158459663391
1761468511684172800,9.0451728515625,-0.6972528100013733,0.1671350598335266,-0.5879899859428406
1761468511694126800,9.055126953125,-0.6806893348693848,0.22261101007461548,-0.6474880576133728
1761468511704081700,9.06508154296875,-0.6423022747039795,0.2848096787929535,-0.6682050824165344
1761468511714036700,9.07503662109375,-0.5924882888793945,0.32604143023490906,-0.636374831199646
1761468511723991600,9.084991455078125,-0.5311886668205261,0.3495456874370575,-0.5687358975410461
1761468511733945900,9.09494580078125,-0.458233118057251,0.3435122072696686,-0.47544553875923157
1761468511743900700,9.104900634765626,-0.38180041313171387,0.3097052574157715,-0.3766143023967743
1761468511753855700,9.114855712890625,-0.31935346126556396,0.26818370819091797,-0.2865200638771057
1761468511763810600,9.124810546875,-0.27310898900032043,0.21612370014190674,-0.21729867160320282
1761468511773764900,9.134764892578126,-0.24750584363937378,0.15892115235328674,-0.17657433450222015
1761468511783719700,9.1447197265625,-0.23720580339431763,0.11052566766738892,-0.1629440039396286
1761468511793674800,9.1546748046875,-0.22797374427318573,0.0837036669254303,-0.17029543220996857
1761468511803629600,9.164629638671874,-0.22157736122608185,0.08031639456748962,-0.18522511422634125
1761468511813584000,9.174583984375,-0.20716960728168488,0.07105469703674316,-0.21035119891166687
1761468511823538700,9.18453857421875,-0.19146068394184113,0.04370881989598274,-0.21735824644565582
1761468511833493800,9.19449365234375,-0.1876964569091797,0.006550066638737917,-0.18938294053077698
1761468511843448600,9.204448486328126,-0.1963069885969162,-0.01041666604578495,-0.12769347429275513
1761468511853403000,9.21440283203125,-0.21308229863643646,-0.014511514455080032,-0.05034386366605759
1761468511863357700,9.224357666015624,-0.22034581005573273,-0.03427349776029587,0.009703225456178188
1761468511873312800,9.234312744140626,-0.21303313970565796,-0.05407124012708664,0.05347134917974472
1761468511883267600,9.244267578125,-0.1989186555147171,-0.055059004575014114,0.0780765637755394
1761468511893222000,9.254221923828124,-0.18777726590633392,-0.03851734474301338,0.0869225487112999
1761468511903176700,9.2641767578125,-0.1851700246334076,-0.014517467468976974,0.08791404217481613
1761468511913131800,9.2741318359375,-0.1861473023891449,-0.0010411514667794108,0.09011028707027435
1761468511923086600,9.284086669921875,-0.18190781772136688,0.005487055517733097,0.10530254989862442
1761468511933041000,9.294041015625,-0.17339210212230682,0.004617246799170971,0.14022418856620789
1761468511942995700,9.30399560546875,-0.16888976097106934,-0.012792102992534637,0.17921233177185059
1761468511952950800,9.31395068359375,-0.1803615838289261,-0.042355384677648544,0.21265575289726257
1761468511962905600,9.323905517578124,-0.19879518449306488,-0.05212652310729027,0.23744818568229675
1761468511972860000,9.33385986328125,-0.21626099944114685,-0.028590958565473557,0.2591044008731842
1761468511982814700,9.343814697265625,-0.2231934666633606,-0.008370642550289631,0.269804984331131
1761468511992769800,9.353769775390624,-0.2090485841035843,0.021576760336756706,0.27654582262039185
1761468512002724600,9.363724609375,-0.1808779239654541,0.06595567613840103,0.2823006510734558
1761468512012679000,9.373678955078125,-0.1436409205198288,0.11401282995939255,0.2856481075286865
1761468512022633700,9.3836337890625,-0.0989898294210434,0.17055067420005798,0.2918391525745392
1761468512032588800,9.3935888671875,-0.050079796463251114,0.1975085288286209,0.29562151432037354
1761468512042543600,9.403543701171875,-0.011618422344326973,0.1486232876777649,0.28349000215530396
1761468512052498000,9.413497802734375,0.012894309125840664,0.036419134587049484,0.24332556128501892
1761468512062452700,9.42345263671875,0.028099626302719116,-0.10491162538528442,0.17078958451747894
1761468512072407800,9.43340771484375,0.039683371782302856,-0.20807047188282013,0.09514549374580383
1761468512082362600,9.443362548828125,0.0458802804350853,-0.270752489566803,0.042669497430324554
1761468512092317000,9.45331689453125,0.04560469463467598,-0.30831968784332275,0.025631526485085487
1761468512102271700,9.463271728515625,0.0494963712990284,-0.30526185035705566,0.050166964530944824
1761468512112226800,9.473226806640625,0.06528598070144653,-0.2238769829273224,0.13545577228069305
1761468512122181600,9.483181640625,0.08637875318527222,-0.061973027884960175,0.2699989080429077
1761468512132136000,9.493135986328125,0.11520545184612274,0.12103506177663803,0.42503824830055237
1761468512142090800,9.5030908203125,0.144307941198349,0.2760656476020813,0.5605116486549377
1761468512152045800,9.5130458984375,0.15589535236358643,0.37399667501449585,0.6557531952857971
1761468512162000600,9.523000732421876,0.15351662039756775,0.3885926604270935,0.692082405090332
1761468512171955700,9.532955810546875,0.14953285455703735,0.3819975256919861,0.6792546510696411
1761468512181909800,9.54290966796875,0.13970819115638733,0.3838292360305786,0.6224960088729858
1761468512191864800,9.55286474609375,0.12182287871837616,0.39952194690704346,0.5186200737953186
1761468512201819600,9.562819580078125,0.09860783815383911,0.41254401206970215,0.3768045902252197
1761468512211774700,9.572774658203125,0.06629127264022827,0.4092346131801605,0.2085181623697281
1761468512221728800,9.582728759765626,0.04144824296236038,0.3655020594596863,0.028515098616480827
1761468512231683800,9.592683837890625,0.023382581770420074,0.24753527343273163,-0.10277041792869568
1761468512241638700,9.602638671875,0.0038344471249729395,0.06900814175605774,-0.16608655452728271
1761468512251593700,9.61259375,-0.00010329161887057126,-0.15035848319530487,-0.18222832679748535
1761468512261547800,9.6225478515625,-0.0038868444971740246,-0.35154271125793457,-0.1870744824409485
1761468512271502800,9.6325029296875,0.0002026479342021048,-0.48302382230758667,-0.19435589015483856
1761468512281457700,9.642457763671874,-0.003288223408162594,-0.5593487024307251,-0.21113434433937073
1761468512291412700,9.652412841796876,-0.018240971490740776,-0.5224887132644653,-0.24604734778404236
1761468512301366800,9.66236669921875,-0.049220193177461624,-0.3711055517196655,-0.2842312455177307
1761468512311321900,9.67232177734375,-0.08466964215040207,-0.20124447345733643,-0.2872825562953949
1761468512321276700,9.682276611328126,-0.11193721741437912,-0.08606328815221786,-0.25998836755752563
1761468512331232800,9.692232666015625,-0.1359487920999527,-0.04389951005578041,-0.25911736488342285
1761468512341186800,9.702186767578125,-0.15412485599517822,-0.050613872706890106,-0.3046334385871887
1761468512351141600,9.7121416015625,-0.1664257049560547,-0.09210830926895142,-0.3906613290309906
1761468512361096700,9.7220966796875,-0.16695326566696167,-0.12231814116239548,-0.4864538908004761
1761468512371051800,9.7320517578125,-0.14967317879199982,-0.13230809569358826,-0.5657123327255249
1761468512381005800,9.742005859375,-0.12606292963027954,-0.1462382972240448,-0.6070650815963745
1761468512390960600,9.751960693359376,-0.09863956272602081,-0.12782347202301025,-0.5994347333908081
1761468512400915700,9.761915771484375,-0.07913270592689514,-0.06573347747325897,-0.5414193868637085
1761468512410870800,9.771870849609375,-0.06730470061302185,0.009100210852921009,-0.4615006744861603
1761468512420824800,9.781824951171876,-0.05095502361655235,0.07735809683799744,-0.3937775492668152
1761468512430779600,9.791779541015625,-0.038246262818574905,0.15889357030391693,-0.32220980525016785
1761468512440734700,9.801734619140625,-0.03237985447049141,0.2019510269165039,-0.2537814676761627
1761468512450689800,9.811689697265624,-0.03095570020377636,0.21143029630184174,-0.18680879473686218
1761468512460643800,9.821643798828125,-0.03835609182715416,0.20487280189990997,-0.12911167740821838
1761468512470598700,9.8315986328125,-0.05223424360156059,0.17570438981056213,-0.10579074174165726
1761468512480553700,9.8415537109375,-0.06954105943441391,0.1319395899772644,-0.11720292270183563
1761468512490508800,9.8515087890625,-0.07874637842178345,0.09881548583507538,-0.12993279099464417
1761468512500462800,9.861462890625,-0.08478163927793503,0.045592471957206726,-0.1376943141222
1761468512510417700,9.871417724609374,-0.09173766523599625,-0.015634728595614433,-0.1452365219593048
1761468512520372700,9.881372802734376,-0.10261161625385284,-0.058178193867206573,-0.1594277173280716
1761468512530327800,9.891327880859375,-0.1169854924082756,-0.06518663465976715,-0.1602461189031601
1761468512540281900,9.90128173828125,-0.13083286583423615,-0.06809719651937485,-0.15875396132469177
1761468512550236700,9.911236572265626,-0.17020249366760254,-0.06958949565887451,-0.14052025973796844
1761468512560191700,9.921191650390625,-0.21928374469280243,-0.15017567574977875,-0.18886515498161316
1761468512570146800,9.931146728515625,-0.26439034938812256,-0.18679772317409515,-0.22416672110557556
1761468512580100900,9.941100830078126,-0.30227434635162354,-0.25942477583885193,-0.2553536891937256
1761468512590055700,9.9510556640625,-0.32980984449386597,-0.3127436637878418,-0.2525947690010071
1761468512600010800,9.9610107421875,-0.3561551570892334,-0.3396642506122589,-0.23752500116825104
1761468512609965800,9.9709658203125,-0.3607257306575775,-0.32114240527153015,-0.18322594463825226
