time,seconds_elapsed,z,y,x
1761469089294964700,0.05796484375,-0.33968905097246166,0.10481288506202399,-0.13619513466693461
1761469089304920800,0.0679208984375,-0.39825755979716776,0.07075082178860902,-0.1950304046690464
1761469089314876000,0.0778759765625,-0.29567046102583405,0.029437837538868188,-0.22609145949557422
1761469089324832000,0.08783203125,-0.13811433922648428,0.0061483665619045495,-0.15900091378018258
1761469089334786800,0.097786865234375,-0.028826281511783597,-0.013916808606311677,-0.08889054531957953
1761469089344742000,0.107741943359375,0.0527507624566555,0.004734773436933756,-0.06605787819940596
1761469089354698000,0.117697998046875,0.07624503529071808,0.03863631238639355,-0.061323287425562735
1761469089364652800,0.12765283203125,0.08573591721355915,0.06317936362102627,-0.07643748912289738
1761469089374608600,0.137608642578125,0.19369535667300222,0.09296024244390427,-0.028202194796688854
1761469089384564000,0.14756396484375,0.32706746980845924,0.1102480618532747,0.06870612768586724
1761469089394519800,0.157519775390625,0.4043032697021961,0.13602664623223246,0.16318364282492548
1761469089404475000,0.167474853515625,0.384814140856266,0.12658471801765261,0.19480744610074907
1761469089414431000,0.177430908203125,0.31093817278444763,0.10304645991139114,0.21312139368746427
1761469089424385800,0.1873857421875,0.1594943963855505,0.0698966161120683,0.23866996870283036
1761469089434342000,0.197341796875,-0.04716974745392799,0.046973713425174354,0.19921024763695894
1761469089444297000,0.207296875,-0.24448329462409019,0.016030366694182157,0.0726618430417031
1761469089454253000,0.217253173828125,-0.32143384783566,0.04098375229537487,-0.019885653882846237
1761469089464208000,0.227207763671875,-0.3321533947706222,-0.0017042466346174478,-0.060258434673026204
1761469089474163700,0.237163818359375,-0.31377602655887604,-0.06475077765621244,-0.06459511217046529
1761469089484119000,0.247119140625,-0.25239421387910843,-0.04074731319099664,-0.0002548515439033508
1761469089494075000,0.257074951171875,-0.24047347446084022,0.0006254384219646454,0.02800890071429312
1761469089504029700,0.26702978515625,-0.27602935648858545,-0.0260496564052999,0.056149172723293304
1761469089513985800,0.27698583984375,-0.2848942154675722,0.002208469829708338,0.03947901028823107
1761469089523940900,0.28694091796875,-0.28963059633970256,-0.011878069320321082,-0.030736097188480197
1761469089533897000,0.29689697265625,-0.23516192404925823,-0.07271861473023891,-0.06179229317680001
1761469089543851800,0.306851806640625,-0.10595569842159748,-0.0805050308227539,-0.07175766074359416
1761469089553806800,0.316806884765625,0.09504209021925926,-0.06635054100304842,-0.08565207485500723
1761469089563763000,0.326762939453125,0.2695616217792034,-0.08130553355067968,-0.09581596066858619
1761469089573717800,0.3367177734375,0.31794074502289293,-0.10599018521308898,-0.09621241264026612
1761469089583673900,0.346673828125,0.2713350611925125,-0.10821399874240159,-0.12643270579371602
1761469089593629000,0.35662890625,0.15425883381962777,-0.07799523995891212,-0.1577512790452689
1761469089603584800,0.366584716796875,0.015358897173404693,-0.07489084420278667,-0.20468265116605908
1761469089613539800,0.376539794921875,-0.1441489432156086,-0.07339870594888925,-0.20073676308449356
1761469089623496000,0.386495849609375,-0.27539690380394455,-0.02450856444314122,-0.1947428929645568
1761469089633450800,0.39645068359375,-0.3254787393122911,0.07401902980431914,-0.2077883620964363
1761469089643406800,0.40640673828125,-0.27036884650886056,0.09920680868327617,-0.15647044545449315
1761469089653362000,0.41636181640625,-0.15845219385623932,0.09861483413949608,-0.0685180943004787
1761469089663318000,0.426318115234375,-0.04475917918086052,0.052406917455047365,-0.010634279804304241
1761469089673272800,0.43627294921875,0.041437925803661346,0.001975391726195812,-0.010384323631227016
1761469089683229000,0.44622900390625,0.11506664111614226,-0.01744754001572728,-0.028621516187302767
1761469089693184000,0.45618408203125,0.16412790140509603,-0.02763692559674382,-0.007582783279195427
1761469089703139800,0.466139892578125,0.22858955992162228,-0.029487521899491546,0.017635865662060678
1761469089713095000,0.476094970703125,0.27016075671613216,-0.01327960668131709,0.05476316172499209
1761469089723050800,0.48605078125,0.2478799513250589,-0.020652765797823665,0.06573697568196803
1761469089733005800,0.496005859375,0.1521831965893507,-0.026312691255658865,0.029049641938880086
1761469089742962000,0.5059619140625,0.04428396288454532,-0.018572014001011848,-0.03515080835819244
1761469089752916700,0.515916748046875,-0.019378069686889647,-0.04549100058674812,-0.08288794390391557
1761469089762872800,0.525872802734375,-0.044458150407671926,-0.031058862869441508,-0.09942362977173179
1761469089772828000,0.535827880859375,-0.021680501410365104,0.003903875570744276,-0.05652615280952304
1761469089782782700,0.54578271484375,-0.030291677889227864,0.009573153378814458,-0.011753602690435945
1761469089792738800,0.55573876953125,-0.020732406905293464,0.017891776651889086,-0.0077810092650353905
1761469089802694000,0.56569384765625,0.015960370197892187,0.049834875009953976,-0.002214716907404363
1761469089812650000,0.57564990234375,0.0753162300080061,0.05259191863313317,0.028485943641513585
1761469089822604800,0.585604736328125,0.07480769596397877,0.04164762303158641,0.062403958801738914
1761469089832561000,0.595560791015625,0.007410568517446517,0.0675102324321866,0.04221150399204343
1761469089842516000,0.605515869140625,-0.02888590274453163,0.07106587908715009,0.01476966257598251
1761469089852471800,0.615471923828125,0.049636429828405375,0.06843611510545015,0.023692060428485272
1761469089862427000,0.625427001953125,0.1034708958685398,0.051558337801694866,0.047811917814984915
1761469089872383000,0.635383056640625,0.050179450663924215,0.031142011108249424,0.033177425925992425
1761469089882337800,0.645337890625,0.03404021676778793,0.019434476049244403,0.0274079391464591
1761469089892294000,0.6552939453125,0.07184709259271621,0.008761252474039792,0.008027933230809867
1761469089902249000,0.6652490234375,0.11121464186310767,-0.02810278954282403,-0.014825959340482949
1761469089912204800,0.675204833984375,0.10940613113641738,-0.03884761704951525,-0.03196710028816015
1761469089922159900,0.685159912109375,-0.0004980126500129699,-0.03880640825629234,-0.028275734956935045
1761469089932115700,0.69511572265625,-0.11170037955343723,-0.0031570027261972424,-0.02940678481347859
1761469089942071000,0.705071044921875,-0.09106851041316985,0.018016133683919907,-0.05214311541970819
1761469089952027000,0.71502685546875,-0.040325580647587775,-0.008203034069389104,-0.024283048591576515
1761469089961981700,0.724981689453125,0.06217617792785168,-0.03659560033902526,-0.001712064614892006
1761469089971937800,0.734937744140625,0.148318337854743,-0.0630485768482089,-0.04000259577091783
1761469089981892900,0.744892822265625,0.16160919658243655,-0.06766863786429167,-0.07160309123639017
1761469089991849000,0.754848876953125,0.1474988381654024,-0.08085413652136922,-0.06111812024228275
1761469090001803800,0.7648037109375,0.12680091805160046,-0.03731675422042608,0.006616458997689187
1761469090011759900,0.774759765625,0.0434440049290657,-0.0036871640801429744,0.06777290195636451
1761469090021715000,0.78471484375,-0.03952770826816559,0.034656595100462435,0.09396956561692059
1761469090031670800,0.7946708984375,-0.12184300338327884,0.07243336804807186,0.09833525001313537
1761469090041625900,0.8046259765625,-0.25270634856820107,0.07950579065233468,0.08685034472886473
1761469090051581000,0.814580810546875,-0.31664252190589903,0.1214160101428628,0.07948193485271185
1761469090061536800,0.824536865234375,-0.32573066824674607,0.11819500226974487,0.019509514046832918
1761469090071491800,0.834491943359375,-0.30798049202263356,0.0822109579578042,-0.004690094044990837
1761469090081448000,0.844447998046875,-0.24642449181973933,0.05928893205374479,0.00026833207998424766
1761469090091402800,0.85440283203125,-0.17279343841969966,0.039386253970861436,0.0192515206977725
1761469090101358800,0.86435888671875,-0.05154781640768051,0.027951690634340047,0.045371283197216686
1761469090111314000,0.87431396484375,0.047349195674061775,0.016167290946841238,0.0835186430228874
1761469090121270000,0.88427001953125,0.10612170263826846,-0.005728314518928528,0.060240972081571816
1761469090131224300,0.894224365234375,0.10287468354105948,-0.028093583323061465,0.02069678760264069
1761469090141180400,0.904180419921875,0.10171499211192131,-0.03564502161592245,-0.01971435243654996
1761469090151135500,0.914135498046875,0.10249649787843226,-0.05292378093600273,-0.03770849348437041
1761469090161091600,0.924091552734375,0.09009177433550357,-0.05655541543662548,-0.03525635109189897
1761469090171046400,0.93404638671875,0.051447278642654415,-0.07467340205982327,-0.05146477776672691
1761469090181002500,0.94400244140625,0.003998129725456237,-0.09045300886332988,-0.07649689115993678
1761469090190957600,0.95395751953125,0.024240122765302657,-0.04618775067925453,-0.07619407228846102
1761469090200913400,0.963913330078125,0.03545300617516041,-0.07019596438482403,-0.07426171598639339
1761469090210868500,0.973868408203125,0.08171265304684638,-0.09387859939783812,-0.07384436735715717
1761469090220824600,0.983824462890625,0.1528501360654831,-0.07805281536504625,-0.09590637889839708
1761469090230779400,0.993779296875,0.17007891876399517,-0.11076631357371806,-0.09472074931040406
1761469090240735500,1.003735595703125,0.08790157081484794,-0.13562427597641943,-0.1011843558339402
1761469090250690600,1.013690673828125,-0.056283028236031526,-0.12160554136559366,-0.12215232506077736
1761469090260646700,1.023646728515625,-0.18592998336851596,-0.096702424646914,-0.11580207925122231
1761469090270601500,1.0336015625,-0.24508710573613643,-0.06331511882990598,-0.09861969297770411
1761469090280557300,1.043557373046875,-0.1995136875629425,-0.03565729657560587,-0.06348696826547384
1761469090290512600,1.0535126953125,-0.07930208477377891,-0.03345584100857377,-0.014663864113949238
1761469090300468500,1.063468505859375,0.06923837139904498,-0.042349487690627574,0.03234831815809011
1761469090310423300,1.07342333984375,0.16833236735761165,-0.036922201944887635,0.019350925951637326
1761469090320378600,1.083378662109375,0.24482407088577746,-0.05480477237701416,-0.0026467881817370652
1761469090330334500,1.09333447265625,0.2723936303347349,-0.06989186687171459,-0.04348638276606798
1761469090340289500,1.10328955078125,0.28561902261078354,-0.09123992145732045,-0.08441014850251376
1761469090350245400,1.113245361328125,0.26274083584845065,-0.0994865024074912,-0.10699402849338949
1761469090360200400,1.123200439453125,0.24182781167924403,-0.08208616253435612,-0.0981167118916288
1761469090370156500,1.133156494140625,0.1857896981149912,-0.04170826717764139,-0.08219437214918435
1761469090380111400,1.143111328125,0.09976035091280937,-0.017599369576573373,-0.04548307300861924
1761469090390067500,1.1530673828125,-0.013981179079413413,-0.0025368250012397764,-0.02692618351150304
1761469090400022500,1.1630224609375,-0.177127083709836,0.03149652363434434,-0.019713731382042167
1761469090409978400,1.172978271484375,-0.32917584026455876,0.04811681904569268,-0.012488967760279773
1761469090419933400,1.182933349609375,-0.4659738361954689,0.04504471812397241,-0.017542744018509984
1761469090429889500,1.1928896484375,-0.5388420885294676,0.05287804209813475,-0.03452076682634651
1761469090439844400,1.20284423828125,-0.5239835420936346,0.05879705688357353,-0.0873774008102715
1761469090449800400,1.212800537109375,-0.42536183982193465,0.02964402763545513,-0.09960757150389253
1761469090459755500,1.222755615234375,-0.2573398535877466,-0.004724252042919397,-0.07529621013328433
1761469090469711600,1.232711669921875,-0.10191489859819412,-0.020523878721147776,-0.030956571538746355
1761469090479666400,1.24266650390625,0.05405716888010501,-0.030140871241688728,-0.03370572411641478
1761469090489622500,1.25262255859375,0.17488368869721888,-0.0407483361043036,-0.04630158631727099
1761469090499577600,1.26257763671875,0.22161270664632318,-0.044572862828522915,0.005601034877449273
1761469090509533400,1.272533447265625,0.19921967305243013,-0.04120703965723514,0.020878098986297843
1761469090519488500,1.282488525390625,0.16755203063488006,0.009264525821059941,0.00884454684332013
1761469090529444400,1.2924443359375,0.13108780159056185,0.010546966847032309,0.00895005304440856
1761469090539399400,1.3023994140625,0.05818623150885105,0.025730653584003445,0.027470482988655565
1761469090549355500,1.31235546875,0.04311258101761341,0.03641410629227757,0.033210049553960556
1761469090559310300,1.322310302734375,0.02277647995352745,0.05042626503184437,0.0387204104732722
1761469090569266400,1.332266357421875,-0.01801905629336834,0.036452392476052045,0.04861760817468166
1761469090579221500,1.342221435546875,-0.06810965963006019,0.018197335469722745,0.008370061199367045
1761469090589177300,1.35217724609375,-0.0670592737942934,-0.004224631957709789,-0.05061243525370955
1761469090599132400,1.36213232421875,-0.01383271051943302,-0.049768531775474543,-0.0656436348427087
1761469090609087500,1.37208740234375,0.006056815820932388,-0.09006123306676744,-0.057450391514971846
1761469090619043600,1.382043701171875,0.03911737390160561,-0.08618161515444517,-0.06608056495524943
1761469090628998400,1.391998291015625,0.06737023943960667,-0.07090367426276206,-0.05538615246154368
1761469090638954500,1.40195458984375,0.045752281871438025,-0.05693623144775629,-0.009828881705552338
1761469090648909600,1.41190966796875,0.03599427344501018,-0.030534838995337484,-0.011117241015657782
1761469090658865400,1.421865478515625,0.0021639000356197357,-0.010075257682055234,-0.0331428295366466
1761469090668820500,1.431820556640625,-0.10720365265607833,-0.008140051835775375,-0.034787820264697074
1761469090678776600,1.441776611328125,-0.2249322064578533,0.002243833404034376,-0.08191299792453646
1761469090688731400,1.4517314453125,-0.2649877379924059,0.011526479403674602,-0.1258014586854726
1761469090698687500,1.4616875,-0.236133983951807,0.012697130618244408,-0.13914689714461564
1761469090708642600,1.471642578125,-0.15164543645083903,0.018289251536875963,-0.11433876523301005
1761469090718598400,1.481598388671875,-0.01644610788822174,0.0403736575730145,-0.07917531658895313
1761469090728553500,1.491553466796875,0.11048691211044788,0.06792875010520219,-0.04276004125289619
1761469090738509300,1.50150927734375,0.18039397655129433,0.08255144195854663,0.006659384823963045
1761469090748464600,1.511464599609375,0.23223346938192843,0.13012187916785478,0.036247079162299634
1761469090758420500,1.52142041015625,0.2388742225706577,0.175505473857373,0.06501666205078363
1761469090768375300,1.531375244140625,0.1772404809564352,0.16397329536527394,0.06784319071359932
1761469090778331400,1.541331298828125,0.1160416236281395,0.16423720699846744,0.0567931697152555
1761469090788286500,1.551286376953125,0.0787228235810995,0.16224866352975367,0.040080373714864254
1761469090798242600,1.56124267578125,-0.013592472022771834,0.11447715079039335,0.008736994815617799
1761469090808197400,1.571197265625,-0.11310966182947157,0.07228416883572936,-0.06811221691332757
1761469090818153500,1.581153564453125,-0.10966799694299698,0.03956584832146764,-0.09242986189424991
1761469090828108500,1.591108642578125,-0.034036709636449815,-0.000284516029804945,-0.08431530982591211
1761469090838064400,1.601064453125,0.007369651985168457,-0.04266220690160989,-0.09405161787718534
1761469090848019700,1.611019775390625,0.032440964877605435,-0.06474734359011054,-0.10418825035765766
1761469090857975600,1.6209755859375,0.05887772090435028,-0.10064137153103947,-0.10768529869318008
1761469090867930400,1.630930419921875,0.06061491996049881,-0.10437310540527105,-0.07241656304374337
1761469090877886500,1.640886474609375,0.001827215427160263,-0.0931447321653366,-0.035623028979822995
1761469090887841500,1.650841552734375,-0.10791267770826816,-0.08197510337531566,-0.042312589746341105
1761469090897797600,1.660797607421875,-0.21307693349123,-0.06522986641004681,-0.05091258724406361
1761469090907752400,1.67075244140625,-0.2876712789654732,-0.029926790099591014,-0.05356792405843734
1761469090917708300,1.680708251953125,-0.30082945122420784,0.016506167512387038,-0.04291925040259957
1761469090927663600,1.69066357421875,-0.29076106167435645,0.038459786775708195,0.0016826193246990441
1761469090937619500,1.700619384765625,-0.2022498345285654,0.06238704419955611,0.012567878215387462
1761469090947574300,1.71057421875,-0.08537935886085032,0.07930325381755829,0.016166121903061867
1761469090957529600,1.720529541015625,0.01740413926541805,0.06956205039545893,0.034405762144550676
1761469090967485400,1.7304853515625,0.1306365506917238,0.07318257898017763,0.004059066132456064
1761469090977440500,1.7404404296875,0.2044154881298542,0.07015168685168027,0.029121392000839113
1761469090987396400,1.750396240234375,0.24493279195725917,0.0650637160629034,0.04614712640792131
1761469090997351400,1.760351318359375,0.27511048807799815,0.07795870734080672,0.06261011236570775
1761469091007307500,1.7703076171875,0.24788170489072797,0.09526493918970226,0.07563822850398719
1761469091017262300,1.780262451171875,0.13143091593980788,0.0952753144532442,0.08624971195459365
1761469091027218700,1.79021875,-0.008026654589176178,0.10909253514260053,0.05997238427326083
1761469091037173500,1.800173583984375,-0.09286357713639735,0.08003478296250105,-0.0060460021659731866
1761469091047129300,1.81012939453125,-0.1318091016024351,0.06588043927326798,-0.017331877746805547
1761469091057084700,1.820084716796875,-0.12158873636126517,0.018688041596114636,-0.007536167658492922
1761469091067040500,1.83004052734375,-0.09606909517943858,-0.022340280493348835,-0.011025105752795934
1761469091076995300,1.839995361328125,-0.022588848426938056,-0.05944952944293618,-0.03720218793004751
1761469091086951400,1.849951416015625,0.06505261014699935,-0.09273001388460397,-0.05020144330002367
1761469091096906500,1.859906494140625,0.08883037609755992,-0.11663695917278527,-0.07126395894251764
1761469091106862600,1.869862548828125,0.09479133032858371,-0.13571268491223454,-0.06289411693885923
1761469091116817400,1.8798173828125,0.104817049780488,-0.10490355902016162,-0.055341436536982654
1761469091126773500,1.8897734375,0.056419221836328505,-0.07936053696274757,-0.028338863321021198
1761469091136728300,1.899728271484375,-0.06620879444479942,-0.044746465829759836,-0.024509660421684384
1761469091146684400,1.909684326171875,-0.19017010515630245,0.004791033668816089,-0.03959419763311744
1761469091156639200,1.91963916015625,-0.26575696879923344,0.0035261282995343204,-0.05728438729830086
1761469091166595600,1.929595703125,-0.30034254449009895,-0.011856734271347522,-0.0768730309959501
1761469091176550400,1.93955029296875,-0.26548107446730135,-0.028341128343343732,-0.08220708550028502
1761469091186506200,1.94950634765625,-0.18158698572814463,-0.028535043480247258,-0.09375950306281447
1761469091196461300,1.95946142578125,-0.09642448448836803,-0.029049568873643874,-0.05594020614773035
1761469091206417400,1.96941748046875,-0.019418986219167707,-0.00935483445301652,-0.018225027194246648
1761469091216372200,1.979372314453125,0.07314590023159981,0.008929448647797107,0.00832329944819212
1761469091226328300,1.989328369140625,0.15891981136798858,0.022810820614546538,0.024313991719111798
1761469091236283400,1.999283447265625,0.18218787423074245,0.01037760162949562,0.017102379839867354
1761469091246239500,2.009239501953125,0.15320435633063315,0.039040947664529084,-0.022119988806173205
1761469091256194300,2.0191943359375,0.08002396930754184,0.026784254290163515,-0.05158661404810846
1761469091266150400,2.029150390625,-0.004584989702701568,0.051492432958632706,-0.04062763233408331
1761469091276105500,2.03910546875,-0.03296703457832336,0.07151932194307446,-0.016796455695852638
1761469091286061300,2.049061279296875,-0.030246669703721998,0.06541136045679449,0.005708659970387816
1761469091296016400,2.059016357421875,0.0006815525233745574,0.05121726927906275,0.006652297496050596
1761469091305972200,2.06897216796875,-0.08475684304833411,0.020690759720653294,0.00633753245845437
1761469091315927300,2.07892724609375,-0.15090367817282677,0.0075138827614486215,-0.00874050194695592
1761469091325883400,2.08888330078125,-0.13960136291384695,-0.023754969596862793,-0.009247866947203875
1761469091335838200,2.098838134765625,-0.09676935240328312,-0.06532938126176595,-0.016894728438556193
1761469091345794600,2.108794677734375,-0.029939795711636543,-0.07540858446657657,-0.008850245931744575
1761469091355749400,2.118749267578125,0.05704466025829315,-0.07279241061881184,-0.004100932512804865
1761469091365705200,2.128705322265625,0.11472761842012405,-0.07870090401023626,0.006515738569572567
1761469091375660500,2.13866064453125,0.09061141429543494,-0.08011091693863272,0.014147548622265457
1761469091385616400,2.148616455078125,0.005418517917394638,-0.03702098614424467,0.014937456890940665
1761469091395571500,2.158571533203125,-0.08423428047895432,0.00614931640997529,0.002715104177594185
1761469091405527300,2.16852734375,-0.13240472940802572,-0.0007322597973048687,0.021105624131858347
1761469091415482400,2.178482421875,-0.16618424941301344,0.03356266238391399,0.004939502228796482
1761469091425438500,2.1884384765625,-0.14952479103505611,0.040902065361291165,0.04643317680768668
1761469091435393300,2.198393310546875,-0.1370633688688278,0.06147372874692082,0.08002959533073008
1761469091445349400,2.208349365234375,-0.1317874742925167,0.06215835001021623,0.071768693594262
1761469091455304400,2.218304443359375,-0.0787099640995264,0.06806392079219221,0.058072322805598375
1761469091465260300,2.22826025390625,0.005767477485537529,0.07286284550651907,0.059048839687556025
1761469091475215400,2.23821533203125,0.07057692652642726,0.0789651079043746,0.06283581088036298
1761469091485171200,2.248171142578125,0.07732640078663826,0.07819938422888517,0.012928382090851663
1761469091495126300,2.258126220703125,0.08820727576315403,0.06713949942365288,-0.028986075183376668
1761469091505082400,2.268082275390625,0.08016308551728725,0.04142185145169496,-0.023891747719049453
1761469091515037200,2.278037109375,0.05581248811483383,0.0296431508526206,-0.03763597623743117
1761469091524993500,2.28799365234375,0.0908230112195015,0.04415127641558647,-0.05223506801947951
1761469091534948400,2.2979482421875,0.12963409565091133,0.024132716868072748,-0.057352630228921765
1761469091544904400,2.307904541015625,0.15398293948769567,-0.003986293157190084,-0.07553191858530044
1761469091554859500,2.317859619140625,0.15876725115478038,-0.045582624392956496,-0.08666223827823996
1761469091564815400,2.3278154296875,0.15811843185722826,-0.06065919749364256,-0.1089147674228996
1761469091574770400,2.3377705078125,0.18368366574645043,-0.06446297369077801,-0.12584683219715953
1761469091584726300,2.347726318359375,0.13486030586659908,-0.06037979603037238,-0.10505611923336983
1761469091594681300,2.357681396484375,0.014656301862001418,-0.03078574501648545,-0.08538666538447141
1761469091604637400,2.367637451171875,-0.12121405782997607,0.01563917541950941,-0.07958937728255987
1761469091614592300,2.37759228515625,-0.24149171159267424,0.04108706653937697,-0.0866848154362291
1761469091624548400,2.38754833984375,-0.3086106066197157,0.0471050116546452,-0.08986505290754139
1761469091634503400,2.39750341796875,-0.3265034061849117,0.07536343015059828,-0.07422551216185093
1761469091644459300,2.407459228515625,-0.29763036292195316,0.0731309949234128,-0.04021152581386268
1761469091654414300,2.417414306640625,-0.2032785930544138,0.06544993890151381,-0.016262933341041206
1761469091664370200,2.4273701171875,-0.09964052392542362,0.02944718988910317,-0.03222301127798855
1761469091674325500,2.437325439453125,-0.0220335526317358,-0.016989567115157842,-0.04101538954265416
1761469091684281300,2.44728125,0.07212357144653797,-0.051882747450470924,-0.06265395150743425
1761469091694236200,2.457236083984375,0.11601648918688297,-0.05311360441967845,-0.06566219341270625
1761469091704192500,2.467192626953125,0.15919044500291346,-0.057595426008850335,-0.05146722545213997
1761469091714147300,2.477147216796875,0.15249240866899488,-0.0534204784117639,-0.022056495115906
1761469091724103400,2.487103515625,0.13587620491087435,-0.012343494874984024,-0.006577697889879345
1761469091734058500,2.49705859375,0.10557926632463932,0.037260493988543746,-0.020279110179841516
1761469091744014300,2.507014404296875,0.08303542608320713,0.021025544632971287,-0.026998846888914702
1761469091753969400,2.516969482421875,-0.00018821604847908018,0.02491056937277317,-0.03181954504363239
1761469091763925200,2.52692529296875,-0.06158230368793011,0.05490487175062298,-0.04849573536068201
1761469091773880300,2.53688037109375,-0.08480418932139873,0.06713321581333875,-0.018561200346052645
1761469091783836400,2.54683642578125,-0.11522270846068858,0.04314385293871164,0.004201251082122326
1761469091793791200,2.556791259765625,-0.1237619887471199,0.03620382454246282,-0.007396832253038883
1761469091803747300,2.566747314453125,-0.09356909505724906,0.017171645683795214,-0.0295195975381881
1761469091813702400,2.576702392578125,-0.037920857593417165,-0.03747296769544482,-0.024117227037996052
1761469091823658500,2.586658447265625,0.0009451718956232071,-0.05480491850748658,-0.020550255271419883
1761469091833613300,2.59661328125,0.04228139089047909,-0.048734658683091396,-0.019539689989387987
1761469091843569200,2.606569091796875,0.05243161350488663,-0.05028627203926444,0.016270824386551974
1761469091853524500,2.6165244140625,0.033680735805630684,-0.041342794866114856,-0.005327040241658687
1761469091863480300,2.626480224609375,-0.024103344643115997,-0.025790567077696322,-0.016898089439421893
1761469091873435100,2.63643505859375,-0.07529051104485988,0.0005187631770968437,-0.02603087863959372
1761469091883391500,2.6463916015625,-0.11907003153860568,0.002360737781971693,-0.0468849391631782
1761469091893346300,2.65634619140625,-0.15055004242956638,-0.019280308400839566,-0.06271956408955157
1761469091903302400,2.666302490234375,-0.12304828751981257,-0.03134527859538793,-0.04774214051440358
1761469091913257500,2.676257568359375,-0.05168167192041874,-0.01631999729052186,-0.04376183870658278
1761469091923213300,2.68621337890625,0.03583469896912574,-0.009696487497538328,0.006310425255820155
1761469091933168400,2.69616845703125,0.08353051612377166,0.004133884934335947,0.04539696562774479
1761469091943124200,2.706124267578125,0.07656126163303852,0.032859920942038295,0.09574738894440234
1761469091953079600,2.71607958984375,0.05200257443785667,0.04817293314710259,0.09469787989147006
1761469091963035400,2.726035400390625,0.0157288995295763,0.05963073122873902,0.022665493859723208
1761469091972990200,2.735990234375,-0.028291443982720373,0.042735126007348294,-0.032392814886942504
1761469091982946300,2.7459462890625,-0.08764788831472396,0.010841273618489503,-0.10154548076391219
1761469091992901400,2.7559013671875,-0.13516542629301548,-0.01400660578161478,-0.126236196840927
1761469092002857500,2.765857421875,-0.09006079467535018,-0.022208909198641776,-0.13162388122864066
1761469092012812300,2.775812255859375,-0.001266074413061142,-0.03594298164919019,-0.12294197760112582
1761469092022768400,2.785768310546875,0.14126257412433624,-0.03983998908773064,-0.09761004101112485
1761469092032723500,2.795723388671875,0.21709084530770778,-0.04525777635276317,-0.04835216217152774
1761469092042679300,2.80567919921875,0.16137714139223097,-0.044546267082542175,-0.016033143173158168
1761469092052634400,2.81563427734375,0.07809446254968642,-0.01833148324340582,-0.031976781431958076
1761469092062590500,2.825590576171875,-0.01615852311849594,-0.02595014155358076,-0.0402872944638133
1761469092072545300,2.835545166015625,-0.08337152616977692,-0.0280539819650352,-0.057795186364650725
1761469092082501400,2.84550146484375,-0.08200023781657219,-0.017898937045037745,-0.07131006310656667
1761469092092456400,2.85545654296875,-0.021121698483824728,-0.019604133527725935,-0.07213380057960748
1761469092102412500,2.86541259765625,0.0205740014731884,-0.041581864318996666,-0.0751151544779539
1761469092112367400,2.875367431640625,-0.010686229187250137,-0.06127499130442738,-0.08443769409656524
1761469092122323200,2.8853232421875,-0.06301379779577256,-0.07000745607540011,-0.0972661229442805
1761469092132279000,2.895279052734375,-0.08644961844086646,-0.03247136001586914,-0.07593487336300313
1761469092142235100,2.905235107421875,-0.07035071655511856,-0.01235635435655713,-0.04570807740353047
1761469092152190000,2.91518994140625,-0.06061842709183692,0.011585223853588103,0.011883037756383419
1761469092162146000,2.92514599609375,-0.0342290173381567,0.029740327616780995,0.05845445399098098
1761469092172101000,2.93510107421875,-0.0016273089408874511,0.04318023942634463,0.12154592013284564
1761469092182057000,2.945056884765625,0.018054127606749532,0.05317497921809554,0.14700656113643198
1761469092192012000,2.955011962890625,0.006080781218409538,0.047448856656253334,0.14808127769585697
1761469092201967900,2.9649677734375,0.02780044559538364,0.04795096095949411,0.17157164153978227
1761469092211923000,2.9749228515625,0.04116320051550865,0.051354778053611515,0.1858054802060127
1761469092221879000,2.984879150390625,0.018854338073730468,0.05639072639420628,0.17805640044920146
1761469092231833900,2.994833740234375,-0.03342880687117576,0.08021057792082428,0.1347557860461995
1761469092241790000,3.0047900390625,-0.0648632250547409,0.10295549369230866,0.14222407610025256
1761469092251745000,3.0147451171875,-0.11528992847800254,0.13034969657436013,0.15065237029287964
1761469092261700900,3.024700927734375,-0.13233926295638085,0.1507284677363932,0.11710256739053874
1761469092271656000,3.034656005859375,-0.12094868489205836,0.14639160757586359,0.07747812074963004
1761469092281612000,3.044612060546875,-0.08265139520168303,0.13018982983753086,0.03651332888305187
1761469092291567000,3.054567138671875,-0.01039981346130371,0.0959226724460721,0.010363500038906931
1761469092301523000,3.06452294921875,0.07068681664168834,0.05197042573392391,-0.004739084285870194
1761469092311478000,3.07447802734375,0.13157704641222953,0.0035625147871673106,-0.021819909881055352
1761469092321434000,3.08443408203125,0.17423194679021833,-0.02519289344549179,-0.03992149335872382
1761469092331389000,3.094388916015625,0.14869009377658365,-0.04498305106461048,-0.07043930815402417
1761469092341345000,3.104344970703125,0.024524784925580023,-0.04533960941731929,-0.10112089867629111
1761469092351300000,3.114300048828125,-0.04101239386796951,-0.005016805248707533,-0.1031813018048182
1761469092361256000,3.124255859375,-0.061517421758174894,0.0334425431355834,-0.09073891313262283
1761469092371211000,3.1342109375,-0.08470014442503451,0.039695319920033216,-0.07349168146196752
1761469092381166800,3.144166748046875,-0.06180383748412132,0.04578296927064657,-0.09682922936435788
1761469092391122200,3.1541220703125,-0.04997603704631328,0.01813011545240879,-0.10113379469048231
1761469092401078000,3.164078125,-0.058385553473234174,-0.0008953414045274257,-0.1455789029534906
1761469092411032800,3.17403271484375,-0.050399815416336056,-0.012772095550596713,-0.17026494285538793
1761469092420989000,3.183989013671875,-0.02570785723030567,-0.03375117069333792,-0.1631271268647164
1761469092430944000,3.193944091796875,0.006129296535253524,-0.04861863108798861,-0.13637049123384057
1761469092440900000,3.203900146484375,0.02954641247987747,-0.0461726992405951,-0.10548990754075348
1761469092450855000,3.21385498046875,0.06684475426077842,-0.018127923495322464,-0.07121095011364668
1761469092460811000,3.22381103515625,0.06392506742179394,-0.020218612164258954,-0.04733582473583519
1761469092470766000,3.23376611328125,0.0402764808088541,-0.03407835682108998,-0.05969385959282517
1761469092480722000,3.243721923828125,0.011424480333924293,-0.016022329518198965,-0.055012204582616686
1761469092490678000,3.253677978515625,-0.0003898761004209518,0.010303513479977846,-0.04971873781699687
1761469092500633000,3.263633056640625,0.03151975837945938,0.009949439345300197,-0.06500920939669012
1761469092510589000,3.2735888671875,0.05632745189964771,-0.0030244623877108095,-0.04483513049390167
1761469092520544000,3.2835439453125,0.08587327985763549,0.021826924143731594,-0.0036629064217209815
1761469092530499800,3.293499755859375,0.09880407310128211,0.046995852191746235,0.014823438589833676
1761469092540455200,3.303455078125,0.12559972556829452,0.06753069069832562,0.0391834979403764
1761469092550411000,3.313410888671875,0.13796703971028326,0.06460881190225481,0.06706990478616208
1761469092560365800,3.32336572265625,0.07334989837110042,0.042191666780412196,0.06578523527048528
1761469092570322000,3.333322021484375,-0.024075872114300727,0.05291135984584689,0.05222253733146935
1761469092580277000,3.343277099609375,-0.1470721371859312,0.058864130770415066,0.025925810829922555
1761469092590233000,3.353233154296875,-0.22496844681501388,0.08077697963193059,0.026518333362974225
1761469092600188000,3.36318798828125,-0.23582009569704532,0.08358692248612642,0.018379925495013594
1761469092610144000,3.37314404296875,-0.2121884602189064,0.0628346418365836,0.016841938805393874
1761469092620099000,3.38309912109375,-0.2056996827214956,0.038047844973951576,-0.009283741978183388
1761469092630055000,3.393054931640625,-0.20403262629210947,0.042365415912121535,-0.042592064274847505
1761469092640010000,3.403010009765625,-0.15759060859084129,0.046222091340273615,-0.05125665144138038
1761469092649966000,3.412966064453125,-0.08621697872877121,0.06873816679194569,0.003750913498736918
1761469092659921000,3.4229208984375,-0.0491997919768095,0.05008300455212593,-0.006992087377049028
1761469092669877000,3.432876953125,-0.03169511494636536,-0.007523965764045715,-0.08166563556734473
1761469092679832000,3.44283203125,-0.017559622088074683,-0.05366524695307016,-0.09373338224086909
1761469092689788000,3.452787841796875,-0.003168693163990974,-0.06282718918249011,-0.062368156835995614
1761469092699743000,3.462742919921875,-0.01662087993323803,-0.09135624131336807,-0.07165887654423714
1761469092709698800,3.47269873046875,-0.046619712355732916,-0.08779942561462521,-0.09643975512273609
1761469092719654100,3.482654052734375,-0.014040800312161445,-0.06259937177598476,-0.11278002801630645
1761469092729610000,3.49260986328125,0.08233399981558323,-0.04991758485734463,-0.07118650979213416
1761469092739564800,3.502564697265625,0.14718261182308195,-0.019938918440043925,-0.060433572044223546
1761469092749521000,3.51252099609375,0.14145897347927092,-0.009918167424201966,-0.05242222462203353
1761469092759476000,3.52247607421875,0.09288286635875702,0.006994827323406934,-0.05851710743103176
1761469092769432000,3.53243212890625,0.042944238713383674,0.03420826681107282,-0.06785542914066463
1761469092779387000,3.542386962890625,-0.00697217710018158,0.037083529986441134,-0.03582001285664737
1761469092789343000,3.552343017578125,-0.044890112084150315,0.056284197279810905,-0.008679236746393143
1761469092799298000,3.562298095703125,-0.04553951590359211,0.0767798728197813,-0.0004504471812397241
1761469092809254000,3.57225390625,-0.017824410504102706,0.07643091325163841,0.013009849829226731
1761469092819209200,3.582209228515625,0.040429625543951984,0.062802200871706,0.04345459938831627
1761469092829165000,3.5921650390625,0.10697042842209338,0.056010933296382424,0.07080394021533429
1761469092839120000,3.602119873046875,0.15220190128982067,0.05292524224072694,0.05843618768192827
1761469092849076000,3.612075927734375,0.15866262173652648,0.032970980101078746,0.02751600263081491
1761469092859031800,3.62203173828125,0.13024784363508224,-0.007684124761819839,0.011675751681253314
1761469092868987100,3.631987060546875,0.08485153559446335,-0.044791766276210544,-0.04179382656924426
1761469092878943000,3.64194287109375,0.019393267256021498,-0.058994771412760015,-0.10486023133508861
1761469092888897800,3.651897705078125,-0.06107201607823372,-0.10182342092245816,-0.16385295692123472
1761469092898854100,3.661854248046875,-0.1280880352526903,-0.14210501629784703,-0.20868447068594395
1761469092908809000,3.67180908203125,-0.20122750574350357,-0.16339315738976,-0.2442053544655442
1761469092918765000,3.68176513671875,-0.2345838319003582,-0.1645712612584233,-0.25489494465366
1761469092928720000,3.691719970703125,-0.23513328247666357,-0.17395225306600332,-0.2251306516394019
1761469092938676000,3.701676025390625,-0.21857436186373233,-0.1581570103019476,-0.16297982734851538
1761469092948631000,3.711631103515625,-0.21974399016499518,-0.13306421623006462,-0.09428893376439809
1761469092958587000,3.7215869140625,-0.25409224996864793,-0.10193813334330916,-0.024143822783976792
1761469092968542200,3.731542236328125,-0.2864022819429636,-0.05999941841065883,0.028189225717261433
1761469092978498000,3.741498046875,-0.3239379396110773,-0.011954057165980338,0.041971667354181404
1761469092988452900,3.751452880859375,-0.32046646410822865,-0.0024555764585733413,0.05145027431733906
1761469092998409000,3.761408935546875,-0.313863704842329,-0.007849982848018407,0.08311338669024407
1761469093008364000,3.771364013671875,-0.30302959161698817,0.01583820512294769,0.11691884485408663
1761469093018320100,3.781320068359375,-0.24531974544823168,0.06678542528897523,0.08178944461010396
1761469093028275000,3.79127490234375,-0.09506780918240547,0.11706629050076008,0.09766228265501559
1761469093038230800,3.801230712890625,-0.009987141007184982,0.13947145292386412,0.1794946165587753
1761469093048186000,3.81118603515625,0.013676643174886703,0.1836930180966854,0.25330394913516935
1761469093058142000,3.821141845703125,0.08069441591501235,0.26079642378240825,0.29652232861481603
1761469093068096800,3.8310966796875,0.12135083595216274,0.29172172340005637,0.331709012003988
1761469093078053000,3.84105322265625,0.19121873742640016,0.3153444449193775,0.3121774322558194
1761469093088008000,3.851008056640625,0.19528993238806724,0.308003872898221,0.2745429173231125
1761469093097964000,3.860964111328125,0.16825930212140083,0.278663504384458,0.23101649480760097
1761469093107919000,3.870919189453125,0.1282587156444788,0.24901085505113005,0.17125570745840668
1761469093117875200,3.880875244140625,0.0923258169978857,0.21249314225390553,0.12034860010705888
1761469093127830000,3.890830078125,0.05477379271686077,0.17134280121996998,0.06667896923981606
1761469093137785000,3.90078515625,0.019790742141008375,0.10521773953586816,-0.006071501933410764
1761469093147740200,3.910740234375,0.015547697743773459,0.03981543916836381,-0.08960815553702413
1761469093157696300,3.9206962890625,-0.006243862825632095,-0.012525281182676554,-0.17988712300769982
1761469093167652000,3.930652099609375,-0.0603974778175354,-0.06958645418435334,-0.25935170486681164
1761469093177607400,3.940607421875,-0.10272504593729972,-0.08673121186122297,-0.307111454103142
1761469093187563300,3.950563232421875,-0.09724398417770862,-0.07420856102705001,-0.2718116657283157
1761469093197518300,3.960518310546875,-0.0315583368241787,-0.09859437587335705,-0.2538543495595455
1761469093207474200,3.97047412109375,-0.026145664125680923,-0.17300123595148323,-0.2914213522139937
1761469093217429200,3.98042919921875,0.03732990596294403,-0.17099515682607888,-0.30898097430206833
1761469093227385300,3.99038525390625,0.14223229593932626,-0.18848595146164296,-0.24734599057883022
1761469093246672100,4.009672119140625,0.20804186193346977,-0.207949069083482,-0.14674706995002926
1761469093256627200,4.019627197265625,0.23967910921275615,-0.1558941799364984,-0.09008929011747241
1761469093266583300,4.029583251953125,0.2442594227403402,-0.11137027081623672,0.011639511324092746
1761469093276538000,4.0395380859375,0.1623340037256479,-0.0777472565472126,0.11991320436447858
1761469093286494200,4.049494140625,0.03762041334211826,-0.01620192386880517,0.18141009479127823
1761469093296449300,4.05944921875,-0.019565116691589356,0.02756488327383995,0.23937062778547405
1761469093306405400,4.0694052734375,-0.07342237908542155,0.02646247498989105,0.21055106827542183
1761469093316360200,4.079360107421875,-0.13176233985126018,0.017025515211373566,0.16474157632403075
1761469093326316000,4.08931591796875,-0.19018647176921366,0.017970102585107086,0.14258205922506748
1761469093336272100,4.099272216796875,-0.24775544816255568,0.014123364029079676,0.10872596685253083
1761469093346227200,4.109227294921875,-0.26006547915935513,0.04429857593178749,0.08266564292274416
1761469093356183300,4.119183349609375,-0.22341478763222694,0.07210720483362675,0.06306801220104098
1761469093366138000,4.12913818359375,-0.14796061045825482,0.09111790251284838,0.029798341414332387
1761469093376094500,4.139094482421875,-0.06394961734116077,0.09338336322680116,-0.022585122099891303
1761469093386049300,4.14904931640625,0.016886837393045424,0.08675590791106223,-0.07290734223537147
1761469093396005000,4.159005126953125,0.10562661259770392,0.08590411338731646,-0.08137370341606438
1761469093405960400,4.16896044921875,0.23013503579795358,0.06950067559704184,-0.08325769053176045
1761469093415916300,4.178916259765625,0.36719723562300205,0.08357727787494659,-0.07930668788366019
1761469093425871000,4.18887109375,0.4501350465506315,0.07726298016160726,-0.05325878504402935
1761469093435827200,4.1988271484375,0.46585751633942124,0.07243190674334764,-0.04069499848186969
1761469093445782300,4.2087822265625,0.37348435306847094,0.05999912614971399,-0.06609992724284529
1761469093455738400,4.21873828125,0.2629208685904741,0.03241480752304196,-0.11159041637293994
1761469093465693200,4.228693115234375,0.17002631179392336,0.05200944257006049,-0.19773907910585403
1761469093475649000,4.23864892578125,0.0654120911091566,0.03303235489949584,-0.18327428122796116
1761469093485604400,4.248604248046875,-0.022324060010910033,0.01703457530066371,-0.15837547535821794
1761469093495560200,4.258560302734375,-0.12211363701820373,-0.0032842823676764964,-0.17292992428094148
1761469093505515300,4.268515380859375,-0.22506138579547405,-0.013887947838008403,-0.16821707041487097
1761469093515471000,4.27847119140625,-0.2771954776585102,-0.028264263714849948,-0.17097608679942786
1761469093525426200,4.28842626953125,-0.26477497202455996,-0.05845876483991742,-0.17105514338500796
1761469093535382300,4.29838232421875,-0.2365998478978872,-0.11004676712751388,-0.12408975939676165
1761469093545337000,4.308337158203125,-0.21958792282044887,-0.14330299391075968,-0.10295461690947413
1761469093555916300,4.318916259765625,-0.20815584370195864,-0.15712269881814717,-0.08796170350424945
1761469093565871400,4.328871337890625,-0.1897586017459631,-0.14011091987118124,-0.04831109950877726
1761469093575827200,4.3388271484375,-0.18464929590821266,-0.11885288165658711,0.03530687570273876
1761469093585782300,4.3487822265625,-0.17116145330369473,-0.06252382232174276,0.0691041505601257
1761469093595738000,4.358738037109375,-0.1099807161539793,-0.027712475050985813,0.08454509999379516
1761469093605693400,4.368693359375,-0.0726928957670927,-0.0061892100289464,0.1047649542670697
1761469093615649300,4.378649169921875,0.01986731450855732,0.016620587672293186,0.07137224162258207
1761469093625604000,4.38860400390625,0.0761912592768669,-0.00457359152585268,0.06397277902103961
1761469093635560200,4.398560302734375,0.13520458925962447,-0.006353460679948329,0.051260231637954706
1761469093645516000,4.40851611328125,0.131992056953907,-0.0020256606087088584,0.028374738352000713
1761469093655471400,4.418471435546875,0.132118898203969,0.026848113306611774,0.03579020224027336
1761469093665427200,4.42842724609375,0.10224164633452892,0.06957169500663876,0.04618248998224735
1761469093675382000,4.438382080078125,0.08772621424794197,0.09343699311017989,0.02595890938192606
1761469093685338400,4.44833837890625,0.07704173862636089,0.12466653637140988,-0.0019570523519068955
1761469093695293200,4.458293212890625,0.06399053387343884,0.1310935006789863,-0.02380976852402091
1761469093705249300,4.468249267578125,0.0837684165328741,0.10156126285493373,-0.06360584540478885
1761469093715204400,4.478204345703125,0.062414078336954115,0.06851794817000627,-0.1201530044697225
1761469093725160200,4.48816015625,0.0761439130038023,0.03897635799571871,-0.16133900133892892
1761469093735115300,4.498115234375,0.073973583227396,0.014467647422105073,-0.1849291357629001
1761469093745071000,4.508071044921875,0.036539632368087764,-0.03188537682145834,-0.1728686225477606
1761469093755026400,4.5180263671875,-0.008061725902557373,-0.056401540049165484,-0.17167904743701218
1761469093764982300,4.527982177734375,-0.07252163085341454,-0.08548267310485243,-0.1870387483280152
1761469093774937000,4.53793701171875,-0.08960019142627716,-0.07658055085539818,-0.19110840891972183
1761469093784893200,4.54789306640625,-0.10007716177701949,-0.07843903820365666,-0.16544387937448918
1761469093794848300,4.55784814453125,-0.10723872396945952,-0.09348711586222053,-0.11716595148295163
1761469093804804400,4.567804443359375,-0.1133311956256628,-0.0955804348796606,-0.057715764452889555
1761469093814759200,4.57775927734375,-0.10667992104291915,-0.06472425497546791,-0.019316402627527714
1761469093824715300,4.58771533203125,-0.09402560665309428,-0.0638221915692091,0.026376915598288177
1761469093834670300,4.59767041015625,-0.07491174086034298,-0.055230012051761146,0.08673011588267981
1761469093844626200,4.607626220703125,-0.029815292549133298,-0.05438333209455013,0.0906057152070105
1761469093854581000,4.6175810546875,-0.019202713119983672,-0.004184592208266258,0.11543189423196017
1761469093864537300,4.627537353515625,-0.06649345660507679,0.039676176828145976,0.13440036020465193
1761469093874493200,4.6374931640625,-0.10832535016238688,0.09943901000395416,0.102042397435382
1761469093884448300,4.6474482421875,-0.16997955004274845,0.103373572973907,0.1115098254173994
1761469093894404000,4.657404052734375,-0.19747195260226724,0.13939005825072526,0.13003624671101568
1761469093904359400,4.667359375,-0.14365852935016155,0.14487491940259933,0.14634111949764192
1761469093914315300,4.677315185546875,-0.061548985940217966,0.11374985942915081,0.16037300585098563
1761469093924270000,4.68727001953125,0.02018354085087776,0.10385141961872577,0.11049838335253298
1761469093934226200,4.69722607421875,0.13454817117750645,0.06256313141882419,0.06809745773561299
1761469093944181200,4.70718115234375,0.2248895363599062,0.035351007105410094,0.03151099055111408
1761469093954137300,4.717137451171875,0.23959610710442064,0.01390533736422658,-0.031775048314779994
1761469093964092200,4.727092041015625,0.167149295052886,-0.01987374424934387,-0.10446787101663649
1761469093974048300,4.73704833984375,0.05087795432209968,-0.031103871054947375,-0.16880239602215588
1761469093984003300,4.74700341796875,-0.05018529588282108,-0.027066432232409714,-0.20706015741974115
1761469093993959200,4.756959228515625,-0.07031973689496517,-0.05311345828920602,-0.23561646288372576
1761469094003914200,4.766914306640625,-0.06617723026275635,-0.05953063185513019,-0.20281638237014413
1761469094013870300,4.776870361328125,-0.018386136040091514,-0.06134045775607228,-0.175855164077878
1761469094023825200,4.7868251953125,0.02473404376208782,-0.08723974590525031,-0.13383965758197008
1761469094033781200,4.79678125,0.0173977095246315,-0.07726809472814201,-0.09215930132456124
1761469094043737000,4.806737060546875,-0.003890577697753906,-0.08009089706391095,-0.09792794785387814
1761469094053692400,4.8166923828125,-0.027666005560755727,-0.09359481402039527,-0.10443806040026248
1761469094063648300,4.826648193359375,-0.08768062154054641,-0.10238280837088823,-0.0898158069383353
1761469094073603000,4.83660302734375,-0.12412263875305651,-0.061831163882464166,-0.09462620289474725
1761469094083559200,4.84655908203125,-0.08840484416186808,-0.004099252012372017,-0.09447364268153906
1761469094093514200,4.85651416015625,-0.06136603058874607,0.028306641551852224,-0.048162923209741706
1761469094103470300,4.86647021484375,-0.04196341098248958,0.09149857239350676,0.03573825285732746
1761469094113425200,4.876425048828125,-0.03328852161765098,0.15365268462002277,0.09089256932437419
1761469094123381200,4.88638134765625,-0.028491350468993187,0.18448679882287977,0.1398264769066125
1761469094133336300,4.89633642578125,-0.07529051104485988,0.1862057315699756,0.1711977667260915
1761469094143292200,4.906292236328125,-0.15262158800661563,0.19451281053572891,0.20858188709430395
1761469094153247200,4.916247314453125,-0.14915595772266388,0.18164865278750658,0.1608716760881245
1761469094163203300,4.926203369140625,-0.014584405669569969,0.14533976043537258,0.16993300748728216
1761469094173158100,4.936158203125,0.11056173091232777,0.0768365714430809,0.14999218935109673
1761469094183114200,4.9461142578125,0.18194646669030187,0.04474266643747687,0.124436453942582
1761469094193069300,4.9560693359375,0.22951836520433425,0.03992357571795582,0.10201529023274779
1761469094203025400,4.966025390625,0.22144494886398314,0.01647811046168208,0.04229388504587114
1761469094212980200,4.975980224609375,0.1147387243360281,-0.0011642214737832546,-0.040641441663727164
1761469094222936300,4.985936279296875,-0.04087912287712097,-0.03368701941594481,-0.15184863087274134
1761469094232891400,4.995891357421875,-0.18462357694506645,-0.05029065595343709,-0.2985186169985682
1761469094242847200,5.00584716796875,-0.24274025034904478,-0.08482859311029314,-0.39072102681249377
1761469094252802300,5.01580224609375,-0.2539537182807922,-0.10857041096463799,-0.4007093368634581
1761469094262758100,5.025758056640625,-0.21680852123498914,-0.12991978072449564,-0.3592437924005091
1761469094272714500,5.035714599609375,-0.11652151609957218,-0.1347138831332326,-0.3112362789481878
1761469094282669300,5.04566943359375,0.011339724659919738,-0.16164967472329736,-0.23486790953874587
1761469094292625200,5.055625244140625,0.10181552987694739,-0.17739494086578486,-0.1576211498595774
1761469094302580500,5.06558056640625,0.18155016084909437,-0.18483692743480204,-0.0602503244318068
1761469094312536300,5.075536376953125,0.2059825913161039,-0.17543810770958662,-0.009524199670553207
1761469094322491100,5.0854912109375,0.22076164277493954,-0.1374682964079082,0.04309248807765543
1761469094332447200,5.095447265625,0.1447550924152136,-0.08350392037779092,0.09645363751761615
1761469094342402300,5.10540234375,-0.016231588354706762,-0.006914163302630186,0.11941336508356035
1761469094352358400,5.1153583984375,-0.1661871720224619,0.10128785274103283,0.1658788367256522
1761469094362313200,5.125313232421875,-0.24994682072699068,0.16854425654262303,0.19650442274436353
1761469094372269300,5.135269287109375,-0.24492870030403135,0.21329788276553152,0.20817089514061807
1761469094382224400,5.145224365234375,-0.16903846980035303,0.20540771403759717,0.24630429950617252
1761469094392180200,5.15518017578125,-0.09347498703300952,0.16555705742537974,0.27826398367285726
1761469094402135300,5.16513525390625,-0.019478022930026054,0.1361633512891829,0.26358072073869404
1761469094412091100,5.175091064453125,-0.026867548659443855,0.10726458906307816,0.2092268339343369
1761469094422046200,5.185046142578125,-0.08613514566421508,0.10115063622742891,0.1795000233862549
1761469094432002300,5.195002197265625,-0.0993663831591606,0.08298018876463174,0.1301442371301353
1761469094441957000,5.20495703125,-0.06661445263624191,0.07014642615467309,0.08988288082517683
1761469094451913500,5.21491357421875,0.03899228621721267,0.05235884052962064,0.06034750119596719
1761469094461869300,5.224869384765625,0.19263328039944172,0.017665566680580377,0.0447212583232671
1761469094471824100,5.23482421875,0.30189678819477556,-0.010478577785938978,0.03171243140734732
1761469094481780200,5.2447802734375,0.29014848273396493,-0.05011076934188604,0.012779402074217796
1761469094491735300,5.2547353515625,0.198266902372241,-0.08253843634650111,-0.07261128189824521
1761469094501691400,5.26469140625,0.07930033120810985,-0.08747180109545588,-0.21091895173974334
1761469094511646200,5.274646240234375,-0.056499301335215565,-0.11096870427802205,-0.27784626971744
1761469094521602300,5.284602294921875,-0.1521568931043148,-0.0849180249594152,-0.30761363147161896
1761469094531557400,5.294557373046875,-0.19980361042022704,-0.09591960370615124,-0.29299481207579375
1761469094541513200,5.30451318359375,-0.21599311319887637,-0.10518602922335267,-0.2694591112527996
1761469094551468300,5.31446826171875,-0.19624445663392542,-0.09686930564641952,-0.2154566682346165
1761469094561424100,5.324424072265625,-0.12257950096428394,-0.06116188631877303,-0.15225509278178215
1761469094571379200,5.334379150390625,-0.0482324082493782,-0.049663902357220645,-0.04728935524560511
1761469094581335300,5.344335205078125,0.0047679450541734695,-0.009841010534763335,0.05841127243638038
1761469094591290000,5.3542900390625,0.0030786767929792402,0.008404547990858555,0.1326541741244495
1761469094601246500,5.36424658203125,-0.021060908207297325,0.0558278318144381,0.16374788911156354
1761469094611201300,5.374201171875,-0.04625087904334068,0.07673486463427544,0.18326755922622978
1761469094621157000,5.3841572265625,-0.11016133341789244,0.056278352060914034,0.19166399697586892
1761469094631112400,5.394112548828125,-0.15402268697619437,0.06703443161398172,0.2080057677067816
1761469094641068300,5.404068359375,-0.15403613097965715,0.0688442575149238,0.2090073459647596
1761469094651024400,5.4140244140625,-0.17789982164800167,0.06145575469881296,0.19258688397444784
1761469094660979200,5.423979248046875,-0.18298750017583368,0.070332157985121,0.17275025686509907
1761469094670935300,5.433935302734375,-0.1279097560763359,0.06497516099661588,0.13127660216093062
1761469094680890400,5.443890380859375,-0.07345218970179557,0.026046879926323888,0.10565583869218825
1761469094690846200,5.45384619140625,-0.01180500408411026,-0.008215747420489788,0.05982092003859579
1761469094700801300,5.46380126953125,0.06709551415145397,-0.03492211416885257,-0.023125950978323817
1761469094710757400,5.47375732421875,0.12347849563062191,-0.05866641624122858,-0.05187441801354289
1761469094720712200,5.483712158203125,0.14195581708550453,-0.0762276457644999,-0.07967690943554043
1761469094730668300,5.493668212890625,0.14529343707561493,-0.09037629036530852,-0.09532507187910377
1761469094740623400,5.503623291015625,0.14006664233803748,-0.0757267105050385,-0.13903072341904044
1761469094750579500,5.513579345703125,0.0628588994950056,-0.06707578653767704,-0.15082279495634138
1761469094760534300,5.5235341796875,-0.04552548737823963,-0.03303264716044068,-0.13279438631273804
1761469094770490000,5.533489990234375,-0.10818915656208991,-0.027208471051603553,-0.1188973053202033
1761469094780445400,5.543445556640625,-0.1384837570607662,-0.010845657532662152,-0.12536913168281316
1761469094790401300,5.5534013671875,-0.13234803078472612,0.006077274087071418,-0.10811835634820163
1761469094800356400,5.5633564453125,-0.09975041404068469,0.027590456106513738,-0.09051474898792802
1761469094810312200,5.573312255859375,-0.04363631263077259,0.05483516751527786,-0.10249028733335434
1761469094820267300,5.583267333984375,0.03639467093944549,0.06346402578130364,-0.0806454622067511
1761469094830223400,5.593223388671875,0.10899345868229865,0.04660597609132528,-0.06535926494337618
1761469094840178200,5.60317822265625,0.14946750788986682,0.07984232913032174,-0.057830915265157816
1761469094850134300,5.61313427734375,0.169946816816926,0.1063359299108386,-0.027273133785650133
1761469094860090400,5.62309033203125,0.14137129519581793,0.0770586897611618,-0.00950849064476788
1761469094870045200,5.633045166015625,0.13746727349460125,0.08471300390660762,-0.06130516724698245
1761469094880001300,5.643001220703125,0.106695118612051,0.0766205906048417,-0.06289842778779565
1761469094889956400,5.652956298828125,0.11401333267092705,0.04912599608823657,-0.08858034685924648
1761469094899912400,5.662912353515625,0.08193652493059635,0.03862681390568614,-0.1316234428372234
1761469094909867300,5.6728671875,0.06180792913734912,0.02743891880661249,-0.1359865334175527
1761469094919823000,5.682822998046875,0.05033201087713241,0.005015490074455738,-0.14064451529122887
1761469094929778400,5.6927783203125,-0.0014513678520917891,-0.028913667534291743,-0.14370492577515542
1761469094939734300,5.702734375,0.000443067592382431,-0.03244549492225051,-0.15098039667084812
1761469094949689300,5.712689453125,0.017295418193936346,-0.06598258447349072,-0.13139825577922165
1761469094959645200,5.722645263671875,0.026583471021056175,-0.05123933498039841,-0.11696253786534071
1761469094969600300,5.732600341796875,0.029749826097488403,-0.04729717322587967,-0.06111812024228275
1761469094979556400,5.742556396484375,-0.06272153685092925,-0.07886500853076577,-0.050335152682289476
1761469094989511200,5.75251123046875,-0.16750059270858764,-0.05356850858032703,-0.06302461145073175
1761469094999467300,5.76246728515625,-0.2618716517984867,-0.050409313897043465,-0.0608477788683027
1761469095009422300,5.77242236328125,-0.321670579200983,-0.06498305204212665,-0.04824811727516353
1761469095019378200,5.782378173828125,-0.3104857528418302,-0.042789194282144304,-0.0327323490396142
1761469095029333200,5.792333251953125,-0.28533377592861653,-0.04487286868840456,-0.04422010386809706
1761469095039289300,5.802289306640625,-0.23390929363965987,-0.05363821281567216,-0.04396459473706782
1761469095049245400,5.812245361328125,-0.14870353778004644,-0.0657522828489542,-0.029137831678986547
1761469095059200300,5.8222001953125,-0.08650631706416606,-0.061219607855379575,-0.04568089713566005
1761469095069156000,5.832156005859375,0.021057401075959204,-0.05481266342252493,-0.04127703615352511
1761469095079111400,5.842111328125,0.17414426850676534,-0.05954319907575845,-0.034155805971473455
1761469095089067300,5.8520673828125,0.26487492526769635,-0.07532894335910678,-0.041484395293891425
1761469095099022300,5.862022216796875,0.28740181437432766,-0.0822055511303246,-0.05307853310629725
1761469095108978200,5.871978271484375,0.26320085457563397,-0.07384367323741316,-0.06659209467396139
1761469095118933200,5.881933349609375,0.21833470788896084,-0.05507920540422201,-0.08514803432300687
1761469095128889300,5.891889404296875,0.13494506154060362,-0.04138853370398283,-0.10266023707278073
1761469095138844200,5.90184423828125,0.03242810539603233,-0.025363866098225114,-0.10318221512027084
1761469095148800300,5.91180029296875,0.0009586158990859985,0.0011960779167711733,-0.09174809017516672
1761469095158755300,5.92175537109375,-0.00582885228395462,0.011728870107978582,-0.07717544800862669
1761469095168711200,5.931711181640625,0.03917173443734646,0.01220364801287651,-0.04832593175172806
1761469095178666200,5.941666259765625,0.11956336801350116,0.003258271143585443,-0.013110679855197668
1761469095188622300,5.951622314453125,0.1621089627981186,-0.01212283786162734,0.017023469384759665
1761469095198577200,5.9615771484375,0.09994681339561938,-0.03548442422673106,0.039426805176958436
1761469095208533200,5.971533203125,0.010807809740304946,-0.03474456564486027,0.05927965276874601
1761469095218488300,5.98148828125,-0.05788870986700058,-0.023343320056051015,0.08740691916570067
1761469095228444400,5.9914443359375,-0.09806114577949046,0.0035147301226854323,0.12483787435032427
1761469095238399200,6.001399169921875,-0.143495447742939,-0.002830254989862442,0.15540435059294103
1761469095248355000,6.01135498046875,-0.179532975807786,0.03869710266292095,0.16903372055999932
1761469095258311200,6.021311279296875,-0.2141962929099798,0.021414397820085286,0.2218734034091234
1761469095268266200,6.031266357421875,-0.2791781759083271,0.003686579558253288,0.19768881022334098
1761469095278222300,6.041222412109375,-0.34361002380847927,0.05083630713745951,0.19975860223472117
1761469095288177200,6.05117724609375,-0.3319774536818266,0.0209399121761322,0.22456476138494907
1761469095298133200,6.06113330078125,-0.3101391313612461,0.08347016423866152,0.15260682882890103
1761469095308088300,6.07108837890625,-0.29865912144780155,0.06993702118769288,0.11181816071420907
1761469095318044200,6.081044189453125,-0.17526362792551517,-0.024720307497680186,0.056581718921661375
1761469095327999200,6.090999267578125,-0.03925122941434383,-0.04377323688343167,-0.010436419144645333
1761469095337955300,6.100955322265625,0.05870294885933399,0.01606514574661851,-0.04089680466428399
1761469095347910100,6.11091015625,0.10096914218068122,-0.005141600672155618,-0.045880292165279384
1761469095357866200,6.1208662109375,0.1663338870167732,-0.07918605717867612,-0.08241575981490314
1761469095367821300,6.1308212890625,0.15611995151638983,-0.059575055518746374,-0.09509732753783463
1761469095377777400,6.14077734375,0.10122633181214331,-0.09353972283229231,-0.12536240968108175
1761469095387732200,6.150732177734375,0.02107376768887043,-0.00650616702362895,-0.20658888664618133
1761469095397688000,6.16068798828125,-0.03475274895131588,-0.020362550679594277,-0.22920257725343107
1761469095407643400,6.170643310546875,-0.06441840389668942,-0.015721446875482797,-0.13727774227187037
1761469095417599200,6.18059912109375,-0.055768064451217646,0.05141834480911493,-0.05725530733428895
1761469095427555300,6.190555419921875,-0.019690204375982283,0.032098288919776674,-0.07724420239590107
1761469095437510100,6.20051025390625,-0.02132861923277378,-0.01420285900607705,-0.09368702234849333
1761469095447466200,6.21046630859375,-0.09812427414357662,-0.040965924377739424,-0.09373984851427376
1761469095457421300,6.22042138671875,-0.19731062456071374,-0.011521510967612265,-0.05995550620369613
1761469095467377200,6.230377197265625,-0.25302082134485243,0.05659077901095152,-0.004243775049597024
1761469095477332200,6.240332275390625,-0.23964520694315433,0.06593275398239493,0.05532740801163018
1761469095487288300,6.250288330078125,-0.13723989447951315,0.12794774999916553,0.10496544527523219
1761469095497243100,6.2602431640625,-0.01938099229633808,0.13924816556200384,0.15155045164376496
1761469095507199200,6.27019921875,0.06627367637455463,0.07969210700467229,0.15025938891991972
1761469095517154300,6.280154296875,0.13600187711715697,0.09353869991898536,0.09151150494031608
1761469095527110400,6.2901103515625,0.2377507714986801,0.0943045697249472,0.078778791552037
1761469095537065200,6.300065185546875,0.3875865281790495,0.09899988793432712,0.08079341931007802
1761469095547021000,6.31002099609375,0.48816988591253757,0.08251359416618943,0.11646649797670543
1761469095556976400,6.319976318359375,0.3755558986455202,0.07819339287951588,0.11814707147479056
1761469095566932200,6.32993212890625,0.32132454224228857,0.11965572247207164,0.07553696008659899
1761469095576887000,6.339886962890625,0.2332937920898199,0.09608853053227066,0.08539207221195101
1761469095586843100,6.349843017578125,0.11966975099742412,0.09428162724077702,0.06521876049414277
1761469095596798200,6.359798095703125,-0.058811085408926,0.09756254860758781,0.022731544833257792
1761469095606754300,6.36975439453125,-0.21722703890800474,0.0818221047706902,0.014773279305174946
1761469095616710100,6.379710205078125,-0.32954292001128194,0.09560805353894829,-0.0021177228063344955
1761469095626665200,6.389665283203125,-0.3547439967632294,0.08354659047573805,-0.05765080945789813
1761469095636621300,6.399621337890625,-0.2766594710856676,0.04505494725704193,-0.06728935622312128
1761469095646576000,6.409576171875,-0.1987158151835203,0.01779562280103564,-0.06546060642600059
1761469095656532200,6.4195322265625,-0.14700141003727912,-0.005889788690954446,-0.11037329566814005
1761469095666487300,6.4294873046875,-0.13754852203726767,-0.03618336627632379,-0.17064122882187366
1761469095676443400,6.439443359375,-0.14407704702317714,-0.03659355451241136,-0.18973273665234444
1761469095686398200,6.449398193359375,-0.11879296816289424,-0.04118365878164768,-0.20394896659664807
1761469095696354000,6.45935400390625,-0.0474175847351551,-0.05535919138938188,-0.20034232040680944
1761469095706309400,6.469309326171875,0.08862053273916244,-0.0663720221824944,-0.19857194973342118
1761469095716265200,6.47926513671875,0.2541530402451753,-0.07379208918064832,-0.18295885860323904
1761469095726220000,6.489219970703125,0.32246260636150836,-0.0816924870416522,-0.15558818272724748
1761469095736176000,6.499176025390625,0.33827333895564077,-0.09606880291849375,-0.15136413529142737
1761469095746131200,6.509131103515625,0.2504389881581068,-0.09328735550642013,-0.1877947543270886
1761469095756087300,6.51908740234375,0.12200491594672203,-0.07218991468101739,-0.21356457087770103
1761469095766042000,6.5290419921875,0.0061824880272150036,-0.03885886909589171,-0.20491868841163813
1761469095775998200,6.538998291015625,-0.11407704555690287,-0.03922492592930794,-0.18466726995632052
1761469095785954300,6.548954345703125,-0.1428676712334156,0.048926674123853445,-0.1683523141670972
1761469095795909000,6.5589091796875,-0.11840893728137016,0.10418868874907493,-0.1487679082531482
1761469095805865200,6.568865234375,-0.05184183091819286,0.1196136368960142,-0.09209668441712855
1761469095815820300,6.5788203125,0.00003214870393276214,0.12888137758746743,-0.04209149434156716
1761469095825776400,6.5887763671875,0.010039747977256774,0.12281477102488278,-0.02222710244245827
1761469095835731200,6.598731201171875,0.06003741233348846,0.12576076134890318,0.0032824557367712257
1761469095845687000,6.60868701171875,0.10101122775673865,0.09601005846858024,-0.011947554359957575
1761469095855642400,6.618642333984375,0.11015665724277496,0.07069076216444373,0.02738017435669899
1761469095865598200,6.62859814453125,0.06381985348165035,0.06480740321427583,0.06780278563797473
1761469095875553000,6.638552978515625,0.0153542209982872,0.060925008822977536,0.08596833772994578
1761469095885509400,6.64850927734375,-0.04654372451007366,0.0546579112522304,0.09930880775302647
1761469095895464200,6.658464111328125,-0.15408055464327333,0.055013446691632266,0.11014577052257954
1761469095905420300,6.668420166015625,-0.19348434427082536,0.07281199210211634,0.12774214442446827
1761469095915375400,6.678375244140625,-0.18872808965444562,0.06183160227388143,0.13855221918709576
1761469095925331200,6.688331298828125,-0.15325287164747714,0.030406974831968542,0.12822327900491653
1761469095935286300,6.698286376953125,-0.10925941614210605,-0.01973988873660564,0.09687953477948903
1761469095945242000,6.7082421875,-0.08955752132833003,-0.06212941617667675,0.06870360693521797
1761469095955197400,6.718197509765625,-0.1150654720723629,-0.08743512234687804,0.040130204205960036
1761469095965153300,6.7281533203125,-0.09960077643692493,-0.11581570591777562,-0.036619346540793775
1761469095975109400,6.738109375,-0.04709025247693061,-0.12981836617663503,-0.09680449678190052
1761469095985064200,6.748064208984375,0.012392448583245277,-0.15058306791633366,-0.08975793927125632
1761469095995020000,6.75802001953125,0.09486498008668422,-0.12714651661887763,-0.0596528699953109
1761469096004975400,6.767975341796875,0.19700901126563547,-0.10515972573831676,-0.032204891099408266
1761469096014931200,6.77793115234375,0.2551958272963762,-0.09418649630323052,-0.018483970391377804
1761469096024886000,6.787885986328125,0.17859481817483902,-0.08870762650072574,-0.040244112909212704
1761469096034842400,6.79784228515625,-0.008377367722988128,-0.05950476676151156,-0.07531754518225789
1761469096044797200,6.807797119140625,-0.17438509152531623,0.013271131113916635,-0.08731887555606663
1761469096054753300,6.817753173828125,-0.2693523629426956,0.04395020088553429,-0.0946697497755289
1761469096064708400,6.827708251953125,-0.25540917778611183,0.07692468811795115,-0.09989603305645287
1761469096074664200,6.837664306640625,-0.19385668471455572,0.07678615643009543,-0.07587284097746014
1761469096084619300,6.847619384765625,-0.07961071233153343,0.07801423692032694,0.0028514439083635805
1761469096094575000,6.8575751953125,-0.035927053427696226,0.028816198509186503,0.03279102042429149
1761469096104530400,6.867530517578125,-0.03801730370521545,0.0350742359906435,0.025825857586786148
1761469096114486300,6.877486328125,-0.041131636333465574,0.07352978498265146,-0.0033205957900732754
1761469096124441000,6.887441162109375,-0.06702186439335346,0.04505538564845919,-0.009489712879061698
1761469096134397200,6.897397216796875,-0.07809387802779674,0.03771715171486139,0.014680924846604465
1761469096144353000,6.90735302734375,-0.07251637015640736,0.05939706860333681,-0.00832256879583001
1761469096154308000,6.91730810546875,-0.05060498259961605,0.06034457858651876,-0.01902845253162086
1761469096164264000,6.927263916015625,0.0214279879540205,0.06188274793922901,-0.019988675865903496
1761469096174219000,6.937218994140625,0.04301730394959449,0.04655453816503286,-0.008207637179270387
1761469096184175000,6.947175048828125,0.02521159814596176,0.04780015431195497,-0.004458586844056845
1761469096194130000,6.9571298828125,0.01767301933467388,0.051386634496599436,-0.007637363010644912
1761469096204086000,6.9670859375,0.059575055518746374,0.04037628792151809,-0.03163132899515331
1761469096214041000,6.977041015625,0.10215747518241405,0.0027995675906538962,-0.033063772951066495
1761469096223997200,6.9869970703125,0.09076455903053283,-0.030476240675896403,-0.022533830304071308
1761469096233952000,6.996951904296875,0.07344049926400184,-0.030840397813171147,-0.037102380817383526
1761469096243907800,7.006907958984375,0.04772855038046837,-0.06061258187294006,-0.060253758497908705
1761469096253863200,7.01686328125,0.006703881552815437,-0.06032353579849004,-0.08081935746893286
1761469096263819000,7.026819091796875,-0.01824643530845642,-0.06342515507563948,-0.09804960147216915
1761469096273773800,7.03677392578125,-0.03016249855160713,-0.06620455666109919,-0.08083740458227694
1761469096283730000,7.04672998046875,-0.04385492381751537,-0.07746785508394241,-0.10045468985252082
1761469096293685000,7.05668505859375,-0.0616693974494934,-0.08635726398229598,-0.11331110268570482
1761469096303641000,7.06664111328125,-0.022840777361392974,-0.06150748488605022,-0.08455174893029034
1761469096313597000,7.076596923828125,0.029113281759619712,-0.054177288128435606,-0.05507182581536472
1761469096323552300,7.08655224609375,0.07081599597930907,-0.05022650467604398,-0.024139731130748986
1761469096333508000,7.096508056640625,0.10794833354353904,-0.04146569059342146,-0.029895591243728994
1761469096343463000,7.106462890625,0.12125906601548195,-0.04287658030465245,-0.05492576840817928
1761469096353419000,7.1164189453125,0.09556465278863906,-0.033977380664646624,-0.06990370343998074
1761469096363374000,7.1263740234375,0.09678630353808403,-0.05266615291312337,-0.06641440001949668
1761469096373330200,7.136330078125,0.06282908887863159,-0.03125350865870714,-0.06986439434289932
1761469096383285000,7.146284912109375,0.0293839153945446,-0.017321137157082556,-0.05945318270474672
1761469096393240800,7.15624072265625,-0.016542554000020027,-0.026186872918903824,-0.01084536527171731
1761469096403196200,7.166196044921875,-0.07401800689101219,-0.027146511731296775,0.03449197912327945
1761469096413152000,7.176152099609375,-0.12330839976072311,0.005671031373739242,0.06476078759357333
1761469096423106800,7.18610693359375,-0.2023620627313852,0.032081045524030925,0.11789674997553229
1761469096433063000,7.19606298828125,-0.24011340897679329,0.03854468858018517,0.15718853059597312
1761469096443018000,7.20601806640625,-0.2702238850802183,0.05241378558725118,0.16624978892989456
1761469096452974000,7.21597412109375,-0.24956395888924598,0.059089317828416824,0.1421717979237437
1761469096462929000,7.225928955078125,-0.20230945576131343,0.05659224031567573,0.11779292427487671
1761469096472885200,7.23588525390625,-0.14397007951736449,0.0351492009229958,0.076382251804322
1761469096482841000,7.245841064453125,-0.1387105515539646,0.027929478802531955,0.027031799310445782
1761469096492796000,7.2557958984375,-0.13804127399027347,0.02007335847467184,-0.016631912783905863
1761469096502752000,7.265751953125,-0.14256079724133014,0.021570465164631604,-0.04882087566182017
1761469096512707000,7.27570703125,-0.1388204416692257,0.01553279243558645,-0.06437931399531661
1761469096522663200,7.2856630859375,-0.09050210870206356,0.004326923288404941,-0.09461122452132403
1761469096532618000,7.295617919921875,0.01571545552611351,-0.0244604875177145,-0.10886252577900886
1761469096542573800,7.30557373046875,0.11874620641171932,-0.04951543379724026,-0.1286449384830892
1761469096552529200,7.315529052734375,0.18435002070069312,-0.06932137350738048,-0.14778130836859343
1761469096562485000,7.325485107421875,0.23511223968863487,-0.06398951096013188,-0.1595477340079844
1761469096572439800,7.335439697265625,0.17265373768806455,-0.030732115133106707,-0.11386625235043465
1761469096582396000,7.34539599609375,0.06430851378142834,-0.003567190962284803,-0.09226400380805135
1761469096592351000,7.35535107421875,0.025339023917913435,0.029956162324547765,-0.10409611509479581
1761469096602307000,7.36530712890625,0.041050387790799135,0.019671791936457156,-0.10812741643749177
1761469096612262000,7.375261962890625,0.0733551590681076,0.009403057508915662,-0.08190795642323792
1761469096622218200,7.38521826171875,0.14726035323441028,-0.004583820658922195,-0.06539557836577296
1761469096632174000,7.395174072265625,0.15940554905831814,0.007180120762437582,-0.040696386721357704
1761469096642129000,7.40512890625,0.13713877219259737,0.01499386325329542,-0.021449761394411324
1761469096652085000,7.4150849609375,0.057199558559060094,0.04229059711024165,0.00027845161519944665
1761469096662040000,7.4250400390625,-0.055279404151439664,0.0891940948434174,0.024896833108365535
1761469096671996200,7.43499609375,-0.1385141521990299,0.10947203597947955,-0.005444894467666745
1761469096681951000,7.444950927734375,-0.188337629032135,0.12713424165919424,-0.030619302408397196
1761469096691906800,7.45490673828125,-0.15831658477783203,0.11362798661515117,-0.021306772727146744
1761469096701862100,7.464862060546875,-0.1336696347773075,0.08443155661672354,0.01730294391326606
1761469096711818000,7.47481787109375,-0.09526713114678859,0.06784077956080437,-0.003944792103022337
1761469096721772800,7.484772705078125,-0.00891629690527916,0.03249517928287387,-0.0276597219504416
1761469096731729200,7.494729248046875,0.11479133130609988,-0.022796792089194058,-0.04270714202187955
1761469096741684000,7.50468408203125,0.2117617592394352,-0.09055544632449745,-0.03968246043846011
1761469096751640000,7.51464013671875,0.2924316252350807,-0.08431713645681739,-0.04030797192566096
1761469096761595100,7.52459521484375,0.3270814983338117,-0.09894055896252393,-0.040506124846264716
1761469096771551200,7.53455126953125,0.26571137609183787,-0.07163900279998779,-0.027805194835737346
1761469096781506000,7.544506103515625,0.15080080232024193,-0.05984262041375041,0.0012472235821187495
1761469096791462000,7.5544619140625,0.004345920249819756,-0.026341332828253506,0.0006570756692439318
1761469096801418000,7.56441796875,-0.1212654957562685,0.014157266298681496,-0.015950287195295093
1761469096811373000,7.574373046875,-0.22103110736608503,0.04001169239282608,0.022333777687326074
1761469096821329200,7.5843291015625,-0.25670973899066446,0.03946691799163818,0.07041589074581861
1761469096831284000,7.594283935546875,-0.26465689860284325,0.052472822298109525,0.09371149920262396
1761469096841239800,7.60423974609375,-0.23401567662358283,0.0454496456630528,0.11266966297701
1761469096851195100,7.614195068359375,-0.19979425806999204,0.03271758986189961,0.10390388045832515
1761469096861151000,7.62415087890625,-0.15063129097223282,0.011763064638525247,0.09067607702948152
1761469096871105800,7.634105712890625,-0.1361053374916315,0.003058949179202318,0.10188267682902515
1761469096881062100,7.644062255859375,-0.1697550936371088,0.018351356987655162,0.0761702895540744
1761469096891017000,7.654016845703125,-0.18911796575486658,0.03762552790865302,0.026690949983522293
1761469096900973000,7.66397314453125,-0.19293021751940248,0.03859875685498118,-0.019971578600630164
1761469096910928100,7.67392822265625,-0.12593465661108494,0.03538841650635004,-0.06775858117006718
1761469096920884200,7.68388427734375,-0.017668927681446074,0.013788140725344419,-0.10366364196166396
1761469096930839000,7.693839111328125,0.07949146986603736,-0.005063713130354881,-0.14564013162143527
1761469096940795000,7.703794921875,0.12324702496230601,-0.012407500021904706,-0.1740621431812644
1761469096950751000,7.7137509765625,0.15029285279810428,-0.018189298293739557,-0.20926957709752023
1761469096960706000,7.7237060546875,0.1847562634140253,-0.03255392373278737,-0.2146377530671656
1761469096970662100,7.733662109375,0.17939093698859213,-0.03150149207040667,-0.20772797367870807
1761469096980617000,7.743616943359375,0.13635609738230706,-0.02298851526901126,-0.22059702679775653
1761469096990573000,7.753572998046875,0.09511340188980102,0.002835515686869621,-0.1745320257153362
1761469097000528100,7.763528076171875,0.036816695743799206,0.005953209315985441,-0.16982472480721772
1761469097010484000,7.77348388671875,0.010956278300285338,0.028396365661919117,-0.13997114607430994
1761469097020438800,7.783438720703125,0.0022077391773462295,0.02574804311022162,-0.10506262203939258
1761469097030395100,7.79339501953125,-0.017976970717310903,0.030216420695930717,-0.06893558906018733
1761469097040350000,7.803349853515625,-0.08786766854524612,0.018350041813403366,-0.033774989960342644
1761469097050306000,7.81330615234375,-0.16057926901280878,0.05151157605051994,-0.011259352900087833
1761469097060261000,7.82326123046875,-0.2400432663500309,0.06997647641524672,-0.015290215851366518
1761469097070217200,7.83321728515625,-0.2504500940740108,0.09359759049937129,-0.024756401724368333
1761469097080172000,7.843172119140625,-0.20647475874722002,0.0867084155075252,-0.022210735829547048
1761469097090128000,7.8531279296875,-0.1014104562073946,0.07412526665776968,0.008048062703385948
1761469097100084000,7.863083984375,0.0478097989231348,0.07181085223555564,0.045297012384608384
1761469097110039000,7.8730390625,0.14224749350845814,0.058681613810360425,0.04510243966057896
1761469097119995100,7.8829951171875,0.2063449948877096,0.03582856148928404,0.04476641263924539
1761469097129950000,7.892949951171875,0.28884266083240506,0.02632584299817681,0.07198145956210791
1761469097139906800,7.90290673828125,0.3121469640523195,0.023354718232899904,0.08521474288366734
1761469097149862000,7.91286181640625,0.3034375878959894,0.0038875089578330516,0.0835388455606997
1761469097159818000,7.92281787109375,0.273922739598155,0.00394508436396718,0.08506123282238841
1761469097169772800,7.932772705078125,0.20545067639648912,0.009753916773200035,0.08955152997896075
1761469097179729000,7.94272900390625,0.11968027239143848,0.014755232191830872,0.09511142912842332
1761469097189684000,7.95268408203125,0.032736732953786846,0.011255407377332449,0.09036306555755436
1761469097199639800,7.962639892578125,-0.0027706337571144104,-0.028477321943640707,0.059066521474719046
1761469097209595000,7.972594970703125,-0.04609656526446342,-0.06536606001034378,0.04304755295738578
1761469097219551000,7.982551025390625,-0.12380465884506701,-0.09824570856615901,0.03199168674014508
1761469097229506000,7.992506103515625,-0.19601883118450641,-0.11639686680659651,0.031015462119132278
1761469097241328000,8.004328125,-0.2434545360982418,-0.08546835231855511,0.036553807023912664
1761469097251284000,8.014283935546874,-0.2859440167814493,-0.07005027230381965,0.07372114283628761
1761469097261238800,8.02423876953125,-0.30599720925092694,-0.05476414810568094,0.09196348649151623
1761469097271195000,8.03419482421875,-0.2734071912914514,-0.02961728575900197,0.10414280378073454
1761469097281150000,8.04414990234375,-0.21423487135469912,0.018544249211251734,0.12284465470649301
1761469097291106000,8.05410595703125,-0.1743470976024866,0.06446326595172286,0.12223682500645518
1761469097301060900,8.064060791015624,-0.14166355614066123,0.09637304656207561,0.1309618371233344
1761469097311016700,8.0740166015625,-0.17154489966332911,0.1037847841233015,0.09471541554816067
1761469097320972000,8.083971923828125,-0.17309855884611605,0.12182985164076089,0.045609877726063126
1761469097330927900,8.093927978515625,-0.1358534085571766,0.09892068521827459,-0.03769939686246216
1761469097340883000,8.103883056640624,-0.04488017521202564,0.06766717655956744,-0.09343421663120388
1761469097350838800,8.1138388671875,0.07640694785416126,0.0186972478158772,-0.14025873084403573
1761469097360793900,8.1237939453125,0.14921031825840472,-0.011174743356555699,-0.1653555435039103
1761469097370750000,8.13375,0.23870704931020736,-0.03347483796998858,-0.18124679398834703
1761469097380704800,8.143704833984375,0.26817572037875653,-0.07215542788952589,-0.20787841500006615
1761469097390661000,8.1536611328125,0.19041034365296364,-0.11054214942902325,-0.23465244015716014
1761469097400617000,8.163616943359376,0.05037409645318985,-0.10483619287237525,-0.25464002004452047
1761469097410571800,8.17357177734375,-0.08442600365877151,-0.07847659373506903,-0.25935923058614135
1761469097420527900,8.18352783203125,-0.20569266845881937,-0.056286243106424806,-0.2089097308091819
1761469097430483000,8.19348291015625,-0.2902110265761614,0.019030717553943394,-0.10615056340657174
1761469097440439000,8.20343896484375,-0.29163959807455536,0.07733823735490442,-0.0012981500517576933
1761469097450393900,8.213393798828125,-0.25924305686056615,0.10710735267475247,0.06722564333714544
1761469097460349700,8.223349609375,-0.1940881553828716,0.09294044176489115,0.09342018810585141
1761469097470305000,8.233304931640625,-0.12297346871793269,0.08790551633760332,0.10463738236464559
1761469097480260900,8.2432607421875,-0.04515022432506084,0.09137655344903468,0.11944894785359501
1761469097490216000,8.2532158203125,0.03340367242991924,0.0965140624679625,0.094149233032763
1761469097500171800,8.263171875,0.1107166292130947,0.10973755504786968,0.10088424037620425
1761469097510126800,8.273126953125,0.201025261169672,0.09353796926662325,0.07635550992786884
1761469097520083000,8.2830830078125,0.25997838539779183,0.08831585070416331,0.06672273531630635
1761469097530038800,8.293038818359374,0.2722287951618433,0.06624269671440124,0.05748254021890461
1761469097539994000,8.302994140625,0.19426058934032917,0.03674421502947807,-0.003587064706534147
1761469097549950000,8.312949951171875,0.13321078509390352,0.023483313048630952,-0.01096891858614981
1761469097559904800,8.32290478515625,0.08533201258778572,0.004536182124912739,0.003687017949670553
1761469097569860900,8.33286083984375,-0.021310499054193497,-0.020566548819094897,0.012877236425504087
1761469097580438800,8.343438720703125,-0.09531272385418414,-0.022051526679843662,0.024187369664758443
1761469097590393900,8.353393798828124,-0.17497136698067187,-0.04882672088071704,-0.00015248714797198772
1761469097600350000,8.363349853515626,-0.19962883837521075,-0.0783973910190165,-0.018009119421243665
1761469097610304800,8.3733046875,-0.17922902442514896,-0.09002747692763804,-0.030025135907530785
1761469097620260900,8.3832607421875,-0.10936989077925681,-0.1088823995232582,-0.0024083763159811495
1761469097630216000,8.3932158203125,-0.06093406891226768,-0.10765446516349911,-0.005806202060729265
1761469097640172000,8.403172119140624,-0.00047463177442550657,-0.07964812173247336,-0.0011466127518564462
1761469097650126800,8.413126953125,0.020478724405169485,-0.05463365359380841,-0.0050766456771641965
1761469097660083000,8.4230830078125,0.0006646013885736465,-0.020853402936458588,-0.01407236449420452
1761469097670038000,8.4330380859375,-0.04419862268865108,0.01567293155863881,-0.029877763326093553
1761469097679993900,8.442993896484374,-0.09410276354253291,0.04666662023738026,-0.04056669592708349
1761469097689950000,8.452949951171876,-0.10166589227318763,0.09111395699009299,-0.03069419427551329
1761469097699905000,8.462905029296875,-0.04557517173886299,0.11424699529632926,-0.012481149780005215
1761469097709860900,8.47286083984375,-0.00043780689537525175,0.13761588818505405,0.022752003099396824
1761469097719816000,8.48281591796875,0.0426379492431879,0.15126505883112548,0.06265921220444143
1761469097729771800,8.492771728515624,0.04001870665550232,0.1502984057560563,0.042976752743497486
1761469097739726800,8.502726806640625,0.05840075104236602,0.1408336811877787,0.002062558552995324
1761469097749683000,8.512682861328125,0.07279518709778786,0.12997516417354343,-0.036216318697854875
1761469097759637800,8.5226376953125,0.029833412727713584,0.1139468433059752,-0.107005645865947
1761469097769593900,8.53259375,-0.014924012887477875,0.07894976420477032,-0.13570888551995158
1761469097779549000,8.542548828125,-0.06277823547422885,0.05048603239506483,-0.16366276811137795
1761469097789505000,8.552505126953125,-0.03753507314622402,0.014720160878449677,-0.19210640698112547
1761469097799460900,8.5624609375,-0.012270868030190467,-0.014252397236227989,-0.22805333415307102
1761469097809416000,8.572416015625,-0.026316344517469406,-0.02193506069332361,-0.2108884104710072
1761469097819372000,8.5823720703125,-0.04316401894390583,-0.028154811991006133,-0.18507175910398363
1761469097829326800,8.592326904296876,-0.06936579717099667,-0.018109364925324917,-0.1550881973158568
1761469097839283000,8.602282958984375,-0.06308861659765243,-0.031149025370925662,-0.11494586428068577
1761469097849238000,8.612238037109375,-0.015230886879563331,-0.027249679844826458,-0.07466580327525735
1761469097859193900,8.62219384765625,0.013351649004220962,-0.029544074392318723,-0.05632518687732518
1761469097869149000,8.63214892578125,0.037827918612957,-0.014592881236970424,-0.06338350789099931
1761469097879104800,8.642104736328125,0.03992985932826996,0.003420914359390735,-0.013356909701228142
1761469097889059800,8.652059814453125,0.046157940062880515,0.0320437822535634,0.0021934914562851187
1761469097899016000,8.662015869140625,0.06803425630629062,0.06848024650812148,0.03496909511573613
1761469097908970800,8.671970703125,0.09230418968796729,0.09163754247277975,0.11719020914137362
1761469097918926800,8.6819267578125,0.05649287159442901,0.07985884187370539,0.14317184181176126
1761469097928883000,8.691883056640625,0.056789808714389794,0.07477043269351125,0.1371726744621992
1761469097938838000,8.701838134765625,0.012038812839984894,0.039199937618523834,0.09228343916088343
1761469097948793900,8.7117939453125,-0.0837988116711378,0.007021276938915252,0.0616835721053183
1761469097958749000,8.7217490234375,-0.17391630496978758,0.010443652603030203,0.019992036866769192
1761469097968705000,8.731705078125,-0.20930735182464122,0.018799831407517193,0.0002753828752785921
1761469097978659800,8.741659912109375,-0.17230244003236292,0.03550488249287009,0.012381488797813653
1761469097988616000,8.751615966796875,-0.10209493134021759,0.005546089819818735,0.03134052935503423
1761469097998571000,8.761571044921874,-0.01645955189168453,-0.034996640709787606,-0.06410736518613994
1761469098008526800,8.77152685546875,-0.05728606779873371,-0.059026627855747936,-0.10155863250643014
1761469098018482000,8.78148193359375,-0.1455868670642376,-0.10707198910042642,-0.03906798180192709
1761469098028437800,8.791437744140625,-0.16572423068583012,-0.03809825998693704,-0.038466801038384436
1761469098038393900,8.801393798828125,-0.11777180842161178,0.008752923037111759,-0.04010141650289297
1761469098048349000,8.811348876953126,-0.025844050830602646,0.011851619704812764,-0.010645531850680708
1761469098058304800,8.8213046875,0.10778700550198554,-0.02265679909661412,-0.001835471798852086
1761469098068259800,8.831259765625,0.14265139813423156,-0.01812821575626731,0.07064341589137911
1761469098078216000,8.8412158203125,0.1120370641618967,0.0034555472813546655,0.07270312490016222
1761469098088171000,8.8511708984375,0.04798223288059234,0.06640811640918254,0.03608297464177012
1761469098098126800,8.861126953125,-0.0007072714865207671,0.10712021215632557,0.06060301032699644
1761469098108082000,8.87108203125,0.006172551155090331,0.11736118179410696,0.09533866201303899
1761469098118038000,8.8810380859375,0.052852469265460965,0.11976327449977398,0.09807765852287412
1761469098127992800,8.890992919921874,0.06271861424148083,0.1186192190311849,0.05297273464426398
1761469098137949000,8.900948974609374,0.007467267140746116,0.10044541056752204,-0.04632087553963065
1761469098147904300,8.910904296875,-0.024063597154617308,0.10567425113171339,-0.14993490620590746
1761469098157859300,8.920859375,0.04943184716701507,0.07185659107342363,-0.1835357817083597
1761469098167815200,8.930815185546875,-0.06681435912251472,-0.026836715129762885,0.010319587831944227
1761469098177770200,8.940770263671874,-0.1635679294347763,-0.006344985112547874,-0.05192125282995402
1761469098187726300,8.950726318359376,-0.13911913235485554,0.005507657505571842,-0.16811558280177413
1761469098197681200,8.96068115234375,0.0002566051095724106,-0.027182605957984923,-0.2239694258403033
1761469098207637200,8.97063720703125,0.13889876760244368,-0.10733107842803001,-0.19605222199745476
1761469098217592300,8.98059228515625,0.21751988437473774,-0.12640651190653443,-0.13819690294340253
1761469098227548200,8.990548095703126,0.24294775561988352,-0.11382497049197554,-0.10307904700674116
1761469098237503200,9.000503173828125,0.19508359616100787,-0.1007360640771687,-0.07935454561337828
1761469098247459000,9.010458984375,0.08629179753065108,-0.11062091375365853,-0.031416005744040014
1761469098257415200,9.020415283203125,-0.006310498321056366,-0.08710662104487418,-0.04905680330954492
1761469098267370200,9.030370361328124,-0.055555298483371734,-0.08870543454363941,-0.036858123732730744
1761469098277326300,9.040326416015626,-0.10470540609955788,-0.07539309463649987,-0.006957710183411836
1761469098287281200,9.05028125,-0.10717851821482181,-0.017786854972690343,-0.03800086402706802
1761469098297237200,9.0602373046875,-0.1273000997453928,-0.010746142680943012,0.01142952183522284
1761469098307192300,9.0701923828125,-0.1752227113932371,-0.000782528679817915,0.03125745418146252
1761469098317148200,9.080148193359374,-0.1900806733071804,0.03434212232381105,0.0349176206568256
1761469098327103200,9.090103271484375,-0.18764789320230482,0.04300254477187991,0.06902071006037294
1761469098337059300,9.100059326171875,-0.15798574538826943,0.046414106781035656,0.08326094193477183
1761469098347014100,9.11001416015625,-0.09154898740649223,0.048104105694591996,0.0731364017508924
1761469098356970200,9.11997021484375,-0.0550339049577713,0.04153451804593205,0.07701097816191613
1761469098366925300,9.12992529296875,-0.006817863321304321,0.03741320033222437,0.06559793253745884
1761469098376881200,9.139881103515625,-0.004112111493945122,0.0333770766839385,-0.005525448890589178
1761469098386837200,9.149837158203125,-0.08112111689448356,-0.0008535480894148349,-0.06465970183927565
1761469098396792000,9.1597919921875,-0.18098083652853963,-0.012633125471323729,-0.11785163219217211
1761469098406748400,9.16974853515625,-0.14744740023911,0.0028648879118263718,-0.1375533808754757
1761469098416703200,9.179703125,-0.05510287854075432,0.020792028138041495,-0.10793616818170994
1761469098426659300,9.189659423828125,-0.02095394070148468,0.022216654113680123,-0.11883395776040852
1761469098436614400,9.199614501953125,-0.015095862323045729,0.039083471632003784,-0.15506675266902892
1761469098446570200,9.2095703125,0.07348024675250053,0.011248393114656209,-0.18628080610018222
1761469098456525300,9.219525390625,0.14537994631528853,-0.06007379882112145,-0.1764283608559519
1761469098466481200,9.229481201171875,0.19113982697129248,-0.0647119800157845,-0.16849891956355423
1761469098476436200,9.239436279296875,0.2929284688413143,0.00504676199555397,-0.12819909441173075
1761469098486392300,9.249392333984375,0.3783487442344427,-0.03111789958029985,-0.06266363265123218
1761469098496348200,9.25934814453125,0.40475861225426196,-0.01730272471755743,0.010633074227906762
1761469098506303200,9.26930322265625,0.4173094662696123,0.005363572859764099,0.03411196682974696
1761469098516259000,9.279259033203125,0.37619828820228574,0.021079905168712137,0.15116561704464257
1761469098526214100,9.289214111328125,0.20241700778901575,0.02327449260354042,0.11430877195354551
1761469098536170200,9.299170166015625,-0.002505260819196701,-0.016612258235365152,0.05390979629866779
1761469098546125000,9.309125,-0.2671002001017332,-0.04643544183000922,-0.00748005355708301
1761469098556081400,9.319081298828126,-0.40895898655354973,-0.0487063093714416,-0.06005081980433315
1761469098566036200,9.3290361328125,-0.4049965126633644,-0.05496463911384344,-0.012011194180697201
1761469098575992300,9.338992431640625,-0.2865893289476633,-0.04564166110381484,0.05847659275755286
1761469098585947400,9.348947509765624,-0.14947978284955024,-0.031389702259004115,0.09511102726962417
1761469098595903200,9.3589033203125,-0.05494213502109051,-0.012733224844932556,0.09076328038889914
