time,seconds_elapsed,z,y,x
1761469089294964700,0.05796484375,0.06281528621912003,-0.20342351496219635,0.02501615136861801
1761469089304920800,0.0679208984375,0.05969027057290077,-0.09486019611358643,0.06845003366470337
1761469089314876000,0.0778759765625,0.036180950701236725,-0.005461605731397867,0.10215926170349121
1761469089324832000,0.08783203125,0.009236669167876244,0.055197689682245255,0.11519701033830643
1761469089334786800,0.097786865234375,-0.00974101573228836,0.08686666935682297,0.10974232107400894
1761469089344742000,0.107741943359375,-0.022214312106370926,0.12690822780132294,0.1029217392206192
1761469089354698000,0.117697998046875,-0.023100346326828003,0.15865977108478546,0.09910038113594055
1761469089364652800,0.12765283203125,-0.026589127257466316,0.15990915894508362,0.10308916866779327
1761469089374608600,0.137608642578125,-0.026176337152719498,0.13097018003463745,0.1004108265042305
1761469089384564000,0.14756396484375,-0.01846267655491829,0.07000916451215744,0.08684299886226654
1761469089394519800,0.157519775390625,-0.003834998235106468,-0.005283722188323736,0.063702791929245
1761469089404475000,0.167474853515625,0.009337333962321281,-0.06183614209294319,0.03556929528713226
1761469089414431000,0.177430908203125,0.024657169356942177,-0.1048179641366005,0.005140017252415419
1761469089424385800,0.1873857421875,0.038295816630125046,-0.14105543494224548,-0.01806236431002617
1761469089434342000,0.197341796875,0.054547492414712906,-0.14793065190315247,-0.01693185418844223
1761469089444297000,0.207296875,0.06767196953296661,-0.11819055676460266,0.0039015645161271095
1761469089454253000,0.217253173828125,0.07442494481801987,-0.07250749319791794,0.03246689587831497
1761469089464208000,0.227207763671875,0.06782751530408859,-0.023881686851382256,0.05797121301293373
1761469089474163700,0.237163818359375,0.06300399452447891,0.020213868468999863,0.06690159440040588
1761469089484119000,0.247119140625,0.07200904190540314,0.05621971935033798,0.06454701721668243
1761469089494075000,0.257074951171875,0.08295303583145142,0.07399365305900574,0.05970432981848717
1761469089504029700,0.26702978515625,0.09724066406488419,0.08857649564743042,0.05881465598940849
1761469089513985800,0.27698583984375,0.1078706756234169,0.11838658899068832,0.07183565199375153
1761469089523940900,0.28694091796875,0.11165701597929001,0.1319623440504074,0.08790940791368484
1761469089533897000,0.29689697265625,0.1094476580619812,0.1355845183134079,0.10717125236988068
1761469089543851800,0.306851806640625,0.10871782898902893,0.13960254192352295,0.12277578562498093
1761469089553806800,0.316806884765625,0.10438007861375809,0.11624103784561157,0.12281520664691925
1761469089563763000,0.326762939453125,0.09805498272180557,0.06253747642040253,0.11074106395244598
1761469089573717800,0.3367177734375,0.08923778682947159,-0.006589929107576609,0.09145525097846985
1761469089583673900,0.346673828125,0.07722966372966766,-0.06814872473478317,0.0742657482624054
1761469089593629000,0.35662890625,0.06436286866664886,-0.10219404101371765,0.07069498300552368
1761469089603584800,0.366584716796875,0.04398899897933006,-0.11975495517253876,0.07117724418640137
1761469089613539800,0.376539794921875,0.025761790573596954,-0.11925029009580612,0.07724499702453613
1761469089623496000,0.386495849609375,0.008261613547801971,-0.07212464511394501,0.08843609690666199
1761469089633450800,0.39645068359375,-0.0010229647159576416,0.00870735477656126,0.10151168704032898
1761469089643406800,0.40640673828125,-0.000950555840972811,0.07750452309846878,0.10834823548793793
1761469089653362000,0.41636181640625,0.0022084859665483236,0.11168432980775833,0.10928699374198914
1761469089663318000,0.426318115234375,0.01344720646739006,0.12124095857143402,0.1037791520357132
1761469089673272800,0.43627294921875,0.014498090371489525,0.11188554018735886,0.09731752425432205
1761469089683229000,0.44622900390625,0.009838277474045753,0.09215997159481049,0.08915768563747406
1761469089693184000,0.45618408203125,0.005939675960689783,0.07198891788721085,0.08343321830034256
1761469089703139800,0.466139892578125,0.0034690857864916325,0.04536658525466919,0.07279502600431442
1761469089713095000,0.476094970703125,0.003874951507896185,0.0014023235999047756,0.054557427763938904
1761469089723050800,0.48605078125,0.003595319576561451,-0.03813683241605759,0.03533792495727539
1761469089733005800,0.496005859375,0.0022402359172701836,-0.05636484920978546,0.024890730157494545
1761469089742962000,0.5059619140625,-0.004113858565688133,-0.0504411906003952,0.02134142816066742
1761469089752916700,0.515916748046875,-0.013439184054732323,-0.027592599391937256,0.022085515782237053
1761469089762872800,0.525872802734375,-0.020239608362317085,0.010471632704138756,0.025675905868411064
1761469089772828000,0.535827880859375,-0.022771473973989487,0.03433648496866226,0.029230693355202675
1761469089782782700,0.54578271484375,-0.022226814180612564,0.04359491541981697,0.03306812047958374
1761469089792738800,0.55573876953125,-0.019475769251585007,0.04503035917878151,0.04300170764327049
1761469089802694000,0.56569384765625,-0.01971437595784664,0.04460521787405014,0.04954353719949722
1761469089812650000,0.57564990234375,-0.012646612711250782,0.02589784562587738,0.04471335932612419
1761469089822604800,0.585604736328125,-0.0009633949957787991,0.0072941589169204235,0.03827902302145958
1761469089832561000,0.595560791015625,0.005381320137530565,0.0054680295288562775,0.03847769275307655
1761469089842516000,0.605515869140625,0.011152488179504871,0.02200191281735897,0.04436001181602478
1761469089852471800,0.615471923828125,0.017408255487680435,0.02818950079381466,0.043483830988407135
1761469089862427000,0.625427001953125,0.018773265182971954,-0.0006552231498062611,0.03223118931055069
1761469089872383000,0.635383056640625,0.020145324990153313,-0.020339446142315865,0.0232669897377491
1761469089882337800,0.645337890625,0.023728860542178154,-0.022959787398576736,0.02066078782081604
1761469089892294000,0.6552939453125,0.02130218967795372,-0.022825298830866814,0.01113040093332529
1761469089902249000,0.6652490234375,0.019670356065034866,-0.018209367990493774,-0.007261607330292463
1761469089912204800,0.675204833984375,0.012663844972848892,-0.02053537219762802,-0.023825671523809433
1761469089922159900,0.685159912109375,0.01085816603153944,-0.02286655455827713,-0.022834554314613342
1761469089932115700,0.69511572265625,0.009444826282560825,-0.00842742808163166,-0.004754354245960712
1761469089942071000,0.705071044921875,0.011905728839337826,0.015008896589279175,0.011233145371079445
1761469089952027000,0.71502685546875,0.016499947756528854,0.020525634288787842,0.0190279521048069
1761469089961981700,0.724981689453125,0.0222405306994915,0.015071028843522072,0.014016966335475445
1761469089971937800,0.734937744140625,0.022138532251119614,-0.00009221112122759223,-0.0015454823151230812
1761469089981892900,0.744892822265625,0.016760699450969696,-0.0161167960613966,-0.021489061415195465
1761469089991849000,0.754848876953125,0.012691657058894634,-0.039796557277441025,-0.03413774445652962
1761469090001803800,0.7648037109375,0.01187387015670538,-0.06671614944934845,-0.03992757946252823
1761469090011759900,0.774759765625,0.015502159483730793,-0.089267797768116,-0.03597305342555046
1761469090021715000,0.78471484375,0.02088775858283043,-0.10319476574659348,-0.025740614160895348
1761469090031670800,0.7946708984375,0.02180282026529312,-0.11062472313642502,-0.013859188184142113
1761469090041625900,0.8046259765625,0.025963153690099716,-0.09650012105703354,0.004972716793417931
1761469090051581000,0.814580810546875,0.03282691910862923,-0.05391963943839073,0.02128005214035511
1761469090061536800,0.824536865234375,0.03833223506808281,-0.0003448211355134845,0.03145710751414299
1761469090071491800,0.834491943359375,0.044862039387226105,0.04724959656596184,0.039005037397146225
1761469090081448000,0.844447998046875,0.04961889609694481,0.08027523010969162,0.04753230884671211
1761469090091402800,0.85440283203125,0.05816444754600525,0.08627533167600632,0.05925634130835533
1761469090101358800,0.86435888671875,0.06274566799402237,0.058279071003198624,0.07201086729764938
1761469090111314000,0.87431396484375,0.06734254956245422,0.01770607940852642,0.08234260231256485
1761469090121270000,0.88427001953125,0.06578683108091354,-0.022053247317671776,0.08058164268732071
1761469090131224300,0.894224365234375,0.062441639602184296,-0.03742927312850952,0.07133515179157257
1761469090141180400,0.904180419921875,0.06347375363111496,-0.03558202087879181,0.0542382076382637
1761469090151135500,0.914135498046875,0.059109363704919815,-0.026717158034443855,0.03961425647139549
1761469090161091600,0.924091552734375,0.057684727013111115,-0.04223643243312836,0.032757725566625595
1761469090171046400,0.93404638671875,0.05483780801296234,-0.057974912226200104,0.034916482865810394
1761469090181002500,0.94400244140625,0.04715890809893608,-0.057131219655275345,0.04229727387428284
1761469090190957600,0.95395751953125,0.040083687752485275,-0.05098810791969299,0.04623342677950859
1761469090200913400,0.963913330078125,0.04022153839468956,-0.029182210564613342,0.03907599300146103
1761469090210868500,0.973868408203125,0.03960102051496506,-0.005601517390459776,0.02439718134701252
1761469090220824600,0.983824462890625,0.03626338392496109,0.0048922039568424225,0.008401891216635704
1761469090230779400,0.993779296875,0.027930349111557007,-0.0019111071014776826,-0.008438341319561005
1761469090240735500,1.003735595703125,0.01644819788634777,-0.01818300224840641,-0.014679843559861183
1761469090250690600,1.013690673828125,0.004302851390093565,-0.017313746735453606,-0.00846002995967865
1761469090260646700,1.023646728515625,-0.0027628233656287193,-0.0008972847135737538,0.011920792050659657
1761469090270601500,1.0336015625,-0.007433741353452206,0.009701031260192394,0.039151083678007126
1761469090280557300,1.043557373046875,-0.00677484693005681,0.017674008384346962,0.05899088457226753
1761469090290512600,1.0535126953125,-0.002193943364545703,0.020764341577887535,0.06347139179706573
1761469090300468500,1.063468505859375,0.0029394407756626606,0.020880429074168205,0.05390079692006111
1761469090310423300,1.07342333984375,0.009975778870284557,0.016742408275604248,0.03350364789366722
1761469090320378600,1.083378662109375,0.013750429265201092,0.013942765071988106,0.012842623516917229
1761469090330334500,1.09333447265625,0.012393814511597157,0.01393717247992754,-0.00784720852971077
1761469090340289500,1.10328955078125,0.006866746582090855,0.015453160740435123,-0.027018392458558083
1761469090350245400,1.113245361328125,-0.0031821592710912228,0.006124374456703663,-0.043763283640146255
1761469090360200400,1.123200439453125,-0.01584670878946781,-0.008030624128878117,-0.058411240577697754
1761469090370156500,1.133156494140625,-0.02270674705505371,-0.03269122913479805,-0.06567022204399109
1761469090380111400,1.143111328125,-0.021155523136258125,-0.05973697826266289,-0.0705902948975563
1761469090390067500,1.1530673828125,-0.0218383576720953,-0.09370426088571548,-0.0675167441368103
1761469090400022500,1.1630224609375,-0.020093820989131927,-0.12099853903055191,-0.05262453109025955
1761469090409978400,1.172978271484375,-0.01927410066127777,-0.13300274312496185,-0.027737557888031006
1761469090419933400,1.182933349609375,-0.01629483513534069,-0.13183170557022095,0.0018578587332740426
1761469090429889500,1.1928896484375,-0.014232483692467213,-0.10370046645402908,0.035078927874565125
1761469090439844400,1.20284423828125,-0.013463178649544716,-0.05059017613530159,0.06790434569120407
1761469090449800400,1.212800537109375,-0.021598869934678078,0.0019822230096906424,0.08634860068559647
1761469090459755500,1.222755615234375,-0.02558012865483761,0.03973208740353584,0.0894954577088356
1761469090469711600,1.232711669921875,-0.028859810903668404,0.07251879572868347,0.0796729177236557
1761469090479666400,1.24266650390625,-0.031768012791872025,0.090935617685318,0.06223022937774658
1761469090489622500,1.25262255859375,-0.03484875708818436,0.07805656641721725,0.04109671339392662
1761469090499577600,1.26257763671875,-0.04242026433348656,0.04606350138783455,0.024615464732050896
1761469090509533400,1.272533447265625,-0.044647466391325,0.021245239302515984,0.015424097888171673
1761469090519488500,1.282488525390625,-0.04090635105967522,0.006964019499719143,0.008703676052391529
1761469090529444400,1.2924443359375,-0.03822294995188713,-0.008097488433122635,0.004234891384840012
1761469090539399400,1.3023994140625,-0.033490121364593506,-0.017405742779374123,0.008143868297338486
1761469090549355500,1.31235546875,-0.030553188174962997,-0.021192757412791252,0.009804349392652512
1761469090559310300,1.322310302734375,-0.022592077031731606,-0.027118967846035957,0.008101515471935272
1761469090569266400,1.332266357421875,-0.016101153567433357,-0.010745055042207241,0.006300952285528183
1761469090579221500,1.342221435546875,-0.008285055868327618,0.009511327371001244,0.008588840253651142
1761469090589177300,1.35217724609375,-0.006308191455900669,0.028783291578292847,0.007568583358079195
1761469090599132400,1.36213232421875,-0.004890532232820988,0.03817733749747276,0.006486380472779274
1761469090609087500,1.37208740234375,-0.010485567152500153,0.0387112982571125,0.0063934363424777985
1761469090619043600,1.382043701171875,-0.014937602914869785,0.03271066024899483,0.004114250186830759
1761469090628998400,1.391998291015625,-0.015201522037386894,0.010037573054432869,-0.002534864004701376
1761469090638954500,1.40195458984375,-0.011899790726602077,-0.009851563721895218,-0.006342231761664152
1761469090648909600,1.41190966796875,-0.00855139922350645,-0.03333185613155365,-0.007257027085870504
1761469090658865400,1.421865478515625,-0.008607733063399792,-0.05312657356262207,-0.006665817461907864
1761469090668820500,1.431820556640625,-0.00434001674875617,-0.06087370961904526,-0.003291858360171318
1761469090678776600,1.441776611328125,-0.006314177066087723,-0.04241916909813881,0.012875215150415897
1761469090688731400,1.4517314453125,-0.014163311570882797,-0.012118255719542503,0.03252162039279938
1761469090698687500,1.4616875,-0.024945104494690895,0.01931418851017952,0.05005776137113571
1761469090708642600,1.471642578125,-0.028303083032369614,0.035765863955020905,0.056516192853450775
1761469090718598400,1.481598388671875,-0.030490214005112648,0.039319612085819244,0.059194255620241165
1761469090728553500,1.491553466796875,-0.03244630619883537,0.02154780551791191,0.056246135383844376
1761469090738509300,1.50150927734375,-0.03008607029914856,-0.004336013924330473,0.042375609278678894
1761469090748464600,1.511464599609375,-0.026617569848895073,-0.0349021814763546,0.02670902945101261
1761469090758420500,1.52142041015625,-0.022855350747704506,-0.05538242682814598,0.006038318853825331
1761469090768375300,1.531375244140625,-0.011951835826039314,-0.06036227196455002,-0.017075255513191223
1761469090778331400,1.541331298828125,-0.0063336738385260105,-0.059837955981492996,-0.031177308410406113
1761469090788286500,1.551286376953125,-0.0024161641485989094,-0.0539848618209362,-0.04341772943735123
1761469090798242600,1.56124267578125,0.0006452102097682655,-0.03309575840830803,-0.049096785485744476
1761469090808197400,1.571197265625,0.0005256343283690512,-0.010804565623402596,-0.04316059872508049
1761469090818153500,1.581153564453125,-0.005693674553185701,0.008185629732906818,-0.03503481298685074
1761469090828108500,1.591108642578125,-0.007889983244240284,0.02266177535057068,-0.035866789519786835
1761469090838064400,1.601064453125,-0.009110397659242153,0.018245955929160118,-0.0370737724006176
1761469090848019700,1.611019775390625,-0.011914440430700779,0.012557444162666798,-0.03617122769355774
1761469090857975600,1.6209755859375,-0.02012612856924534,-0.005468875169754028,-0.03486141562461853
1761469090867930400,1.630930419921875,-0.025234337896108627,-0.036306947469711304,-0.03317376971244812
1761469090877886500,1.640886474609375,-0.027099603787064552,-0.060204241424798965,-0.029050633311271667
1761469090887841500,1.650841552734375,-0.02793343923985958,-0.07660318166017532,-0.02220125123858452
1761469090897797600,1.660797607421875,-0.02994377538561821,-0.07027564942836761,-0.00874093547463417
1761469090907752400,1.67075244140625,-0.03167163208127022,-0.04421848803758621,0.008043104782700539
1761469090917708300,1.680708251953125,-0.024223990738391876,-0.017606083303689957,0.024229489266872406
1761469090927663600,1.69066357421875,-0.017766358330845833,0.0010235279332846403,0.038540251553058624
1761469090937619500,1.700619384765625,-0.010829299688339233,0.01671898551285267,0.05371052771806717
1761469090947574300,1.71057421875,-0.005645723547786474,0.02545282244682312,0.06093035638332367
1761469090957529600,1.720529541015625,-0.0037450394593179226,0.03441137447953224,0.06001899391412735
1761469090967485400,1.7304853515625,-0.005112838931381702,0.03776189684867859,0.051019638776779175
1761469090977440500,1.7404404296875,-0.007862566038966179,0.03166170418262482,0.03401480242609978
1761469090987396400,1.750396240234375,-0.009292418137192726,0.02144582010805607,0.01217927597463131
1761469090997351400,1.760351318359375,-0.010995971970260143,-0.0034385877661406994,-0.014507319778203964
1761469091007307500,1.7703076171875,-0.007489121053367853,-0.0357682965695858,-0.03871864825487137
1761469091017262300,1.780262451171875,-0.0030637187883257866,-0.05170197784900665,-0.04943622276186943
1761469091027218700,1.79021875,0.005177167244255543,-0.04309863597154617,-0.04845484718680382
1761469091037173500,1.800173583984375,0.004841818939894438,-0.031016791239380836,-0.0397898331284523
1761469091047129300,1.81012939453125,0.0006015336839482188,-0.011008994653820992,-0.02893718332052231
1761469091057084700,1.820084716796875,0.003515522927045822,0.012902299873530865,-0.017050251364707947
1761469091067040500,1.83004052734375,0.004942977335304022,0.03505633771419525,-0.012171341106295586
1761469091076995300,1.839995361328125,0.00078408676199615,0.04981869086623192,-0.011359801515936852
1761469091086951400,1.849951416015625,-0.004588574171066284,0.04533525928854942,-0.017598522827029228
1761469091096906500,1.859906494140625,-0.013375842943787575,0.02826431207358837,-0.02553827501833439
1761469091106862600,1.869862548828125,-0.019999656826257706,0.012854994274675846,-0.03114103339612484
1761469091116817400,1.8798173828125,-0.021506473422050476,-0.000615007767919451,-0.041089534759521484
1761469091126773500,1.8897734375,-0.022114472463726997,-0.021901654079556465,-0.055474333465099335
1761469091136728300,1.899728271484375,-0.018941009417176247,-0.03044554404914379,-0.05442123860120773
1761469091146684400,1.909684326171875,-0.009536588564515114,-0.02021314576268196,-0.03726941719651222
1761469091156639200,1.91963916015625,-0.0016498465556651354,-0.006846090778708458,-0.012531999498605728
1761469091166595600,1.929595703125,0.001049799844622612,0.008930741809308529,0.014131568372249603
1761469091176550400,1.93955029296875,0.0008747740648686886,0.022549763321876526,0.03669801726937294
1761469091186506200,1.94950634765625,-0.004835575819015503,0.03248095512390137,0.047744277864694595
1761469091196461300,1.95946142578125,-0.00928577221930027,0.03228306025266647,0.05478503555059433
1761469091206417400,1.96941748046875,-0.008828241378068924,0.026702940464019775,0.055163733661174774
1761469091216372200,1.979372314453125,-0.009107258170843124,0.02074371464550495,0.04914196580648422
1761469091226328300,1.989328369140625,-0.005037947557866573,0.0030294316820800304,0.03204846382141113
1761469091236283400,1.999283447265625,-0.008245023898780346,-0.015796635299921036,0.008328823372721672
1761469091246239500,2.009239501953125,-0.01281687244772911,-0.02688630484044552,-0.013375138863921165
1761469091256194300,2.0191943359375,-0.017332613468170166,-0.030081788077950478,-0.02615315653383732
1761469091266150400,2.029150390625,-0.019613079726696014,-0.028729168698191643,-0.026322532445192337
1761469091276105500,2.03910546875,-0.017502088099718094,-0.02110525220632553,-0.019212890416383743
1761469091286061300,2.049061279296875,-0.014392580837011337,-0.009466439485549927,-0.016098320484161377
1761469091296016400,2.059016357421875,-0.009174186736345291,-0.005188148468732834,-0.021495621651411057
1761469091305972200,2.06897216796875,-0.010049832984805107,0.002464445075020194,-0.01827745884656906
1761469091315927300,2.07892724609375,-0.007564727216959,0.023792779073119164,-0.006658131722360849
1761469091325883400,2.08888330078125,-0.0075881630182266235,0.03610403835773468,0.0018373524071648717
1761469091335838200,2.098838134765625,-0.008711526170372963,0.04087796062231064,0.008163608610630035
1761469091345794600,2.108794677734375,-0.012053260579705238,0.035016342997550964,0.010892549529671669
1761469091355749400,2.118749267578125,-0.012400227598845959,0.024821648374199867,0.006277909968048334
1761469091365705200,2.128705322265625,-0.012011139653623104,0.00465353112667799,-0.004357689991593361
1761469091375660500,2.13866064453125,-0.014304430224001408,-0.018057530745863914,-0.015952646732330322
1761469091385616400,2.148616455078125,-0.01477288082242012,-0.028823891654610634,-0.013735565356910229
1761469091395571500,2.158571533203125,-0.013376880437135696,-0.020970869809389114,-0.0037426436319947243
1761469091405527300,2.16852734375,-0.010728100314736366,-0.0096961110830307,0.007957421243190765
1761469091415482400,2.178482421875,-0.004021978937089443,-0.004893485922366381,0.01895737275481224
1761469091425438500,2.1884384765625,0.0014036791399121284,-0.0006332270568236709,0.030899787321686745
1761469091435393300,2.198393310546875,0.009478326886892319,-0.002881318097934127,0.03890753537416458
1761469091445349400,2.208349365234375,0.018550653010606766,0.0015294093172997236,0.049986280500888824
1761469091455304400,2.218304443359375,0.02256990782916546,0.0018851679051294923,0.05237383395433426
1761469091465260300,2.22826025390625,0.030029421672225,-0.005784203764051199,0.047354310750961304
1761469091475215400,2.23821533203125,0.034096475690603256,-0.016005875542759895,0.03771954029798508
1761469091485171200,2.248171142578125,0.037285346537828445,-0.01723412610590458,0.024478036910295486
1761469091495126300,2.258126220703125,0.03711245208978653,-0.007246322929859161,0.011594083160161972
1761469091505082400,2.268082275390625,0.03675398975610733,0.0006952231051400304,0.0017513064667582512
1761469091515037200,2.278037109375,0.03547064960002899,0.009095164015889168,-0.0020159175619482994
1761469091524993500,2.28799365234375,0.038918379694223404,0.015637751668691635,-0.003924072254449129
1761469091534948400,2.2979482421875,0.04172356054186821,0.014178242534399033,-0.008533330634236336
1761469091544904400,2.307904541015625,0.03824733570218086,0.0029191961511969566,-0.015511877834796906
1761469091554859500,2.317859619140625,0.0335947684943676,-0.004648989997804165,-0.022521639242768288
1761469091564815400,2.3278154296875,0.026586657389998436,-0.011729802004992962,-0.03464008867740631
1761469091574770400,2.3377705078125,0.01922285370528698,-0.024244530126452446,-0.053735021501779556
1761469091584726300,2.347726318359375,0.007660205475986004,-0.04380837455391884,-0.06493760645389557
1761469091594681300,2.357681396484375,0.00029837340116500854,-0.054809216409921646,-0.06644640117883682
1761469091604637400,2.367637451171875,-0.002181295771151781,-0.04982297867536545,-0.05691228434443474
1761469091614592300,2.37759228515625,-0.0013699340634047985,-0.035166624933481216,-0.04274206981062889
1761469091624548400,2.38754833984375,-0.0009147998644039035,-0.010941979475319386,-0.025749770924448967
1761469091634503400,2.39750341796875,-0.0004057575424667448,0.007697186432778835,-0.004636538214981556
1761469091644459300,2.407459228515625,0.004081935156136751,0.021078770980238914,0.015043423511087894
1761469091654414300,2.417414306640625,0.009025856852531433,0.026231560856103897,0.0301798228174448
1761469091664370200,2.4273701171875,0.011227758601307869,0.02311805821955204,0.03533117473125458
1761469091674325500,2.437325439453125,0.010545371100306511,0.023754598572850227,0.031105101108551025
1761469091684281300,2.44728125,0.0044768257066607475,0.022456306964159012,0.02168310433626175
1761469091694236200,2.457236083984375,-0.002790518570691347,0.018830005079507828,0.008066138252615929
1761469091704192500,2.467192626953125,-0.011715037748217583,0.008153392001986504,-0.006166859529912472
1761469091714147300,2.477147216796875,-0.01978900097310543,-0.00787984486669302,-0.019371725618839264
1761469091724103400,2.487103515625,-0.019516026601195335,-0.012318002991378307,-0.028173474594950676
1761469091734058500,2.49705859375,-0.017182521522045135,-0.012375370599329472,-0.03484806418418884
1761469091744014300,2.507014404296875,-0.016950294375419617,-0.01176177803426981,-0.040589042007923126
1761469091753969400,2.516969482421875,-0.01557660847902298,-0.007038115989416838,-0.041594333946704865
1761469091763925200,2.52692529296875,-0.0172693133354187,0.0004301863955333829,-0.03255343437194824
1761469091773880300,2.53688037109375,-0.011269520036876202,-0.0009603147627785802,-0.023547237738966942
1761469091783836400,2.54683642578125,-0.007477977778762579,-0.0019946866668760777,-0.013534285128116608
1761469091793791200,2.556791259765625,-0.0030502593144774437,0.011068088002502918,-0.0029784245416522026
1761469091803747300,2.566747314453125,-0.0014965712325647473,0.02103736437857151,0.0005071207415312529
1761469091813702400,2.576702392578125,-0.0031343617010861635,0.02279028855264187,0.0008760795462876558
1761469091823658500,2.586658447265625,-0.005660636816173792,0.009418290108442307,-0.0015394072979688644
1761469091833613300,2.59661328125,-0.009813528507947922,-0.009551608003675938,-0.004076517187058926
1761469091843569200,2.606569091796875,-0.01027984730899334,-0.023719090968370438,-0.005902114324271679
1761469091853524500,2.6165244140625,-0.012224390171468258,-0.031008781865239143,-0.01116432435810566
1761469091863480300,2.626480224609375,-0.012062735855579376,-0.02936428040266037,-0.010818645358085632
1761469091873435100,2.63643505859375,-0.012534184381365776,-0.010943272151052952,-0.005663437768816948
1761469091883391500,2.6463916015625,-0.013104633428156376,0.014453697018325329,0.00036169751547276974
1761469091893346300,2.65634619140625,-0.015970924869179726,0.03275368735194206,0.007325736340135336
1761469091903302400,2.666302490234375,-0.021576080471277237,0.05523103475570679,0.015156494453549385
1761469091913257500,2.676257568359375,-0.024174043908715248,0.06137792766094208,0.016826719045639038
1761469091923213300,2.68621337890625,-0.023915184661746025,0.05129546672105789,0.012831710278987885
1761469091933168400,2.69616845703125,-0.02206084504723549,0.030883003026247025,0.0067229242995381355
1761469091943124200,2.706124267578125,-0.012592773884534836,0.007683408912271261,0.001419238862581551
1761469091953079600,2.71607958984375,-0.0026561287231743336,-0.009919357486069202,-0.0018535349518060684
1761469091963035400,2.726035400390625,0.006978122983127832,-0.01805771142244339,-0.0034434422850608826
1761469091972990200,2.735990234375,0.010348059237003326,-0.014258991926908493,-0.0070675271563231945
1761469091982946300,2.7459462890625,0.006744536105543375,0.0027096052654087543,-0.002852009143680334
1761469091992901400,2.7559013671875,0.0008045389549806714,0.02760203927755356,0.006667825393378735
1761469092002857500,2.765857421875,-0.004145478829741478,0.05234440416097641,0.016552945598959923
1761469092012812300,2.775812255859375,-0.011676858179271221,0.05852477625012398,0.021761905401945114
1761469092022768400,2.785768310546875,-0.013334675692021847,0.04722418263554573,0.013139920309185982
1761469092032723500,2.795723388671875,-0.01692957803606987,0.012176727876067162,-0.0014452151954174042
1761469092042679300,2.80567919921875,-0.014007024466991425,-0.014265266247093678,-0.011939934454858303
1761469092052634400,2.81563427734375,-0.01358295138925314,-0.02744586579501629,-0.014907032251358032
1761469092062590500,2.825590576171875,-0.011019925586879253,-0.028316985815763474,-0.011180737987160683
1761469092072545300,2.835545166015625,-0.008732326328754425,-0.015915561467409134,-0.005940813571214676
1761469092082501400,2.84550146484375,-0.01017762441188097,0.006890683900564909,-0.002453138120472431
1761469092092456400,2.85545654296875,-0.009547507390379906,0.01890149898827076,-0.004575385246425867
1761469092102412500,2.86541259765625,-0.017971884459257126,0.009222506545484066,-0.015921516343951225
1761469092112367400,2.875367431640625,-0.031883127987384796,0.003911256790161133,-0.02114761807024479
1761469092122323200,2.8853232421875,-0.04858354479074478,0.009355556219816208,-0.01921735890209675
1761469092132279000,2.895279052734375,-0.06203557923436165,0.019656416028738022,-0.016338229179382324
1761469092142235100,2.905235107421875,-0.06846284866333008,0.03528384491801262,-0.012443089857697487
1761469092152190000,2.91518994140625,-0.0682816356420517,0.051867011934518814,-0.012475062161684036
1761469092162146000,2.92514599609375,-0.06064661592245102,0.0629204660654068,-0.007069111801683903
1761469092172101000,2.93510107421875,-0.047548554837703705,0.061125498265028,-0.0007942398078739643
1761469092182057000,2.945056884765625,-0.035155266523361206,0.04073313996195793,0.008840544149279594
1761469092192012000,2.955011962890625,-0.019645173102617264,0.031059972941875458,0.01634395867586136
1761469092201967900,2.9649677734375,-0.006020441651344299,0.02402736246585846,0.017930403351783752
1761469092211923000,2.9749228515625,0.007103057578206062,0.018824860453605652,0.012121993117034435
1761469092221879000,2.984879150390625,0.012826190330088139,0.018556946888566017,0.004068593494594097
1761469092231833900,2.994833740234375,0.015343798324465752,0.017423614859580994,-0.0012018182314932346
1761469092241790000,3.0047900390625,0.01973668299615383,0.01980634406208992,-0.0016055530868470669
1761469092251745000,3.0147451171875,0.02873965911567211,0.025865774601697922,0.0011149097699671984
1761469092261700900,3.024700927734375,0.04125305265188217,0.041479092091321945,0.004862776026129723
1761469092271656000,3.034656005859375,0.050061482936143875,0.05593874305486679,0.00968182273209095
1761469092281612000,3.044612060546875,0.05944380164146423,0.06780152022838593,0.015546370297670364
1761469092291567000,3.054567138671875,0.06602231413125992,0.07210668921470642,0.01893571764230728
1761469092301523000,3.06452294921875,0.06929027289152145,0.06813725084066391,0.015966560691595078
1761469092311478000,3.07447802734375,0.06585142016410828,0.05192387476563454,0.009451305493712425
1761469092321434000,3.08443408203125,0.06098582595586777,0.02516416646540165,-0.0026224018074572086
1761469092331389000,3.094388916015625,0.054213911294937134,-0.00555816013365984,-0.015534794889390469
1761469092341345000,3.104344970703125,0.0449887216091156,-0.015174034982919693,-0.016029611229896545
1761469092351300000,3.114300048828125,0.04090031981468201,-0.005474320147186518,-0.012076511979103088
1761469092361256000,3.124255859375,0.04385163635015488,0.002472819061949849,-0.009971017017960548
1761469092371211000,3.1342109375,0.04794403165578842,0.007995998486876488,-0.006554082967340946
1761469092381166800,3.144166748046875,0.05255875736474991,0.01872481033205986,-0.0032674758695065975
1761469092391122200,3.1541220703125,0.054210953414440155,0.020881686359643936,-0.0018715029582381248
1761469092401078000,3.164078125,0.051312901079654694,0.02223723568022251,0.002191149163991213
1761469092411032800,3.17403271484375,0.04338189586997032,0.027896219864487648,0.008416064083576202
1761469092420989000,3.183989013671875,0.03499000892043114,0.03477223590016365,0.013881935738027096
1761469092430944000,3.193944091796875,0.026018988341093063,0.02764987386763096,0.013233385980129242
1761469092440900000,3.203900146484375,0.01950116828083992,0.016555411741137505,0.013789985328912735
1761469092450855000,3.21385498046875,0.017638398334383965,0.004773286636918783,0.008862828835844994
1761469092460811000,3.22381103515625,0.01766130141913891,0.0005250121466815472,0.004529866389930248
1761469092470766000,3.23376611328125,0.013680025935173035,-0.0016215412179008126,-0.0032379990443587303
1761469092480722000,3.243721923828125,0.008788065053522587,-0.0011576185934245586,-0.0028534382581710815
1761469092490678000,3.253677978515625,0.004483782220631838,0.00859128125011921,0.0014279576716944575
1761469092500633000,3.263633056640625,-0.0037131612189114094,0.012782298028469086,-0.0004301297012716532
1761469092510589000,3.2735888671875,-0.010976508259773254,0.014685503207147121,-0.006695175543427467
1761469092520544000,3.2835439453125,-0.01919635571539402,0.018838703632354736,-0.011625485494732857
1761469092530499800,3.293499755859375,-0.02245456911623478,0.021984701976180077,-0.02018721029162407
1761469092540455200,3.303455078125,-0.01993175595998764,0.010406608693301678,-0.030435053631663322
1761469092550411000,3.313410888671875,-0.01713830977678299,-0.010560075752437115,-0.04174059256911278
1761469092560365800,3.32336572265625,-0.010742195881903172,-0.019276602193713188,-0.053209494799375534
1761469092570322000,3.333322021484375,-0.0075476220808923244,-0.019296610727906227,-0.05738191306591034
1761469092580277000,3.343277099609375,-0.002656726399436593,-0.015143675729632378,-0.05333364009857178
1761469092590233000,3.353233154296875,0.007939808070659637,-0.0014013643376529217,-0.0413934588432312
1761469092600188000,3.36318798828125,0.01853679120540619,0.004726302810013294,-0.026609186083078384
1761469092610144000,3.37314404296875,0.021249163895845413,-0.0020108120515942574,-0.010233785957098007
1761469092620099000,3.38309912109375,0.025792783126235008,-0.009342494420707226,-0.0013004788197577
1761469092630055000,3.393054931640625,0.02706294134259224,-0.003548604669049382,0.013170801103115082
1761469092640010000,3.403010009765625,0.028404109179973602,0.006973278243094683,0.020720597356557846
1761469092649966000,3.412966064453125,0.03887493163347244,-0.006533309351652861,0.020901832729578018
1761469092659921000,3.4229208984375,0.049956079572439194,-0.026293963193893433,0.020750831812620163
1761469092669877000,3.432876953125,0.055197082459926605,-0.029228152707219124,0.020528260618448257
1761469092679832000,3.44283203125,0.052681729197502136,-0.03997986763715744,0.026580028235912323
1761469092689788000,3.452787841796875,0.05343617498874664,-0.0548885278403759,0.03473137319087982
1761469092699743000,3.462742919921875,0.056752610951662064,-0.06284152716398239,0.039620403200387955
1761469092709698800,3.47269873046875,0.05696968361735344,-0.045542411506175995,0.04770688712596893
1761469092719654100,3.482654052734375,0.05220022797584534,-0.024673881009221077,0.051381513476371765
1761469092729610000,3.49260986328125,0.05206020176410675,-0.026348093524575233,0.04785533621907234
1761469092739564800,3.502564697265625,0.0479501448571682,-0.04437130317091942,0.03671693056821823
1761469092749521000,3.51252099609375,0.041637714952230453,-0.061612680554389954,0.02428700216114521
1761469092759476000,3.52247607421875,0.029240967705845833,-0.06300285458564758,0.01682828739285469
1761469092769432000,3.53243212890625,0.01710694469511509,-0.060749299824237823,0.006815615575760603
1761469092779387000,3.542386962890625,0.0059371148236095905,-0.04967134818434715,-0.0012399139814078808
1761469092789343000,3.552343017578125,-0.004335608799010515,-0.029748469591140747,-0.003634852822870016
1761469092799298000,3.562298095703125,-0.008700795471668243,-0.012536994181573391,-0.0050710951909422874
1761469092809254000,3.57225390625,-0.014718085527420044,-0.009030738845467567,-0.007219481281936169
1761469092819209200,3.582209228515625,-0.017780188471078873,-0.013925096020102501,-0.00876438058912754
1761469092829165000,3.5921650390625,-0.014242414385080338,-0.015535412356257439,-0.01632503792643547
1761469092839120000,3.602119873046875,-0.011674594134092331,-0.023812251165509224,-0.026105230674147606
1761469092849076000,3.612075927734375,-0.00811881385743618,-0.03149483725428581,-0.03928562253713608
1761469092859031800,3.62203173828125,-0.004542720969766378,-0.039755962789058685,-0.05095745623111725
1761469092868987100,3.631987060546875,-0.006172980181872845,-0.04483485966920853,-0.055672869086265564
1761469092878943000,3.64194287109375,-0.009557059034705162,-0.04827619716525078,-0.052895985543727875
1761469092888897800,3.651897705078125,-0.017726853489875793,-0.05116817355155945,-0.0530741810798645
1761469092898854100,3.661854248046875,-0.026825010776519775,-0.041397299617528915,-0.04909541830420494
1761469092908809000,3.67180908203125,-0.03914409130811691,-0.022432582452893257,-0.042263809591531754
1761469092918765000,3.68176513671875,-0.048713892698287964,-0.005634961649775505,-0.031736597418785095
1761469092928720000,3.691719970703125,-0.05459827557206154,-0.0028517062310129404,-0.01850147172808647
1761469092938676000,3.701676025390625,-0.05482970550656319,-0.016877509653568268,-0.004035180900245905
1761469092948631000,3.711631103515625,-0.04886394366621971,-0.04311785474419594,0.01238509826362133
1761469092958587000,3.7215869140625,-0.03590633347630501,-0.06433579325675964,0.03042934648692608
1761469092968542200,3.731542236328125,-0.018352527171373367,-0.06481359899044037,0.052854184061288834
1761469092978498000,3.741498046875,-0.0021898027043789625,-0.057213734835386276,0.07248860597610474
1761469092988452900,3.751452880859375,0.005672058556228876,-0.05205530673265457,0.09522576630115509
1761469092998409000,3.761408935546875,0.010087846778333187,-0.050460606813430786,0.11481065303087234
1761469093008364000,3.771364013671875,0.003082078415900469,-0.03319571539759636,0.1312110871076584
1761469093018320100,3.781320068359375,-0.004612592980265617,0.007932014763355255,0.13616856932640076
1761469093028275000,3.79127490234375,-0.006821013987064362,0.030811749398708344,0.12860652804374695
1761469093038230800,3.801230712890625,-0.007433274760842323,0.03548186644911766,0.11829449981451035
1761469093048186000,3.81118603515625,-0.007024100981652737,0.028867341578006744,0.11704623699188232
1761469093058142000,3.821141845703125,-0.001162216765806079,0.020016858354210854,0.11354205012321472
1761469093068096800,3.8310966796875,0.010076538659632206,0.00839877687394619,0.10778471827507019
1761469093078053000,3.84105322265625,0.024617131799459457,-0.013204785995185375,0.09497544169425964
1761469093088008000,3.851008056640625,0.03559592738747597,-0.03081301786005497,0.08681854605674744
1761469093097964000,3.860964111328125,0.04533963277935982,-0.04373680800199509,0.07884397357702255
1761469093107919000,3.870919189453125,0.0498676523566246,-0.04527375102043152,0.07507582753896713
1761469093117875200,3.880875244140625,0.053362783044576645,-0.04702610895037651,0.07325102388858795
1761469093127830000,3.890830078125,0.057392582297325134,-0.04814988374710083,0.0705445259809494
1761469093137785000,3.90078515625,0.0603225901722908,-0.049256425350904465,0.06588399410247803
1761469093147740200,3.910740234375,0.05957384407520294,-0.05110608786344528,0.05938376486301422
1761469093157696300,3.9206962890625,0.0561189278960228,-0.056783415377140045,0.05077110230922699
1761469093167652000,3.930652099609375,0.04537111520767212,-0.05303272232413292,0.044055480509996414
1761469093177607400,3.940607421875,0.03654966130852699,-0.0365259163081646,0.04129511117935181
1761469093187563300,3.950563232421875,0.03272216394543648,-0.02584104612469673,0.04713595658540726
1761469093197518300,3.960518310546875,0.02761874906718731,-0.03787853568792343,0.047609735280275345
1761469093207474200,3.97047412109375,0.021862873807549477,-0.007909403182566166,0.05286950618028641
1761469093217429200,3.98042919921875,0.004625298082828522,0.01972142420709133,0.05624373257160187
1761469093227385300,3.99038525390625,-0.010421449318528175,0.023576583713293076,0.04911520704627037
1761469093246672100,4.009672119140625,-0.03343968093395233,0.00889004860073328,0.021157873794436455
1761469093256627200,4.019627197265625,-0.03664746135473251,-0.014134310185909271,0.005856680683791637
1761469093266583300,4.029583251953125,-0.02969062700867653,-0.04159262776374817,-0.004737919196486473
1761469093276538000,4.0395380859375,-0.013761462643742561,-0.050171732902526855,-0.006086011417210102
1761469093286494200,4.049494140625,0.0015049390494823456,-0.046835143119096756,-0.009252047166228294
1761469093296449300,4.05944921875,0.018465813249349594,-0.04173944890499115,-0.009066425263881683
1761469093306405400,4.0694052734375,0.028671076521277428,-0.028185194358229637,-0.00334270391613245
1761469093316360200,4.079360107421875,0.03512551262974739,-0.021871106699109077,0.015597164630889893
1761469093326316000,4.08931591796875,0.033464398235082626,-0.027737248688936234,0.041182223707437515
1761469093336272100,4.099272216796875,0.028569774702191353,-0.02518673799932003,0.0698908343911171
1761469093346227200,4.109227294921875,0.025785131379961967,-0.01993851363658905,0.0881296768784523
1761469093356183300,4.119183349609375,0.02466047927737236,-0.003376847831532359,0.09059416502714157
1761469093366138000,4.12913818359375,0.021187692880630493,0.020434191450476646,0.08299291133880615
1761469093376094500,4.139094482421875,0.015107161365449429,0.03993598371744156,0.07432299107313156
1761469093386049300,4.14904931640625,0.008242388255894184,0.0588914155960083,0.06731286644935608
1761469093396005000,4.159005126953125,0.00241086445748806,0.07118004560470581,0.054336611181497574
1761469093405960400,4.16896044921875,-0.0017604491440579295,0.0582875981926918,0.03331734985113144
1761469093415916300,4.178916259765625,-0.0037895115092396736,0.029119059443473816,0.0033727658446878195
1761469093425871000,4.18887109375,-0.003337835194543004,0.0017399805365130305,-0.03039744682610035
1761469093435827200,4.1988271484375,-0.0013750854413956404,-0.015049385838210583,-0.05948236584663391
1761469093445782300,4.2087822265625,-0.0056047020480036736,-0.005024933721870184,-0.08263692259788513
1761469093455738400,4.21873828125,-0.006187401711940765,0.006858357228338718,-0.10610869526863098
1761469093465693200,4.228693115234375,-0.007257757242769003,0.0037436948623508215,-0.11517973989248276
1761469093475649000,4.23864892578125,-0.010944371111690998,-0.015375938266515732,-0.11137115210294724
1761469093485604400,4.248604248046875,-0.012239993549883366,-0.0313071608543396,-0.09442439675331116
1761469093495560200,4.258560302734375,-0.011140108108520508,-0.029221639037132263,-0.07398782670497894
1761469093505515300,4.268515380859375,-0.011904102750122547,-0.016675129532814026,-0.05220942199230194
1761469093515471000,4.27847119140625,-0.01087106205523014,-0.0009893772657960653,-0.039489634335041046
1761469093525426200,4.28842626953125,-0.010814997367560863,0.010748490691184998,-0.028075311332941055
1761469093535382300,4.29838232421875,-0.013207580894231796,0.012361034750938416,-0.018762236461043358
1761469093545337000,4.308337158203125,-0.0171895083039999,0.005704826209694147,-0.0021286108531057835
1761469093555916300,4.318916259765625,-0.02008223533630371,-0.004498809110373259,0.014941453002393246
1761469093565871400,4.328871337890625,-0.018248002976179123,-0.012090184725821018,0.030680160969495773
1761469093575827200,4.3388271484375,-0.012525402009487152,-0.01084036286920309,0.0449184849858284
1761469093585782300,4.3487822265625,-0.003485440043732524,0.0032104873098433018,0.05491118133068085
1761469093595738000,4.358738037109375,0.0042563690803945065,0.016141198575496674,0.06107586622238159
1761469093605693400,4.368693359375,0.00548357842490077,0.02087046205997467,0.05837627872824669
1761469093615649300,4.378649169921875,0.0028646262362599373,0.007800467777997255,0.04861952364444733
1761469093625604000,4.38860400390625,-0.003972814418375492,-0.004083957523107529,0.03390280902385712
1761469093635560200,4.398560302734375,-0.012843537144362926,-0.014483069069683552,0.02135079726576805
1761469093645516000,4.40851611328125,-0.02306654118001461,-0.020040657371282578,0.007121667265892029
1761469093655471400,4.418471435546875,-0.02817954309284687,-0.021153593435883522,-0.00602076668292284
1761469093665427200,4.42842724609375,-0.027787955477833748,-0.014255753718316555,-0.01528597716242075
1761469093675382000,4.438382080078125,-0.02612188085913658,-0.0001876059250207618,-0.023885592818260193
1761469093685338400,4.44833837890625,-0.02262730523943901,0.01037544384598732,-0.03238296136260033
1761469093695293200,4.458293212890625,-0.018613122403621674,0.01467485073953867,-0.038211289793252945
1761469093705249300,4.468249267578125,-0.01593833975493908,0.013037088327109814,-0.04013002663850784
1761469093715204400,4.478204345703125,-0.015106902457773685,0.0011085235746577382,-0.04533384367823601
1761469093725160200,4.48816015625,-0.012017359025776386,-0.018170658499002457,-0.045966047793626785
1761469093735115300,4.498115234375,-0.010861813090741634,-0.03778963163495064,-0.03904076665639877
1761469093745071000,4.508071044921875,-0.01011531800031662,-0.053508173674345016,-0.033010005950927734
1761469093755026400,4.5180263671875,-0.012440257705748081,-0.044354625046253204,-0.027504190802574158
1761469093764982300,4.527982177734375,-0.0075941733084619045,-0.024006998166441917,-0.023593511432409286
1761469093774937000,4.53793701171875,-0.002620719838887453,-0.006697250064462423,-0.02060411497950554
1761469093784893200,4.54789306640625,-0.0013957044575363398,-0.0030419575050473213,-0.016124460846185684
1761469093794848300,4.55784814453125,0.0019185994751751423,-0.007951760664582253,-0.0097816102206707
1761469093804804400,4.567804443359375,0.007994633167982101,-0.005584648810327053,-0.0021811602637171745
1761469093814759200,4.57775927734375,0.012494309805333614,-0.010214820504188538,0.003934789448976517
1761469093824715300,4.58771533203125,0.015929004177451134,-0.013477412983775139,0.010316283442080021
1761469093834670300,4.59767041015625,0.013191540725529194,-0.020427729934453964,0.011904592625796795
1761469093844626200,4.607626220703125,0.009515082463622093,-0.04016602411866188,0.008655356243252754
1761469093854581000,4.6175810546875,0.010237331502139568,-0.038035228848457336,0.008121391758322716
1761469093864537300,4.627537353515625,0.0075499569065868855,-0.03637755289673805,0.011437851935625076
1761469093874493200,4.6374931640625,0.0021677082404494286,-0.02775982953608036,0.0208425410091877
1761469093884448300,4.6474482421875,0.0026139006949961185,-0.008975258097052574,0.031300995498895645
1761469093894404000,4.657404052734375,0.008887243457138538,0.011966775171458721,0.036896031349897385
1761469093904359400,4.667359375,0.01233474537730217,0.02076246775686741,0.03875473514199257
1761469093914315300,4.677315185546875,0.01558406837284565,0.021412279456853867,0.03750651329755783
1761469093924270000,4.68727001953125,0.014406346715986729,0.018099676817655563,0.030308913439512253
1761469093934226200,4.69722607421875,0.014522993005812168,0.0015491953818127513,0.010929623618721962
1761469093944181200,4.70718115234375,0.010902553796768188,-0.0195560771971941,-0.012686504982411861
1761469093954137300,4.717137451171875,0.0063501461409032345,-0.0322662815451622,-0.03179069235920906
1761469093964092200,4.727092041015625,0.0011475840583443642,-0.025891177356243134,-0.04150151461362839
1761469093974048300,4.73704833984375,-0.00035656942054629326,-0.004883364774286747,-0.04005648195743561
1761469093984003300,4.74700341796875,-0.0019981523510068655,0.01499876007437706,-0.03358795493841171
1761469093993959200,4.756959228515625,-0.004335608799010515,0.028524955734610558,-0.02334943599998951
1761469094003914200,4.766914306640625,-0.0021327391732484102,0.022633591666817665,-0.016280271112918854
1761469094013870300,4.776870361328125,0.002712083514779806,0.008176621980965137,-0.011664746329188347
1761469094023825200,4.7868251953125,0.008775061927735806,-0.0017529536271467805,-0.004255774896591902
1761469094033781200,4.79678125,0.016986386850476265,-0.0073812780901789665,-0.0016791666857898235
1761469094043737000,4.806737060546875,0.021079881116747856,-0.008621289394795895,-0.001242523081600666
1761469094053692400,4.8166923828125,0.01869954727590084,-0.010416259989142418,0.007320605218410492
1761469094063648300,4.826648193359375,0.00749195646494627,-0.0074515133164823055,0.02029244229197502
1761469094073603000,4.83660302734375,-0.007435860112309456,-0.011202574707567692,0.028994854539632797
1761469094083559200,4.84655908203125,-0.017869537696242332,-0.01622891053557396,0.03097662329673767
1761469094093514200,4.85651416015625,-0.02705371379852295,-0.016186032444238663,0.027287879958748817
1761469094103470300,4.86647021484375,-0.02509469911456108,-0.010723162442445755,0.01768505573272705
1761469094113425200,4.876425048828125,-0.021342571824789047,-0.010789475403726101,0.006447314750403166
1761469094123381200,4.88638134765625,-0.015201869420707226,-0.008590818382799625,0.0014490665635094047
1761469094133336300,4.89633642578125,-0.006852593272924423,0.001582456985488534,0.008510172367095947
1761469094143292200,4.906292236328125,0.0016683093272149563,0.03404856100678444,0.019698865711688995
1761469094153247200,4.916247314453125,0.009574968367815018,0.06184211000800133,0.018960636109113693
1761469094163203300,4.926203369140625,0.012213192880153656,0.055480800569057465,0.012885631062090397
1761469094173158100,4.936158203125,0.01676027476787567,0.03163032978773117,0.0039840154349803925
1761469094183114200,4.9461142578125,0.02085750736296177,-0.003158080391585827,-0.009172351099550724
1761469094193069300,4.9560693359375,0.026244549080729485,-0.04579022899270058,-0.026665326207876205
1761469094203025400,4.966025390625,0.028631774708628654,-0.07509814202785492,-0.04167681932449341
1761469094212980200,4.975980224609375,0.025620538741350174,-0.0841134786605835,-0.04457779973745346
1761469094222936300,4.985936279296875,0.017069241032004356,-0.05419476330280304,-0.03296033293008804
1761469094232891400,4.995891357421875,0.004355576820671558,-0.011398827657103539,-0.01819603517651558
1761469094242847200,5.00584716796875,-0.008749540895223618,0.022375740110874176,-0.0013653370551764965
1761469094252802300,5.01580224609375,-0.021146822720766068,0.05169527977705002,0.01870770752429962
1761469094262758100,5.025758056640625,-0.0239433404058218,0.0693177729845047,0.034412775188684464
1761469094272714500,5.035714599609375,-0.024230163544416428,0.06518267840147018,0.04107467457652092
1761469094282669300,5.04566943359375,-0.022412097081542015,0.04658753052353859,0.03572583943605423
1761469094292625200,5.055625244140625,-0.02063363790512085,0.02516346611082554,0.01917376182973385
1761469094302580500,5.06558056640625,-0.013271619565784931,0.0077756657265126705,-0.0015294421464204788
1761469094312536300,5.075536376953125,-0.012360285967588425,-0.013995143584907055,-0.022743117064237595
1761469094322491100,5.0854912109375,-0.019915208220481873,-0.04900222271680832,-0.03589394688606262
1761469094332447200,5.095447265625,-0.027156341820955276,-0.07016316801309586,-0.036523252725601196
1761469094342402300,5.10540234375,-0.02506328746676445,-0.060238033533096313,-0.025972172617912292
1761469094352358400,5.1153583984375,-0.014732087031006813,-0.025453953072428703,-0.012879538349807262
1761469094362313200,5.125313232421875,-0.0042130472138524055,0.00704374723136425,-0.0015710568986833096
1761469094372269300,5.135269287109375,0.0059357271529734135,0.019788037985563278,0.004703084006905556
1761469094382224400,5.145224365234375,0.016314784064888954,0.01301814615726471,0.005486416630446911
1761469094392180200,5.15518017578125,0.02349839359521866,0.004210006445646286,0.0016493343282490969
1761469094402135300,5.16513525390625,0.02851351536810398,-0.007859500125050545,0.0024354872293770313
1761469094412091100,5.175091064453125,0.03241105377674103,-0.0050024609081447124,0.014044206589460373
1761469094422046200,5.185046142578125,0.03714168816804886,0.01318498607724905,0.026948928833007812
1761469094432002300,5.195002197265625,0.038808561861515045,0.03846637159585953,0.040570199489593506
1761469094441957000,5.20495703125,0.045554764568805695,0.05687896907329559,0.04308479651808739
1761469094451913500,5.21491357421875,0.05499221011996269,0.05331246554851532,0.03053385205566883
1761469094461869300,5.224869384765625,0.0666029304265976,0.01790599524974823,0.009659478440880775
1761469094471824100,5.23482421875,0.07540494203567505,-0.022301077842712402,-0.012084965594112873
1761469094481780200,5.2447802734375,0.07742776721715927,-0.046060968190431595,-0.026570122689008713
1761469094491735300,5.2547353515625,0.06872935593128204,-0.049658097326755524,-0.03528771549463272
1761469094501691400,5.26469140625,0.06107911840081215,-0.03536844626069069,-0.03550564497709274
1761469094511646200,5.274646240234375,0.049791574478149414,-0.01129879616200924,-0.029252275824546814
1761469094521602300,5.284602294921875,0.037337370216846466,0.011532112024724483,-0.019235722720623016
1761469094531557400,5.294557373046875,0.025716936215758324,0.03391491621732712,-0.004999528639018536
1761469094541513200,5.30451318359375,0.012019452638924122,0.04843060299754143,0.011515183374285698
1761469094551468300,5.31446826171875,-0.0008345608948729932,0.05498757213354111,0.018967241048812866
1761469094561424100,5.324424072265625,-0.00440193060785532,0.048729583621025085,0.021549565717577934
1761469094571379200,5.334379150390625,-0.003385668620467186,0.032234761863946915,0.01762193627655506
1761469094581335300,5.344335205078125,0.0009613777510821819,0.014126505702733994,0.016226384788751602
1761469094591290000,5.3542900390625,0.014805288054049015,0.009390340186655521,0.016532115638256073
1761469094601246500,5.36424658203125,0.021346990019083023,0.0070295026525855064,0.014092227444052696
1761469094611201300,5.374201171875,0.027484778314828873,0.010487883351743221,0.014932188205420971
1761469094621157000,5.3841572265625,0.038041986525058746,0.024088801816105843,0.019542720168828964
1761469094631112400,5.394112548828125,0.04631349816918373,0.034514810889959335,0.027503442019224167
1761469094641068300,5.404068359375,0.0512879341840744,0.028774159029126167,0.036456555128097534
1761469094651024400,5.4140244140625,0.05902521312236786,0.03474043682217598,0.053364433348178864
1761469094660979200,5.423979248046875,0.06892640143632889,0.03783843293786049,0.06672168523073196
1761469094670935300,5.433935302734375,0.07705436646938324,0.03868665173649788,0.07044744491577148
1761469094680890400,5.443890380859375,0.0839119404554367,0.04033339023590088,0.07039431482553482
1761469094690846200,5.45384619140625,0.0855761468410492,0.03751496598124504,0.06824620813131332
1761469094700801300,5.46380126953125,0.08309192210435867,0.028037019073963165,0.058889396488666534
1761469094710757400,5.47375732421875,0.078415147960186,0.021000681445002556,0.050759561359882355
1761469094720712200,5.483712158203125,0.07612505555152893,0.013866001740098,0.04017448052763939
1761469094730668300,5.493668212890625,0.06951136142015457,0.000915848184376955,0.02754150703549385
1761469094740623400,5.503623291015625,0.06349319964647293,-0.00591484596952796,0.021656304597854614
1761469094750579500,5.513579345703125,0.059907253831624985,0.0043891905806958675,0.029248178005218506
1761469094760534300,5.5235341796875,0.059278033673763275,0.012585010379552841,0.034229252487421036
1761469094770490000,5.533489990234375,0.05496744066476822,0.01877819187939167,0.04305523633956909
1761469094780445400,5.543445556640625,0.05181011185050011,0.024800097569823265,0.051212988793849945
1761469094790401300,5.5534013671875,0.046452101320028305,0.0318036749958992,0.056616008281707764
1761469094800356400,5.5633564453125,0.047009021043777466,0.03762785717844963,0.059918709099292755
1761469094810312200,5.573312255859375,0.043930940330028534,0.031753722578287125,0.05250100791454315
1761469094820267300,5.583267333984375,0.03855321928858757,0.030851980671286583,0.04394986480474472
1761469094830223400,5.593223388671875,0.0372941717505455,0.029323510825634003,0.02933516353368759
1761469094840178200,5.60317822265625,0.03583068028092384,0.014291621744632721,0.012863079085946083
1761469094850134300,5.61313427734375,0.039813704788684845,0.004462161101400852,-0.0013190526515245438
1761469094860090400,5.62309033203125,0.04163878783583641,0.004246290773153305,-0.011603625491261482
1761469094870045200,5.633045166015625,0.04117326810956001,-0.0023572833742946386,-0.019685786217451096
1761469094880001300,5.643001220703125,0.03947119414806366,-0.009196681901812553,-0.024929096922278404
1761469094889956400,5.652956298828125,0.0348958857357502,-0.015206105075776577,-0.03377052769064903
1761469094899912400,5.662912353515625,0.02915198728442192,-0.015207462012767792,-0.04091496020555496
1761469094909867300,5.6728671875,0.02366214618086815,-0.00864063948392868,-0.045558445155620575
1761469094919823000,5.682822998046875,0.015214318409562111,-0.000763855641707778,-0.04820379242300987
1761469094929778400,5.6927783203125,0.008510610088706017,0.00956441555172205,-0.04969329759478569
1761469094939734300,5.702734375,0.0015079248696565628,0.012450135312974453,-0.053023915737867355
1761469094949689300,5.712689453125,-0.005238661076873541,0.0004382129991427064,-0.054039645940065384
1761469094959645200,5.722645263671875,-0.004733453970402479,-0.02635524421930313,-0.06029381975531578
1761469094969600300,5.732600341796875,-0.007470384705811739,-0.04866774007678032,-0.06057664379477501
1761469094979556400,5.742556396484375,-0.007932838052511215,-0.05175542086362839,-0.050941843539476395
1761469094989511200,5.75251123046875,-0.01316541712731123,-0.0409962497651577,-0.036749325692653656
1761469094999467300,5.76246728515625,-0.014728629030287266,-0.02496170625090599,-0.014663622714579105
1761469095009422300,5.77242236328125,-0.017587531358003616,-0.01640896499156952,0.009236382320523262
1761469095019378200,5.782378173828125,-0.0224636010825634,-0.015315943397581577,0.03264593705534935
1761469095029333200,5.792333251953125,-0.025574972853064537,-0.012523086741566658,0.05580797791481018
1761469095039289300,5.802289306640625,-0.028463073074817657,-0.0061014872044324875,0.06406211107969284
1761469095049245400,5.812245361328125,-0.03177684545516968,0.0054193479008972645,0.06689838320016861
1761469095059200300,5.8222001953125,-0.03420548513531685,0.01839933544397354,0.06706223636865616
1761469095069156000,5.832156005859375,-0.036468375474214554,0.018530629575252533,0.05498107150197029
1761469095079111400,5.842111328125,-0.04187144339084625,0.0002125668979715556,0.03544453904032707
1761469095089067300,5.8520673828125,-0.05215657129883766,-0.02179339900612831,0.017302820459008217
1761469095099022300,5.862022216796875,-0.06003182381391525,-0.035644810646772385,-0.000998450443148613
1761469095108978200,5.871978271484375,-0.06692887842655182,-0.03821928799152374,-0.019534317776560783
1761469095118933200,5.881933349609375,-0.07658301293849945,-0.03638709709048271,-0.033215343952178955
1761469095128889300,5.891889404296875,-0.08409259468317032,-0.026127532124519348,-0.040312670171260834
1761469095138844200,5.90184423828125,-0.08842027932405472,-0.01044964324682951,-0.04001740366220474
1761469095148800300,5.91180029296875,-0.08887940645217896,0.008495286107063293,-0.040090106427669525
1761469095158755300,5.92175537109375,-0.09033774584531784,0.024552255868911743,-0.041713543236255646
1761469095168711200,5.931711181640625,-0.08888685703277588,0.028663642704486847,-0.052221573889255524
1761469095178666200,5.941666259765625,-0.08600766956806183,0.016427094116806984,-0.06994616240262985
1761469095188622300,5.951622314453125,-0.08563988655805588,0.0024026224855333567,-0.08304225653409958
1761469095198577200,5.9615771484375,-0.08817630261182785,-0.0028446263168007135,-0.0853201150894165
1761469095208533200,5.971533203125,-0.08441299200057983,-0.006469720974564552,-0.08241646736860275
1761469095218488300,5.98148828125,-0.075209841132164,-0.0008153845556080341,-0.07602983713150024
1761469095228444400,5.9914443359375,-0.05949772149324417,0.0015865204622969031,-0.07245773822069168
1761469095238399200,6.001399169921875,-0.05032594874501228,0.006747603882104158,-0.07122896611690521
1761469095248355000,6.01135498046875,-0.03561091795563698,0.009808375500142574,-0.06248287484049797
1761469095258311200,6.021311279296875,-0.027655603364109993,-0.004506253637373447,-0.04604575037956238
1761469095268266200,6.031266357421875,-0.015289747156202793,-0.0144150760024786,-0.016111819073557854
1761469095278222300,6.041222412109375,0.005261148326098919,-0.0011534622171893716,-0.00038381991907954216
1761469095288177200,6.05117724609375,0.017794251441955566,0.026226762682199478,0.01647292450070381
1761469095298133200,6.06113330078125,0.0300243329256773,0.03838369995355606,0.05037184804677963
1761469095308088300,6.07108837890625,0.02473449520766735,0.024077199399471283,0.0698893591761589
1761469095318044200,6.081044189453125,0.022740280255675316,0.023661410436034203,0.07454181462526321
1761469095327999200,6.090999267578125,0.026339808478951454,0.04199860244989395,0.058002255856990814
1761469095337955300,6.100955322265625,0.026836538687348366,0.06378544121980667,0.04197306931018829
1761469095347910100,6.11091015625,0.015202784910798073,0.07100500166416168,0.026158422231674194
1761469095357866200,6.1208662109375,0.0009138273308053613,0.05131465196609497,0.032966434955596924
1761469095367821300,6.1308212890625,-0.010238692164421082,-0.00021351846226025373,0.04412614926695824
1761469095377777400,6.14077734375,-0.01938639208674431,0.0046488139778375626,0.05692317336797714
1761469095387732200,6.150732177734375,-0.041089557111263275,0.0045811692252755165,0.06363700330257416
1761469095397688000,6.16068798828125,-0.045058272778987885,0.008066818118095398,0.05950816720724106
1761469095407643400,6.170643310546875,-0.03769383206963539,0.03586116433143616,0.0465681329369545
1761469095417599200,6.18059912109375,-0.03393476456403732,0.05478909611701965,0.02817663364112377
1761469095427555300,6.190555419921875,-0.03872339427471161,0.04440409690141678,0.010614683851599693
1761469095437510100,6.20051025390625,-0.043476786464452744,0.03210921958088875,0.00167568726465106
1761469095447466200,6.21046630859375,-0.04504752159118652,0.029935549944639206,0.008697910234332085
1761469095457421300,6.22042138671875,-0.04449192062020302,0.03769379109144211,0.03205767273902893
1761469095467377200,6.230377197265625,-0.039424456655979156,0.046516042202711105,0.056213341653347015
1761469095477332200,6.240332275390625,-0.01543362345546484,0.047649532556533813,0.07440515607595444
1761469095487288300,6.250288330078125,0.005518529564142227,0.039824895560741425,0.08704131841659546
1761469095497243100,6.2602431640625,0.022851357236504555,0.02346489205956459,0.09357362240552902
1761469095507199200,6.27019921875,0.03449949249625206,0.015441320836544037,0.10002034157514572
1761469095517154300,6.280154296875,0.043782126158475876,0.013886693865060806,0.09267490357160568
1761469095527110400,6.2901103515625,0.05548938363790512,0.014009465463459492,0.06655808538198471
1761469095537065200,6.300065185546875,0.06534525007009506,-0.016159551218152046,0.026961755007505417
1761469095547021000,6.31002099609375,0.08019290119409561,-0.022091476246714592,-0.00865163467824459
1761469095556976400,6.319976318359375,0.08439867198467255,-0.03648916631937027,-0.036762937903404236
1761469095566932200,6.32993212890625,0.08700937032699585,-0.05518322438001633,-0.05760510265827179
1761469095576887000,6.339886962890625,0.08792206645011902,-0.07288330048322678,-0.06965665519237518
1761469095586843100,6.349843017578125,0.08579979091882706,-0.08821085840463638,-0.06889605522155762
1761469095596798200,6.359798095703125,0.08053354173898697,-0.0840325579047203,-0.051927972584962845
1761469095606754300,6.36975439453125,0.0814850851893425,-0.05926676467061043,-0.02740292437374592
1761469095616710100,6.379710205078125,0.08002401888370514,-0.037331752479076385,-0.0021634595468640327
1761469095626665200,6.389665283203125,0.08056623488664627,-0.02555631846189499,0.016445910558104515
1761469095636621300,6.399621337890625,0.07745088636875153,-0.030606959015130997,0.03193248435854912
1761469095646576000,6.409576171875,0.07079138606786728,-0.04369267076253891,0.04078776389360428
1761469095656532200,6.4195322265625,0.06188483163714409,-0.04465731978416443,0.047286130487918854
1761469095666487300,6.4294873046875,0.04866064339876175,-0.026153411716222763,0.053542427718639374
1761469095676443400,6.439443359375,0.03934445232152939,0.002582501620054245,0.0620276965200901
1761469095686398200,6.449398193359375,0.03188973292708397,0.031352363526821136,0.06832154095172882
1761469095696354000,6.45935400390625,0.02215307019650936,0.04801473021507263,0.06448628008365631
1761469095706309400,6.469309326171875,0.015478655695915222,0.03737113997340202,0.05059763044118881
1761469095716265200,6.47926513671875,0.010807987302541733,0.010181287303566933,0.030277682468295097
1761469095726220000,6.489219970703125,0.0022832085378468037,-0.02286108396947384,0.0057771336287260056
1761469095736176000,6.499176025390625,-0.008898960426449776,-0.054045308381319046,-0.014422843232750893
1761469095746131200,6.509131103515625,-0.017120137810707092,-0.07100512087345123,-0.018215185031294823
1761469095756087300,6.51908740234375,-0.031002996489405632,-0.09849648922681808,-0.011884726583957672
1761469095766042000,6.5290419921875,-0.04549272358417511,-0.08850111812353134,-0.001896807923913002
1761469095775998200,6.538998291015625,-0.05180564150214195,-0.05492674931883812,-0.00011971895582973957
1761469095785954300,6.548954345703125,-0.049222905188798904,-0.01198620442301035,-0.005611955653876066
1761469095795909000,6.5589091796875,-0.04298801347613335,0.011332248337566853,-0.016163863241672516
1761469095805865200,6.568865234375,-0.03670268505811691,0.009121824987232685,-0.019994288682937622
1761469095815820300,6.5788203125,-0.03291546180844307,-0.004124854225665331,-0.024067172780632973
1761469095825776400,6.5887763671875,-0.024571776390075684,-0.00624073576182127,-0.030639320611953735
1761469095835731200,6.598731201171875,-0.01923779584467411,-0.012085136026144028,-0.045784592628479004
1761469095845687000,6.60868701171875,-0.012999075464904308,-0.021572114899754524,-0.06410554051399231
1761469095855642400,6.618642333984375,-0.010114491917192936,-0.029358433559536934,-0.07453425973653793
1761469095865598200,6.62859814453125,-0.006597788073122501,-0.042135484516620636,-0.07580351829528809
1761469095875553000,6.638552978515625,-0.0042838240042328835,-0.05369265377521515,-0.06834012269973755
1761469095885509400,6.64850927734375,0.0024262769147753716,-0.04944144934415817,-0.04968388006091118
1761469095895464200,6.658464111328125,0.012300390750169754,-0.03843694180250168,-0.028463982045650482
1761469095905420300,6.668420166015625,0.025046013295650482,-0.02852225862443447,-0.013518588617444038
1761469095915375400,6.678375244140625,0.03925999626517296,-0.019144367426633835,-0.004372721537947655
1761469095925331200,6.688331298828125,0.048626068979501724,-0.02073267661035061,0.0011703819036483765
1761469095935286300,6.698286376953125,0.05128295719623566,-0.03576228395104408,0.007033851929008961
1761469095945242000,6.7082421875,0.05017641559243202,-0.03588292375206947,0.01760074310004711
1761469095955197400,6.718197509765625,0.044268686324357986,-0.02364896424114704,0.02940645068883896
1761469095965153300,6.7281533203125,0.03316836431622505,-0.01000905130058527,0.03356630727648735
1761469095975109400,6.738109375,0.020533867180347443,0.0009502829052507877,0.03239625319838524
1761469095985064200,6.748064208984375,0.012178733013570309,0.007645203731954098,0.03163032978773117
1761469095995020000,6.75802001953125,0.0059588151052594185,0.004346094094216824,0.02031303383409977
1761469096004975400,6.767975341796875,0.00292813777923584,-0.015451312065124512,-0.0018857456743717194
1761469096014931200,6.77793115234375,-0.005807942245155573,-0.042820584028959274,-0.02061092108488083
1761469096024886000,6.787885986328125,-0.013588101603090763,-0.052086520940065384,-0.02381550334393978
1761469096034842400,6.79784228515625,-0.019464867189526558,-0.04384661093354225,-0.011009905487298965
1761469096044797200,6.807797119140625,-0.017892004922032356,-0.018780935555696487,0.0046830372884869576
1761469096054753300,6.817753173828125,-0.01435053814202547,0.005655359942466021,0.01702199876308441
1761469096064708400,6.827708251953125,-0.010486291721463203,0.01953282579779625,0.024909216910600662
1761469096074664200,6.837664306640625,-0.005858767777681351,0.005537429358810186,0.03332243487238884
1761469096084619300,6.847619384765625,-0.006936016492545605,-0.004246225114911795,0.03998619690537453
1761469096094575000,6.8575751953125,-0.012808537110686302,-0.0025457502342760563,0.038415759801864624
1761469096104530400,6.867530517578125,-0.00909449253231287,0.009137004613876343,0.03177596628665924
1761469096114486300,6.877486328125,-0.003999301232397556,0.015259438194334507,0.029407937079668045
1761469096124441000,6.887441162109375,-0.0015816836385056376,0.015074614435434341,0.037303678691387177
1761469096134397200,6.897397216796875,-0.00122609524987638,0.016211634501814842,0.044904984533786774
1761469096144353000,6.90735302734375,0.001826686318963766,0.019229261204600334,0.049239009618759155
1761469096154308000,6.91730810546875,0.00420703599229455,0.0182854812592268,0.04368741437792778
1761469096164264000,6.927263916015625,0.009355193004012108,0.011848355643451214,0.03195192664861679
1761469096174219000,6.937218994140625,0.01171912718564272,0.016417771577835083,0.02667243406176567
1761469096184175000,6.947175048828125,0.01843695156276226,0.024495406076312065,0.024837248027324677
1761469096194130000,6.9571298828125,0.025177501142024994,0.02960142120718956,0.022050416097044945
1761469096204086000,6.9670859375,0.023243779316544533,0.02479414828121662,0.01648946851491928
1761469096214041000,6.977041015625,0.02102297730743885,0.017734358087182045,0.009339447133243084
1761469096223997200,6.9869970703125,0.018327858299016953,0.013084213249385357,0.005677600856870413
1761469096233952000,6.996951904296875,0.01296388078480959,0.011592057533562183,0.003408128162845969
1761469096243907800,7.006907958984375,0.003757333382964134,0.013824851252138615,0.005326403304934502
1761469096253863200,7.01686328125,-0.002087126951664686,0.01693112775683403,0.01104576513171196
1761469096263819000,7.026819091796875,-0.0075886850245296955,0.012741975486278534,0.01538192480802536
1761469096273773800,7.03677392578125,-0.015399648807942867,0.012831664644181728,0.023538021370768547
1761469096283730000,7.04672998046875,-0.023853054270148277,0.02153354324400425,0.03236427158117294
1761469096293685000,7.05668505859375,-0.027451081201434135,0.022380508482456207,0.035559333860874176
1761469096303641000,7.06664111328125,-0.029543528333306313,0.015288777649402618,0.03655136004090309
1761469096313597000,7.076596923828125,-0.025745229795575142,0.007349814288318157,0.03192085400223732
1761469096323552300,7.08655224609375,-0.02062690071761608,0.0005536935059353709,0.024797163903713226
1761469096333508000,7.096508056640625,-0.020334864035248756,-0.008257606066763401,0.014996773563325405
1761469096343463000,7.106462890625,-0.0207148976624012,-0.01113648246973753,0.006468532606959343
1761469096353419000,7.1164189453125,-0.022654816508293152,-0.004959974903613329,-0.0040132757276296616
1761469096363374000,7.1263740234375,-0.024315563961863518,0.0050031766295433044,-0.016900576651096344
1761469096373330200,7.136330078125,-0.027159852907061577,0.009208034723997116,-0.028435885906219482
1761469096383285000,7.146284912109375,-0.03043314442038536,0.014261915348470211,-0.03469697758555412
1761469096393240800,7.15624072265625,-0.0324406661093235,0.01307245995849371,-0.036039527505636215
1761469096403196200,7.166196044921875,-0.029266178607940674,0.01229215320199728,-0.03192414343357086
1761469096413152000,7.176152099609375,-0.024487700313329697,0.008674691431224346,-0.019371122121810913
1761469096423106800,7.18610693359375,-0.013921077363193035,0.008164961822330952,-0.0029386207461357117
1761469096433063000,7.19606298828125,0.0011529391631484032,0.011069158092141151,0.014469632878899574
1761469096443018000,7.20601806640625,0.015054106712341309,0.016985105350613594,0.031677115708589554
1761469096452974000,7.21597412109375,0.022574180737137794,0.02067534625530243,0.04670928791165352
1761469096462929000,7.225928955078125,0.027768677100539207,0.014096273109316826,0.05158287286758423
1761469096472885200,7.23588525390625,0.028395123779773712,0.014001361094415188,0.05892641097307205
1761469096482841000,7.245841064453125,0.027023596689105034,0.01410096324980259,0.06344100832939148
1761469096492796000,7.2557958984375,0.027084479108452797,0.017889587208628654,0.07022441178560257
1761469096502752000,7.265751953125,0.02378881722688675,0.030329745262861252,0.08178679645061493
1761469096512707000,7.27570703125,0.01975524052977562,0.03714704141020775,0.08986025303602219
1761469096522663200,7.2856630859375,0.012350587174296379,0.036767009645700455,0.08546710014343262
1761469096532618000,7.295617919921875,0.007860860787332058,0.03928681090474129,0.07428921014070511
1761469096542573800,7.30557373046875,-0.0042392113246023655,0.04106340557336807,0.05818001553416252
1761469096552529200,7.315529052734375,-0.015390358865261078,0.021175257861614227,0.038965657353401184
1761469096562485000,7.325485107421875,-0.022174229845404625,0.0029030428268015385,0.029943134635686874
1761469096572439800,7.335439697265625,-0.02164219506084919,0.008308365941047668,0.02764761447906494
1761469096582396000,7.34539599609375,-0.018891416490077972,0.02660268545150757,0.03275129571557045
1761469096592351000,7.35535107421875,-0.016355125233530998,0.03892701119184494,0.030695674940943718
1761469096602307000,7.36530712890625,-0.014356955885887146,0.05517042800784111,0.021696588024497032
1761469096612262000,7.375261962890625,-0.01732495240867138,0.05747611075639725,0.00814742036163807
1761469096622218200,7.38521826171875,-0.022422775626182556,0.0333675779402256,-0.00334332138299942
1761469096632174000,7.395174072265625,-0.028216609731316566,0.008334473706781864,-0.015635693445801735
1761469096642129000,7.40512890625,-0.030186817049980164,-0.01662653498351574,-0.02180197648704052
1761469096652085000,7.4150849609375,-0.027147861197590828,-0.015135405585169792,-0.018196264281868935
1761469096662040000,7.4250400390625,-0.021535515785217285,0.00023050123127177358,-0.008637379854917526
1761469096671996200,7.43499609375,-0.015640631318092346,0.019195910543203354,0.004653066396713257
1761469096681951000,7.444950927734375,-0.010673304088413715,0.03329601511359215,0.017755286768078804
1761469096691906800,7.45490673828125,-0.008409390226006508,0.036911364644765854,0.03142843768000603
1761469096701862100,7.464862060546875,-0.0016593418549746275,0.03468549624085426,0.04440416023135185
1761469096711818000,7.47481787109375,0.004999786149710417,0.03980366140604019,0.048491351306438446
1761469096721772800,7.484772705078125,0.0067071388475596905,0.04190462827682495,0.040163375437259674
1761469096731729200,7.494729248046875,0.0059187463484704494,0.03163715824484825,0.021515194326639175
1761469096741684000,7.50468408203125,0.007932095788419247,0.01544886827468872,-0.0025115772150456905
1761469096751640000,7.51464013671875,-0.0011066230945289135,-0.013793124817311764,-0.027952373027801514
1761469096761595100,7.52459521484375,-0.0031772309448570013,-0.04682084918022156,-0.04874233901500702
1761469096771551200,7.53455126953125,-0.0017732374835759401,-0.057504940778017044,-0.06319350749254227
1761469096781506000,7.544506103515625,-0.0014991981443017721,-0.053184762597084045,-0.06898029148578644
1761469096791462000,7.5544619140625,0.000051391369197517633,-0.038097236305475235,-0.0609128437936306
1761469096801418000,7.56441796875,-0.00005060766125097871,-0.023409370332956314,-0.04895525425672531
1761469096811373000,7.574373046875,0.003166329115629196,-0.005207211710512638,-0.029641814529895782
1761469096821329200,7.5843291015625,0.01110388059169054,0.008115784265100956,-0.009476627223193645
1761469096831284000,7.594283935546875,0.012462100945413113,0.015658900141716003,0.0028525080997496843
1761469096841239800,7.60423974609375,0.016964441165328026,0.022159943357110023,0.012941627763211727
1761469096851195100,7.614195068359375,0.018075883388519287,0.018778778612613678,0.02087591029703617
1761469096861151000,7.62415087890625,0.022955594584345818,0.004312221892178059,0.025370260700583458
1761469096871105800,7.634105712890625,0.025767965242266655,-0.009456961415708065,0.03487228974699974
1761469096881062100,7.644062255859375,0.03066258691251278,-0.013014677911996841,0.04860727861523628
1761469096891017000,7.654016845703125,0.03259294852614403,0.0009071651147678494,0.06478673964738846
1761469096900973000,7.66397314453125,0.03508753329515457,0.015714608132839203,0.07247422635555267
1761469096910928100,7.67392822265625,0.0376676544547081,0.02559719979763031,0.07092487812042236
1761469096920884200,7.68388427734375,0.03044968843460083,0.019355017691850662,0.062323398888111115
1761469096930839000,7.693839111328125,0.025775404646992683,0.011957474052906036,0.051631271839141846
1761469096940795000,7.703794921875,0.012797022238373756,0.00867273099720478,0.0405820831656456
1761469096950751000,7.7137509765625,0.003123718313872814,-0.002082258462905884,0.025689084082841873
1761469096960706000,7.7237060546875,-0.007756359875202179,-0.008807539008557796,0.01212453842163086
1761469096970662100,7.733662109375,-0.01878530904650688,-0.007405118551105261,-0.0014844811521470547
1761469096980617000,7.743616943359375,-0.02586745284497738,-0.010725547559559345,-0.01023056823760271
1761469096990573000,7.753572998046875,-0.028482766821980476,-0.005526730790734291,-0.016122711822390556
1761469097000528100,7.763528076171875,-0.02808968350291252,0.00925248209387064,-0.018813569098711014
1761469097010484000,7.77348388671875,-0.028209863230586052,0.017318768426775932,-0.020787110552191734
1761469097020438800,7.783438720703125,-0.028714265674352646,0.010772984474897385,-0.02173466421663761
1761469097030395100,7.79339501953125,-0.029428357258439064,0.006523193325847387,-0.018981419503688812
1761469097040350000,7.803349853515625,-0.0284483153373003,0.00450531579554081,-0.008039820939302444
1761469097050306000,7.81330615234375,-0.02487645111978054,0.0068292818032205105,0.008986886590719223
1761469097060261000,7.82326123046875,-0.02287881448864937,0.025482062250375748,0.029457807540893555
1761469097070217200,7.83321728515625,-0.026110349223017693,0.040155429393053055,0.04412505775690079
1761469097080172000,7.843172119140625,-0.026050694286823273,0.045510247349739075,0.04683908447623253
1761469097090128000,7.8531279296875,-0.02521471120417118,0.04318535327911377,0.041884563863277435
1761469097100084000,7.863083984375,-0.02520672231912613,0.03862708434462547,0.027983661741018295
1761469097110039000,7.8730390625,-0.02542453072965145,0.04228420928120613,0.013570986688137054
1761469097119995100,7.8829951171875,-0.020576244220137596,0.03594934940338135,-0.005796320270746946
1761469097129950000,7.892949951171875,-0.013420741073787212,0.01614389754831791,-0.025396931916475296
1761469097139906800,7.90290673828125,-0.009477132000029087,-0.009829113259911537,-0.04228243604302406
1761469097149862000,7.91286181640625,-0.006567048374563456,-0.034327663481235504,-0.05958997458219528
1761469097159818000,7.92281787109375,0.0011481291148811579,-0.050700508058071136,-0.07084555923938751
1761469097169772800,7.932772705078125,0.010845925658941269,-0.05832592397928238,-0.07983231544494629
1761469097179729000,7.94272900390625,0.019052190706133842,-0.05708862096071243,-0.08219455182552338
1761469097189684000,7.95268408203125,0.027071701362729073,-0.0531001016497612,-0.08152303844690323
1761469097199639800,7.962639892578125,0.028187831863760948,-0.04827258735895157,-0.07690990716218948
1761469097209595000,7.972594970703125,0.02779349312186241,-0.04216979444026947,-0.07153977453708649
1761469097219551000,7.982551025390625,0.023435762152075768,-0.03156215697526932,-0.06136729568243027
1761469097229506000,7.992506103515625,0.020253226161003113,-0.028687121346592903,-0.04656529426574707
1761469097241328000,8.004328125,0.020041238516569138,-0.025998128578066826,-0.026868022978305817
1761469097251284000,8.014283935546874,0.0190921388566494,-0.019544173032045364,-0.00827451515942812
1761469097261238800,8.02423876953125,0.024616865441203117,-0.014532904140651226,0.012050996534526348
1761469097271195000,8.03419482421875,0.029761940240859985,-0.017942771315574646,0.02579096332192421
1761469097281150000,8.04414990234375,0.03298329934477806,-0.017341163009405136,0.031900521367788315
1761469097291106000,8.05410595703125,0.04499966651201248,-0.02001120150089264,0.03895723074674606
1761469097301060900,8.064060791015624,0.050558216869831085,-0.02458331547677517,0.04684977978467941
1761469097311016700,8.0740166015625,0.054460279643535614,-0.018238333985209465,0.0573495551943779
1761469097320972000,8.083971923828125,0.05580864101648331,-0.0004902303917333484,0.06526154279708862
1761469097330927900,8.093927978515625,0.053385451436042786,0.016554556787014008,0.06740358471870422
1761469097340883000,8.103883056640624,0.04625909775495529,0.019169514998793602,0.056564249098300934
1761469097350838800,8.1138388671875,0.03472729027271271,0.017502527683973312,0.04241263121366501
1761469097360793900,8.1237939453125,0.023452531546354294,0.012093380093574524,0.022572878748178482
1761469097370750000,8.13375,0.01059240847826004,-0.0017491524340584874,-0.005751142743974924
1761469097380704800,8.143704833984375,-0.0051628523506224155,-0.010391642339527607,-0.02846044860780239
1761469097390661000,8.1536611328125,-0.02356765978038311,-0.002765590324997902,-0.04005127027630806
1761469097400617000,8.163616943359376,-0.03938310593366623,0.0053844815120100975,-0.03800676017999649
1761469097410571800,8.17357177734375,-0.051261477172374725,0.013584629632532597,-0.018409375101327896
1761469097420527900,8.18352783203125,-0.054513994604349136,0.02344977855682373,0.009790570475161076
1761469097430483000,8.19348291015625,-0.046074606478214264,0.031199762597680092,0.037502557039260864
1761469097440439000,8.20343896484375,-0.03241791948676109,0.044501449912786484,0.06129177659749985
1761469097450393900,8.213393798828125,-0.018947744742035866,0.05142202228307724,0.07343665510416031
1761469097460349700,8.223349609375,-0.0089824628084898,0.05171230807900429,0.08187488466501236
1761469097470305000,8.233304931640625,-0.0035662713926285505,0.043066032230854034,0.08888032287359238
1761469097480260900,8.2432607421875,0.0004266061005182564,0.03261445835232735,0.0898720845580101
1761469097490216000,8.2532158203125,0.0037191687151789665,0.02648564614355564,0.08115868270397186
1761469097500171800,8.263171875,0.0061418465338647366,0.020440803840756416,0.058967623859643936
1761469097510126800,8.273126953125,0.003993087448179722,0.018933508545160294,0.035636480897665024
1761469097520083000,8.2830830078125,0.0010588164441287518,0.011427389457821846,0.007106301374733448
1761469097530038800,8.293038818359374,-0.005685905460268259,0.0037585508543998003,-0.013510558754205704
1761469097539994000,8.302994140625,-0.007231603842228651,0.0024261714424937963,-0.02599971927702427
1761469097549950000,8.312949951171875,-0.010349076241254807,-0.00766372075304389,-0.03441072255373001
1761469097559904800,8.32290478515625,-0.006209725048393011,-0.012463802471756935,-0.033243462443351746
1761469097569860900,8.33286083984375,-0.0021579917520284653,-0.011872580274939537,-0.02687664143741131
1761469097580438800,8.343438720703125,0.0074685364961624146,-0.0031456684228032827,-0.012639380991458893
1761469097590393900,8.353393798828124,0.006983381230384111,0.008929797448217869,0.0032915202900767326
1761469097600350000,8.363349853515626,0.008938940241932869,0.01643378660082817,0.019630279392004013
1761469097610304800,8.3733046875,0.010976073332130909,0.01593538373708725,0.03310924023389816
1761469097620260900,8.3832607421875,0.010394971817731857,0.00712218414992094,0.03755698353052139
1761469097630216000,8.3932158203125,0.008232363499701023,-0.006367737427353859,0.04179621860384941
1761469097640172000,8.403172119140624,0.011949071660637856,-0.019278209656476974,0.03890189528465271
1761469097650126800,8.413126953125,0.010920807719230652,-0.023502293974161148,0.03502430394291878
1761469097660083000,8.4230830078125,0.0058059412986040115,-0.018895557150244713,0.03141358867287636
1761469097670038000,8.4330380859375,0.0035275830887258053,-0.0033091683872044086,0.03266388550400734
1761469097679993900,8.442993896484374,-0.0010320149594917893,0.015463986434042454,0.041246455162763596
1761469097689950000,8.452949951171876,-0.004323940724134445,0.02799520641565323,0.042574070394039154
1761469097699905000,8.462905029296875,-0.0044395215809345245,0.02734779193997383,0.041145287454128265
1761469097709860900,8.47286083984375,-0.0002542187285143882,0.01989685371518135,0.03886909410357475
1761469097719816000,8.48281591796875,0.0053871553391218185,0.013631767593324184,0.03264235705137253
1761469097729771800,8.492771728515624,0.009223398752510548,0.009040938690304756,0.02545386739075184
1761469097739726800,8.502726806640625,0.009130454622209072,0.007825471460819244,0.012628882192075253
1761469097749683000,8.512682861328125,0.005083248484879732,0.0032970330212265253,0.0034332536160945892
1761469097759637800,8.5226376953125,-0.00028728204779326916,0.002180369570851326,0.0009554484859108925
1761469097769593900,8.53259375,-0.007787718903273344,0.0031600804068148136,0.0063873957842588425
1761469097779549000,8.542548828125,-0.01717456243932247,0.009790819138288498,0.012967800721526146
1761469097789505000,8.552505126953125,-0.028591163456439972,0.014003048650920391,0.01546208094805479
1761469097799460900,8.5624609375,-0.04056793451309204,0.01654823124408722,0.014784572646021843
1761469097809416000,8.572416015625,-0.046884991228580475,0.02407691441476345,0.014906194061040878
1761469097819372000,8.5823720703125,-0.05202968418598175,0.03582092374563217,0.01527504250407219
1761469097829326800,8.592326904296876,-0.05592447519302368,0.03976547718048096,0.013069315813481808
1761469097839283000,8.602282958984375,-0.05785074084997177,0.0370626300573349,0.014639249071478844
1761469097849238000,8.612238037109375,-0.05971059948205948,0.028838977217674255,0.011529939249157906
1761469097859193900,8.62219384765625,-0.060159340500831604,0.02278401330113411,0.0054800366051495075
1761469097869149000,8.63214892578125,-0.06022649258375168,0.028317725285887718,0.00040316744707524776
1761469097879104800,8.642104736328125,-0.05851195007562637,0.045802973210811615,-0.00923800840973854
1761469097889059800,8.652059814453125,-0.05820675939321518,0.05069947987794876,-0.015081282705068588
1761469097899016000,8.662015869140625,-0.048021234571933746,0.03800259530544281,-0.01978335902094841
1761469097908970800,8.671970703125,-0.03714870661497116,0.02056482434272766,-0.022903449833393097
1761469097918926800,8.6819267578125,-0.027831371873617172,0.0006816642708145082,-0.023495737463235855
1761469097928883000,8.691883056640625,-0.02152833342552185,-0.018734650686383247,-0.02734159119427204
1761469097938838000,8.701838134765625,-0.020106203854084015,-0.024025551974773407,-0.028666779398918152
1761469097948793900,8.7117939453125,-0.016180921345949173,-0.012417239136993885,-0.020626883953809738
1761469097958749000,8.7217490234375,-0.014327360317111015,0.005592387169599533,-0.006629311013966799
1761469097968705000,8.731705078125,-0.012703044340014458,0.007599654607474804,0.00407328549772501
1761469097978659800,8.741659912109375,-0.005065364763140678,0.0022730655036866665,0.007017144002020359
1761469097988616000,8.751615966796875,-0.00008891650941222906,0.02375190146267414,-0.002815939486026764
1761469097998571000,8.761571044921874,-0.004139584489166737,0.002022372093051672,-0.003864958416670561
1761469098008526800,8.77152685546875,-0.017711127176880836,-0.010776138864457607,0.015165852382779121
1761469098018482000,8.78148193359375,-0.024911249056458473,-0.01304701715707779,0.03687940537929535
1761469098028437800,8.791437744140625,-0.020067209377884865,0.010592042468488216,0.04325956478714943
1761469098038393900,8.801393798828125,-0.01303060445934534,0.03686252981424332,0.039137523621320724
1761469098048349000,8.811348876953126,-0.017514189705252647,0.04489565268158913,0.026164425536990166
1761469098058304800,8.8213046875,-0.021334493532776833,0.022506723180413246,0.010633401572704315
1761469098068259800,8.831259765625,-0.0170678049325943,0.013372685760259628,0.0012690143194049597
1761469098078216000,8.8412158203125,-0.010255170986056328,0.013577216304838657,0.00033610896207392216
1761469098088171000,8.8511708984375,-0.0020683477632701397,0.009234399534761906,0.006573498714715242
1761469098098126800,8.861126953125,0.006096371449530125,0.007337163668125868,0.017480742186307907
1761469098108082000,8.87108203125,0.012624182738363743,-0.004643606953322887,0.011406352743506432
1761469098118038000,8.8810380859375,0.028011128306388855,-0.010755561292171478,-0.0031576761975884438
1761469098127992800,8.890992919921874,0.033696044236421585,-0.010001612827181816,-0.01607375591993332
1761469098137949000,8.900948974609374,0.028983842581510544,-0.01273241825401783,-0.02023627795279026
1761469098147904300,8.910904296875,-0.002306144218891859,0.021082565188407898,-0.038524676114320755
1761469098157859300,8.920859375,0.008216004818677902,0.009877048432826996,-0.04329972714185715
1761469098167815200,8.930815185546875,0.008248455822467804,0.01315426267683506,-0.022489337250590324
1761469098177770200,8.940770263671874,0.004274486564099789,0.028594471514225006,0.001968067605048418
1761469098187726300,8.950726318359376,-0.009023644961416721,0.029552863910794258,0.009959079325199127
1761469098197681200,8.96068115234375,-0.025150150060653687,0.028223413974046707,0.0003703683614730835
1761469098207637200,8.97063720703125,-0.03603101149201393,0.0196243766695261,-0.02202519215643406
1761469098217592300,8.98059228515625,-0.03958260267972946,0.005019600968807936,-0.0469430573284626
1761469098227548200,8.990548095703126,-0.04270310699939728,-0.0037271627224981785,-0.06683570891618729
1761469098237503200,9.000503173828125,-0.03731979429721832,-0.012074042111635208,-0.07312716543674469
1761469098247459000,9.010458984375,-0.03716306760907173,-0.016449090093374252,-0.06909884512424469
1761469098257415200,9.020415283203125,-0.039763908833265305,-0.017048301175236702,-0.06620905548334122
1761469098267370200,9.030370361328124,-0.03290126472711563,-0.004120101220905781,-0.059789083898067474
1761469098277326300,9.040326416015626,-0.0298767127096653,0.011510257609188557,-0.05138574540615082
1761469098287281200,9.05028125,-0.02877058833837509,0.016093522310256958,-0.03705105558037758
1761469098297237200,9.0602373046875,-0.02149110473692417,0.012393059208989143,-0.02166198007762432
1761469098307192300,9.0701923828125,-0.019833149388432503,0.0011973888613283634,0.0018177962629124522
1761469098317148200,9.080148193359374,-0.019722094759345055,-0.0020420802757143974,0.01725188083946705
1761469098327103200,9.090103271484375,-0.01298371609300375,0.0053903996013104916,0.024522121995687485
1761469098337059300,9.100059326171875,-0.007527964189648628,0.01569416932761669,0.023136213421821594
1761469098347014100,9.11001416015625,-0.00369869451969862,0.01796351559460163,0.016486402601003647
1761469098356970200,9.11997021484375,0.0018883509328588843,0.015682252123951912,0.007451361510902643
1761469098366925300,9.12992529296875,0.006334361620247364,0.012706441804766655,-0.0019056708551943302
1761469098376881200,9.139881103515625,0.010399410501122475,0.014732841402292252,-0.006295359693467617
1761469098386837200,9.149837158203125,0.007138482760637999,0.03254988417029381,0.016987551003694534
1761469098396792000,9.1597919921875,-0.005160260945558548,0.049563221633434296,0.043400250375270844
1761469098406748400,9.16974853515625,-0.009995263069868088,0.052420973777770996,0.06002764403820038
1761469098416703200,9.179703125,-0.01355963759124279,0.058124933391809464,0.05881457403302193
1761469098426659300,9.189659423828125,-0.00857002753764391,0.08646741509437561,0.05496933311223984
1761469098436614400,9.199614501953125,-0.016756584867835045,0.10375799238681793,0.05674087256193161
1761469098446570200,9.2095703125,-0.041340772062540054,0.08826295286417007,0.04166758060455322
1761469098456525300,9.219525390625,-0.05441902205348015,0.09978751838207245,0.014441285282373428
1761469098466481200,9.229481201171875,-0.05339448153972626,0.10476765781641006,-0.015705905854701996
1761469098476436200,9.239436279296875,-0.056141000241041183,0.07573973387479782,-0.045903220772743225
1761469098486392300,9.249392333984375,-0.061260029673576355,0.056496720761060715,-0.05680280923843384
1761469098496348200,9.25934814453125,-0.06785135716199875,-0.016958588734269142,-0.08917033672332764
1761469098506303200,9.26930322265625,-0.049345962703228,-0.06963375210762024,-0.13005220890045166
1761469098516259000,9.279259033203125,-0.021126840263605118,-0.06838472932577133,-0.16690583527088165
1761469098526214100,9.289214111328125,-0.00885117519646883,-0.055793631821870804,-0.1772504448890686
1761469098536170200,9.299170166015625,-0.005569628439843655,-0.037267617881298065,-0.15842777490615845
1761469098546125000,9.309125,-0.011658955365419388,-0.021099092438817024,-0.11334070563316345
1761469098556081400,9.319081298828126,-0.01595250517129898,-0.014577011577785015,-0.06824672967195511
1761469098566036200,9.3290361328125,-0.014398851431906223,-0.01695149391889572,-0.04319529980421066
1761469098575992300,9.338992431640625,-0.002775485161691904,-0.010160432197153568,-0.03209870681166649
1761469098585947400,9.348947509765624,0.0026423484086990356,-0.010285851545631886,-0.022664351388812065
1761469098595903200,9.3589033203125,0.008266945369541645,-0.047682493925094604,-0.022594042122364044
