time,seconds_elapsed,z,y,x
1761469569182212600,0.050212646484375,-0.3262298499405384,0.06986877825707197,0.33113614401947705
1761469569192167400,0.06016748046875,-0.12888473858833313,-0.0027766251064836977,0.252612404940743
1761469569202121700,0.070121826171875,-0.031793314623832704,-0.10539645710363983,0.05398356478777714
1761469569212076500,0.08007666015625,-0.18073124568164348,-0.14419804305434225,-0.1763676071120426
1761469569222031600,0.090031494140625,-0.24620938776433465,-0.09808028887137771,-0.3674801807502284
1761469569231985700,0.099985595703125,-0.24223639248013495,0.005721738647669553,-0.41032501420974726
1761469569241940700,0.109940673828125,-0.2222264546304941,0.04644377126693725,-0.3107669444033876
1761469569251894800,0.119894775390625,-0.1826297727793455,0.09948168010190128,-0.10014345934572629
1761469569261849600,0.129849609375,-0.019917583391070366,0.18830284997969865,0.11818535765856504
1761469569271803600,0.1398037109375,0.28195991558134553,0.279177445255965,0.31109734540153294
1761469569281759500,0.149759521484375,0.5999789865374565,0.2973733194209635,0.4721703162154183
1761469569291714300,0.15971435546875,0.7916559891253709,0.28135172055512664,0.5843416742814704
1761469569301668400,0.16966845703125,0.8171446506470441,0.26153131392821666,0.6220806359693407
1761469569311623700,0.179623779296875,0.7916624188661575,0.19612360673323273,0.5573468825131654
1761469569321577500,0.189577392578125,0.6533417434126139,0.07849939008876682,0.5079486818874255
1761469569331532500,0.199532470703125,0.5136024333328009,-0.01016439727023244,0.3730493226520717
1761469569341487400,0.2094873046875,0.34416005890667434,-0.0468383235424757,0.19166783290077
1761469569351441700,0.219441650390625,0.15839023453593254,-0.14770444374009967,-0.01602512426348403
1761469569361396500,0.229396484375,-0.04714344396889209,-0.24897446856349706,-0.17161621133387087
1761469569371350500,0.2393505859375,-0.21573533904552458,-0.28763956865295764,-0.3245732783725485
1761469569381305300,0.249305419921875,-0.3338625367760658,-0.2260400215692818,-0.4227033246697858
1761469569391260700,0.2592607421875,-0.5457704264879226,-0.15058657504767178,-0.3948864028636366
1761469569401214700,0.269214599609375,-0.6797346602976322,-0.028422084625065326,-0.31840828946940597
1761469569411169500,0.27916943359375,-0.7174141103506088,0.16381678962931037,-0.20707150079766287
1761469569421123600,0.28912353515625,-0.6517144344717264,0.31747020490169525,-0.07991240782500245
1761469569431078400,0.299078369140625,-0.5509066203325986,0.38329467620402574,-0.027165746154729276
1761469569441033700,0.30903369140625,-0.449710683658719,0.3442499291472137,-0.09793053253660909
1761469569450987500,0.318987548828125,-0.4247586132317781,0.22089432924389837,-0.19299217683970926
1761469569460942600,0.328942626953125,-0.4801935002058744,0.08502192372530698,-0.3097018359225243
1761469569470896400,0.338896484375,-0.5751619406670332,-0.028547902961820363,-0.4738970304101705
1761469569480851500,0.3488515625,-0.6474100152760743,-0.09571998948082328,-0.6445631014123558
1761469569490806500,0.358806640625,-0.6549778201818466,-0.14178469830229878,-0.7451917595922947
1761469569500760600,0.368760498046875,-0.5562643479734659,-0.1572222136698663,-0.7354336781006307
1761469569510715400,0.37871533203125,-0.31866789025366304,-0.198176447609812,-0.6693049631547182
1761469569520669400,0.38866943359375,-0.021717910811305044,-0.24971724975481627,-0.5764262615144252
1761469569530624500,0.39862451171875,0.2733300344020128,-0.30399405273497104,-0.5088107420768588
1761469569540579600,0.40857958984375,0.4774404021054506,-0.3654984688811004,-0.47043585710562763
1761469569550533600,0.41853369140625,0.5788648868381977,-0.4443130623988807,-0.4627361694484949
1761469569560488400,0.428488525390625,0.6552478692948818,-0.5091479381419718,-0.506802763255313
1761469569570442500,0.4384423828125,0.6979162136763334,-0.5751283306583762,-0.5172995342850685
1761469569580397600,0.4483974609375,0.700018738913536,-0.5818579311743378,-0.5327084080800414
1761469569590352600,0.4583525390625,0.6683885058969259,-0.5799193643271923,-0.4980041013803333
1761469569600306400,0.468306396484375,0.46202188369929786,-0.5681640446037054,-0.4049202690893784
1761469569610261500,0.478261474609375,0.224414320063591,-0.511227082503587,-0.37125604602713136
1761469569620215300,0.48821533203125,0.014256488889455795,-0.3982202965267002,-0.3534720771312713
1761469569630170600,0.498170654296875,-0.04999883340001106,-0.30638197078481316,-0.33287568116318433
1761469569640125400,0.50812548828125,-0.0481365466594696,-0.2694840264983475,-0.2439011656208895
1761469569650079500,0.51807958984375,0.021387071421742437,-0.21100275756567716,-0.09725157382912002
1761469569660034300,0.528034423828125,0.08973521598279476,-0.17061770181581376,0.058858797008171676
1761469569669988600,0.537988525390625,0.13719663985967634,-0.1303212011322379,0.20538378517273811
1761469569679943700,0.547943603515625,0.1657464425176382,-0.11573241154849528,0.2755479296471923
1761469569689898500,0.5578984375,0.14413199208080768,-0.09361147289425134,0.3167098149884492
1761469569699852500,0.5678525390625,0.10899053607285022,-0.0531396156437695,0.3526116609096527
1761469569709807400,0.577807373046875,0.05441197366714477,-0.06451981844455003,0.33508955782037225
1761469569719761700,0.58776171875,-0.04309387631714344,-0.08328516306057572,0.293888034588471
1761469569729716500,0.597716552734375,-0.0973018518447876,-0.07932327369228005,0.22897298801494761
1761469569739671600,0.607671630859375,-0.1144856263577938,-0.09691051443964242,0.13028433972056955
1761469569749625300,0.617625244140625,-0.12989479241371155,-0.13697262184545397,0.017146990733151322
1761469569759580700,0.62758056640625,-0.15404197619855403,-0.1875895871438086,-0.06650051653352565
1761469569769534500,0.637534423828125,-0.13389759831428527,-0.19660437598749994,-0.10980990789802744
1761469569779489500,0.647489501953125,-0.04456687147915363,-0.15695304133966564,-0.1132365487453062
1761469569789444400,0.6574443359375,0.0284428351521492,-0.09900441797897219,-0.04996563438330777
1761469569799398400,0.6673984375,0.09265548734366894,-0.03523527177125215,0.048428930901899
1761469569809353500,0.677353515625,0.12342588866055011,0.005977905365824699,0.12285861929976381
1761469569819307500,0.6873076171875,0.08834580745100974,0.0001556289531290531,0.17045125920772553
1761469569829262600,0.6972626953125,-0.024134324303269384,-0.008284867133945226,0.15325331003889442
1761469569839216400,0.70721630859375,-0.12443418892025947,-0.01780541354268789,0.07937156981341541
1761469569849171500,0.71717138671875,-0.23294717060923575,-0.039568917061388494,0.01272618774937
1761469569859126500,0.72712646484375,-0.2975549595981836,-0.05313917725235223,-0.04746604525307193
1761469569869080600,0.73708056640625,-0.324634105181694,-0.03606850772500038,-0.08967834382955915
1761469569879035400,0.747035400390625,-0.24600948127806185,-0.02935191282108426,-0.13884069900596513
1761469569888989400,0.756989501953125,-0.17036299640238284,-0.06953998469412326,-0.13534761445950716
1761469569898944500,0.766944580078125,-0.10276713151335716,-0.10819923956468701,-0.152792578925658
1761469569908899600,0.776899658203125,-0.03399403953850269,-0.11686404592692852,-0.1953903240226209
1761469569918853600,0.786853515625,0.018408347871899603,-0.13297785312086344,-0.24020229283664374
1761469569928808400,0.796808349609375,0.06818038677871227,-0.14571400057524442,-0.262291448113136
1761469569938762500,0.806762451171875,0.09367313995361327,-0.14704977922365067,-0.2654928379703313
1761469569948717600,0.816717529296875,0.09689560913145541,-0.07915639269277452,-0.24781055761696769
1761469569958672600,0.826672607421875,0.04481996945738792,-0.0207036192022264,-0.2401614493696019
1761469569968626400,0.83662646484375,-0.012812135300040245,0.0181416597597301,-0.2629212156503461
1761469569978581500,0.84658154296875,-0.03839081319272518,0.05618059077486395,-0.302013729105331
1761469569988535300,0.856535400390625,-0.06129822604954242,0.09221958014443517,-0.33826307328995314
1761469569998490600,0.86649072265625,-0.08847674035429955,0.10535831705033778,-0.3551785157229751
1761469570008445400,0.876445556640625,-0.06744038206636906,0.11663067556247114,-0.3479109724054113
1761469570018399500,0.8863994140625,0.013101473635435103,0.13163199146986007,-0.35637112304102625
1761469570028354300,0.896354248046875,0.1186462531685829,0.1091604858122766,-0.33710016699042167
1761469570038308600,0.90630859375,0.23014029649496076,0.05551511260345578,-0.33042094495482743
1761469570048263400,0.916263427734375,0.24717209531664847,0.034508272670954465,-0.3351599561754614
1761469570058218500,0.926218505859375,0.2621931388378143,0.05183189404606819,-0.34467717811595644
1761469570068172500,0.936172607421875,0.2752449281126261,0.0880761967293918,-0.3014936142213642
1761469570078127600,0.946127685546875,0.22921324477791785,0.11615005243867635,-0.2328042550072074
1761469570088081700,0.95608154296875,0.15931494816541672,0.14466288408711553,-0.2131515878963284
1761469570098036500,0.966036376953125,0.0060953942656517025,0.15571341654211282,-0.23934965806268155
1761469570107991600,0.975991455078125,-0.08410568566322327,0.17579904997646809,-0.29300895019900053
1761469570117945300,0.9859453125,-0.09381225616335868,0.170908209194988,-0.291817256196402
1761469570127900700,0.995900634765625,-0.08138006009161472,0.15318389806449412,-0.268202571853064
1761469570137854500,1.0058544921875,-0.018016718205809593,0.11791808502450585,-0.220464449926652
1761469570147809500,1.0158095703125,0.03444119878411293,0.08461275840252637,-0.17397157882098108
1761469570157764400,1.025764404296875,0.10384908153116702,0.06998918976634741,-0.15150172626436686
1761469570167718400,1.035718505859375,0.09721651164889335,0.020974837359040974,-0.14887402637558989
1761469570177673500,1.045673583984375,0.05715981107056141,-0.019179916766285894,-0.1553635436585173
1761469570187627500,1.05562744140625,0.055743514531850814,-0.040989451383799315,-0.21158848503176123
1761469570197582600,1.06558251953125,0.05961129587590694,-0.10050094014704226,-0.27898089977055784
1761469570207537400,1.075537353515625,0.028237083446979522,-0.1518741306401789,-0.29129370724633336
1761469570217491700,1.08549169921875,0.013082184413075446,-0.1557687999911606,-0.28736248701093714
1761469570227446500,1.095446533203125,-0.05493862788975239,-0.15489347846135496,-0.26444563047233965
1761469570237400600,1.105400634765625,-0.1805430296331644,-0.12385375868380069,-0.24370606317389756
1761469570247355400,1.11535546875,-0.195312728741765,-0.07645882417187094,-0.23310802372675388
1761469570257310700,1.125310791015625,-0.1699509084701538,-0.05794540849030017,-0.2233517688659951
1761469570267264500,1.135264404296875,-0.10153320580422878,-0.04774886251613497,-0.18614707845160736
1761469570277219600,1.145219482421875,-0.09338847779333591,-0.05357552284300327,-0.14225380451823583
1761469570287173600,1.155173583984375,-0.16929565943181513,-0.06339768254682421,-0.16082959051206708
1761469570297128700,1.165128662109375,-0.2033908212572336,-0.07536854471713304,-0.20471067168414592
1761469570307082800,1.175082763671875,-0.19370412450134752,-0.06770224787294864,-0.2261190050896257
1761469570317037600,1.18503759765625,-0.16711363921761513,-0.06359291285797954,-0.21529926744950934
1761469570326992600,1.19499267578125,-0.11539748050570488,-0.055025575520843265,-0.1535695181149058
1761469570336946700,1.20494677734375,-0.09519114330112934,-0.07479147548153996,-0.12832140561714767
1761469570346901800,1.21490185546875,-0.13182546821534633,-0.07551087579727173,-0.13351146680722012
1761469570356855600,1.22485546875,-0.10738251635432243,-0.06667714260891079,-0.15709022132065145
1761469570366811000,1.234810791015625,-0.07107435465455055,-0.06452084135785699,-0.17518356669293716
1761469570376765700,1.244765625,-0.017595277923345566,-0.10328954795226454,-0.1814772782759741
1761469570386719700,1.2547197265625,0.04126373828053474,-0.12507336360663174,-0.17806670264750718
1761469570396674600,1.264674560546875,0.1053185695618391,-0.11496332687214016,-0.14702720206566153
1761469570406628600,1.274628662109375,0.1939016929000616,-0.11689181071668862,-0.1309709520115517
1761469570416583700,1.284583740234375,0.21416823585927486,-0.1225185645572841,-0.12497562058689073
1761469570426538800,1.294538818359375,0.11133856050372123,-0.10956570561230182,-0.12012080096686258
1761469570436492800,1.304492919921875,0.04146481381058693,-0.05138736514896154,-0.1075180158348754
1761469570446447600,1.314447509765625,-0.00012216507494449615,-0.009110942694544792,-0.09014575127875432
1761469570456401700,1.324401611328125,0.0037830256700515743,0.02672784792780876,-0.0633645109295845
1761469570466356700,1.334356689453125,0.03334229763150215,0.05019844762533903,-0.0030086437640711662
1761469570476311800,1.344311767578125,0.04325637340247631,0.06587561696767806,0.01612962581757456
1761469570486265600,1.354265625,0.03270049259662628,0.07437295780852436,0.010085413749888538
1761469570496220700,1.364220703125,0.014392097967863083,0.03678527769222855,-0.0284735773502849
1761469570506174500,1.374174560546875,0.029521278038620948,0.022199849109351633,-0.10965479040155186
1761469570516129800,1.3841298828125,0.08644435774385928,0.014882657963782547,-0.15786029237769544
1761469570526084600,1.394084716796875,0.13350538412630558,-0.024450404515117406,-0.19059936341904102
1761469570536038700,1.40403857421875,0.12342179700732231,-0.04141220684051514,-0.2063184722069651
1761469570545993500,1.413993408203125,0.08799392527341843,-0.03573912964016199,-0.17137723321253434
1761469570555947800,1.42394775390625,0.07259528061151505,-0.004374415691941976,-0.15061139896167441
1761469570565902600,1.433902587890625,0.03784837687909603,0.018489158023148773,-0.11263731334367766
1761469570575857700,1.443857666015625,0.048207273808121676,0.019723960515111685,-0.086892375505995
1761469570585811700,1.453811767578125,0.04865034140050411,0.0446760309420526,-0.08126750309523195
1761469570595766800,1.463766845703125,0.021974515920877454,0.023699293886870143,-0.09144739019554107
1761469570605720800,1.473720947265625,-0.048777767172455785,-0.034193361502885815,-0.08673771466724574
1761469570615675600,1.483675537109375,-0.13455226283073424,-0.10040507855713367,-0.1647202412750572
1761469570625630700,1.493630615234375,-0.12597440409958363,-0.13793576778918504,-0.22979104466587305
1761469570635584500,1.50358447265625,-0.06691314332187176,-0.1970563575387001,-0.272782867114339
1761469570645539800,1.513539794921875,-0.036623218998312945,-0.25026538515686986,-0.273447596367076
1761469570655493600,1.52349365234375,-0.01652326477766037,-0.2974804330572486,-0.26826966400621455
1761469570665448700,1.53344873046875,-0.06263444308936596,-0.31043446104601025,-0.26557879922073335
1761469570675403500,1.543403564453125,-0.08379121288657188,-0.3273512551859021,-0.25791261197440324
1761469570685357600,1.553357666015625,-0.02477671386003494,-0.33391339018046856,-0.27853523836228994
1761469570695312600,1.563312744140625,0.04690145190656185,-0.33188495309278365,-0.2529917779134586
1761469570705266700,1.5732666015625,0.08680266966223717,-0.382366309312731,-0.21529605257911608
1761469570715221800,1.5832216796875,0.14540215814709662,-0.4009421227060258,-0.19558696083957328
1761469570725175600,1.593175537109375,0.17948212240338324,-0.3987614176660776,-0.19073685392728074
1761469570735131000,1.603130859375,0.13060966268479823,-0.41233036268278955,-0.19671181841734794
1761469570745085700,1.613085693359375,0.10612696333527565,-0.42471901187375183,-0.2170127751028165
1761469570755039700,1.623039794921875,0.12059154201745986,-0.39518648178875443,-0.24250845088716594
1761469570764994600,1.63299462890625,0.1684557014763355,-0.3686011110715568,-0.2508657256701961
1761469570774948600,1.642948486328125,0.24819150149226188,-0.346527372559905,-0.24570348406881093
1761469570784903700,1.652903564453125,0.3783516668438911,-0.33337358421534297,-0.21044526981338857
1761469570794858800,1.662858642578125,0.4822282209038734,-0.3147723441198468,-0.17248935917289926
1761469570804812500,1.6728125,0.574638209053874,-0.25833748632296916,-0.11716777811385691
1761469570814767600,1.682767578125,0.6832979057371616,-0.22476094154417514,-0.09316303500700741
1761469570824721700,1.6927216796875,0.7479442731708288,-0.23719357600733637,-0.05445486296080052
1761469570834676700,1.7026767578125,0.8497364221721887,-0.2402465338371694,-0.023365586686786264
1761469570844631600,1.712631591796875,0.9390934524923562,-0.22570611343979835,-0.03518706698166206
1761469570854585600,1.722585693359375,1.0354016171246767,-0.24025004096850752,-0.07340400317851453
1761469570864540700,1.732540771484375,1.04367610899508,-0.2834163979999721,-0.13462775748604908
1761469570874494700,1.74249462890625,1.02209789891541,-0.28595979887247086,-0.1932771312609315
1761469570884449800,1.75244970703125,1.0403063403010369,-0.21135332456901668,-0.23580827739508822
1761469570894404600,1.762404541015625,1.0642062713265419,-0.121755032838881,-0.2402848930861801
1761469570904358700,1.772358642578125,0.9596505028307437,-0.057560354695469135,-0.17144096436481923
1761469570914313700,1.782313720703125,0.7952847010165452,0.024898878934979437,-0.14452627036171034
1761469570924267800,1.792267822265625,0.747216543418169,0.1867059361770749,-0.1316886352942325
1761469570934222600,1.80222265625,0.5762322002470494,0.3263486540146172,0.021392459982912986
1761469570944177700,1.812177734375,0.21071780314445496,0.44372897890061136,0.24065460318140683
1761469570954131700,1.822131591796875,-0.05591068779230118,0.5614499339178204,0.3503360806604847
1761469570964086800,1.832086669921875,0.07370704124569892,0.4853073360882699,0.4294679234338924
1761469570974040800,1.842040771484375,0.6637731210559606,0.19179156887829302,0.5897413779005408
1761469570983995600,1.85199560546875,1.0362450822114944,-0.2319254263460636,0.6426662548150867
1761469570993950700,1.86195068359375,1.3714537728995084,0.9829844705365598,0.16061006600987165
1761469571003904500,1.871904541015625,1.1336340278178452,0.9266069689501076,-0.5003651314232498
1761469571013859800,1.88185986328125,0.36693946146965023,0.9025576925817876,0.6863770939867944
1761469571023813600,1.891813720703125,0.7479694076120853,2.155180430330336,0.7847531509343534
1761469571033768700,1.901768798828125,0.8477028705179691,2.562293204495311,0.8499400549855083
1761469571043723500,1.9117236328125,1.6301070471733807,1.8105752580046652,0.7570474709503352
1761469571053677800,1.921677734375,2.67281460339725,0.5483363314531743,-0.11606958021414465
1761469571063632600,1.931632568359375,3.0091712950766083,-0.4561247519521042,-1.2355435195885598
1761469571073586700,1.941586669921875,1.2094213824689388,-1.5767743931755422,-2.1253467253416773
1761469571083541500,1.95154150390625,1.0740519580364227,-3.5605753435373306,-2.1695893333025276
1761469571093496800,1.961496826171875,3.527862575981021,-3.3327631977289913,-1.9835918376557529
1761469571103451000,1.971450927734375,1.938168203216791,-2.29139273532778,-1.3183498130910098
1761469571113405700,1.98140576171875,3.632242403388023,-1.632518199968338,0.414098395268619
1761469571123359700,1.99135986328125,2.935584665340185,-0.5065817409157752,0.6305396175611764
1761469571133314600,2.001314453125,1.5896891120672225,-0.0008108779914677142,0.9714872172273695
1761469571143270000,2.011269775390625,1.3821511080026625,0.1990263424374163,0.4007267263896763
1761469571153223700,2.0212236328125,-0.9761170689851045,-0.5669296805031597,-0.8441472238630056
1761469571163178800,2.0311787109375,-2.893533576074242,-1.929449474710226,-1.526668007747829
1761469571173132500,2.041132568359375,-0.9945394453823566,-2.9367119158044455,-1.194868614046648
1761469571183087600,2.051087646484375,-0.3549228604614734,-4.253044982245564,-1.285940266264975
1761469571193042700,2.061042724609375,-4.65507387727499,-4.8784953869089485,-1.9455095058903098
1761469571202996700,2.070996826171875,-10.979573835676907,-3.6058182145819067,-2.342453645001352
1761469571212951600,2.08095166015625,-15.993187594866752,-1.8060972358077763,-5.064709740176797
1761469571222905600,2.090905517578125,-16.01749552217126,-1.768824028468132,-4.948936996617913
1761469571232860700,2.100860595703125,-16.025331622624396,-1.7394018268898128,-4.961034261646867
1761469571242815700,2.110815673828125,-16.011490144276618,-1.7518848763659596,-5.050763047888875
1761469571252769800,2.120769775390625,-15.97842023384571,-1.8169573602572082,-5.1820373119622465
1761469571262724600,2.130724609375,-15.932220792728662,-1.9297244922593235,-5.33261190431118
1761469571272678700,2.1406787109375,-15.878787308704853,-2.0843226410359144,-5.4770121919393535
1761469571282633700,2.1506337890625,-9.202166687780618,-2.116799407879263,0.8722641149964183
1761469571292588500,2.160588623046875,-6.843625539070367,-2.088415901698917,1.8994000811442733
1761469571302542300,2.170542236328125,-4.759211128097772,-1.821486966510862,2.083977334729582
1761469571312497700,2.18049755859375,-4.581138287970424,-1.0776143266931175,0.9921697936415672
1761469571322451700,2.19045166015625,-7.323230425733327,0.47958209030926224,-0.6974086294803769
1761469571332406500,2.200406494140625,-9.226853385269642,2.3937242519028485,-0.9057995240472256
1761469571342361300,2.210361328125,-8.255650391811132,3.236846662762761,-0.1400539289869368
1761469571352315600,2.220315673828125,-4.788987257680296,3.0153146201372145,0.0312505129840225
1761469571362270700,2.230270751953125,-1.4749369437277315,2.5253265788868067,-0.7392243756204843
1761469571372224500,2.240224609375,0.4068091150432825,1.8576799773983657,0.6987661085039377
1761469571382179600,2.2501796875,2.6607319514155385,1.6696489300973711,2.652525556345284
1761469571392134700,2.260134765625,5.085812733960151,2.0401775021001693,2.955869912999868
1761469571402088700,2.270088623046875,7.144886367449164,2.263646650268137,3.1790532299637793
1761469571412043500,2.28004345703125,8.356025659751891,2.162356459439546,2.9077880191370844
1761469571421998600,2.28999853515625,8.222410970032215,1.8487717176690697,2.1486058742456136
1761469571431952400,2.299952392578125,7.9103364866942165,2.069590497458726,1.7786147701203823
1761469571441907700,2.30990771484375,8.711782048428057,2.3506436734586953,1.7095955944299697
1761469571451861500,2.319861572265625,10.284763186800479,2.1577185705058275,1.5880677944757042
1761469571461816600,2.329816650390625,11.943017885571718,1.861551996526122,0.8662144595686346
1761469571471771400,2.339771484375,13.524690864443778,1.9380346399649977,0.16284363374821842
1761469571481725400,2.349725341796875,14.597922153747081,2.080671717312932,0.1746245263043791
1761469571491680500,2.359680419921875,14.973549948585033,1.9042016362071037,0.5835770831171423
1761469571501634600,2.369634521484375,14.670325711178778,1.9136963175222277,0.8366415244080125
1761469571511589600,2.379589599609375,13.550117566645145,2.129583047737181,0.7930356799807399
1761469571521544400,2.38954443359375,11.835379348629713,2.5815403412789104,0.6671897976316511
1761469571531498800,2.399498779296875,9.893460852968692,3.0913381216317415,0.6770164143148809
1761469571541453600,2.40945361328125,8.058180192774534,3.5662913830965755,1.0513390448383986
1761469571551407600,2.41940771484375,6.891155352008342,3.8026907399863004,1.621016562744975
1761469571561362400,2.429362548828125,6.45771483514905,3.7224779701083897,2.065836405622214
1761469571571317800,2.43931787109375,6.3380257949292655,3.8887940292075274,2.2466671661555764
1761469571581271600,2.449271484375,6.9376511457234615,3.9041616942092774,1.8887246656119823
1761469571591226600,2.4592265625,8.271532436075805,3.1864009623780847,0.6303151611555368
1761469571601180700,2.4691806640625,9.710239544036984,2.6425781628265974,-0.8602651227101683
1761469571611135500,2.479135498046875,10.864732820010184,2.9450638568252323,-1.7193233538486064
1761469571621090600,2.489090576171875,11.772827323126792,4.013724184951186,-1.6719072304181755
1761469571631044600,2.499044677734375,11.940893733024597,4.550314695161581,-0.013894176649395375
1761469571640999700,2.508999755859375,11.68161385128498,4.607850353807211,2.871127975259721
1761469571650953500,2.518953369140625,11.276409248828887,4.729962821781635,5.188526673981547
1761469571660908500,2.528908447265625,10.525794295144081,3.922496976844966,6.075224753326177
1761469571670863600,2.538863525390625,8.556009887436032,1.5663380470961332,5.181031934311986
1761469571680817700,2.548817626953125,8.359885842311382,-0.6497437189206481,2.165220908959955
1761469571690772500,2.5587724609375,7.077296347779035,-2.953175559349358,-1.10706056673415
1761469571700726500,2.5687265625,-0.7550280939519405,-3.147025522062182,-1.4234636538609862
1761469571710681300,2.578681396484375,-12.955502152967453,-0.20144290205985307,-0.7373587278790772
1761469571720636700,2.58863671875,-24.110375272405147,2.6437109662488103,-0.9561730359785259
1761469571730590500,2.598590576171875,-24.111813196253774,2.634089151422679,-1.0653197124611586
1761469571740545500,2.608545654296875,-24.142322900807855,2.737136853443086,-1.1230251016505062
1761469571750499600,2.61849951171875,-24.180450094628334,2.87816094263643,-1.0798293723940848
1761469571760454700,2.62845458984375,-24.214740486764907,3.005565379539132,-0.9787642224930226
1761469571770409500,2.638409423828125,-24.239879604196545,3.0952617248162624,-0.8757793565757572
1761469571780363500,2.648363525390625,-24.252811566483974,3.1409318813622,-0.7779127104550599
1761469571790318600,2.658318603515625,-8.634813375037908,-9.80603449845016,-4.784868131923675
1761469571800273700,2.668273681640625,-7.443035785809159,-10.677582939457892,-4.278152243234217
1761469571810227700,2.678227783203125,-8.717883287912606,-9.667691611164807,-4.051282931233942
1761469571820182500,2.6881826171875,-14.038630566906928,-6.200035374343395,-4.332220810291171
1761469571830136600,2.698136474609375,-13.96663851288557,-6.50157852679491,-4.298909784580767
1761469571840091400,2.70809130859375,-13.908905285841225,-6.760767807641625,-4.356671068675816
1761469571850046700,2.718046630859375,-13.878567430722713,-6.903354908367991,-4.441237649849057
1761469571860000500,2.72800048828125,-13.87441498721838,-6.922914764362573,-4.460017753642798
1761469571869955600,2.73795556640625,-13.889434861695765,-6.856959652417898,-4.377972507640719
1761469571879909600,2.74790966796875,-13.916304163920879,-6.753804398369788,-4.230583267329633
1761469571889864400,2.757864501953125,-13.947887050664423,-6.651239511430263,-4.06366281259656
1761469571899819500,2.767819580078125,-7.73485015592873,-2.521781161364913,0.45464149112440644
1761469571909773600,2.777773681640625,-5.306814615231752,-2.067714182192832,-0.8590407685469835
1761469571919728600,2.787728759765625,-3.399555345019698,-0.9815569219514727,-1.232711072641611
1761469571929682400,2.797682373046875,-0.81355276363492,0.3009121610715985,-1.0590738768741488
1761469571939637800,2.8076376953125,2.7221020736575126,1.1556607123173772,-1.6758834405727683
1761469571949592600,2.817592529296875,6.445891710886359,2.3997844287246464,-2.0938567775785923
1761469571959546600,2.827546630859375,9.481600884276627,3.687245620946586,-1.4968264117136596
1761469571969501400,2.83750146484375,11.945235561621189,4.756070491984486,-0.5234060709992423
1761469571979455500,2.84745556640625,14.378422493731975,5.47854714642167,-0.38869763122610745
1761469571989410600,2.85741064453125,15.984085420000552,4.870476915626227,0.5587846967639402
1761469571999365600,2.86736572265625,17.524458420234918,4.933303958678246,1.6255477764338253
1761469572009319400,2.8773193359375,19.16047556823492,5.117598449799418,2.108079656459391
1761469572019274500,2.8872744140625,20.478242759132385,4.758141160778701,2.3671472106225786
1761469572029228500,2.897228515625,20.876550003290173,4.874850308404863,2.6144766884580255
1761469572039183600,2.90718359375,20.263891567921636,4.8995127482354635,2.4831021788805723
1761469572049138400,2.917138427734375,18.88355949203968,4.844844461719691,2.1622825174205005
1761469572059092500,2.927092529296875,16.990634452128408,5.054058582302928,1.88810419562608
1761469572069047600,2.937047607421875,15.079939946770667,5.240397730994224,1.7285871490173041
1761469572079001600,2.947001708984375,13.322175072455405,5.386129559487104,1.7160360027410089
1761469572088956700,2.956956787109375,11.751080770742892,5.528907214349508,1.6855417880170047
1761469572098911500,2.966911376953125,9.209411836603284,5.425912119299173,1.7850974101379513
1761469572108865500,2.976865478515625,5.325462032556533,4.189152940310538,2.958513705506921
1761469572118820600,2.986820556640625,4.655064524924755,4.944878661137819,2.01913939024657
1761469572128774700,2.996774658203125,3.9548616616159675,5.202331327450275,1.6470166809201239
1761469572138729500,3.0067294921875,4.166374414530396,4.444047154311836,1.2724157449118791
1761469572148684500,3.0166845703125,4.9479175904423,3.933475174716115,0.7959970870696008
1761469572158638600,3.026638671875,5.974550794699788,3.4484228363022207,-0.011739172306284308
1761469572168593700,3.03659375,7.165645077839494,2.810547249829769,-0.8752550404407083
1761469572178548500,3.046548583984375,7.827434916123748,2.0112831237882376,-1.2384484472498296
1761469572188502500,3.05650244140625,8.08914582440257,1.32854665132612,-1.21326322565414
1761469572198457600,3.06645751953125,8.304726265147329,1.3426575942650436,-0.4829166415594518
1761469572208411400,3.076411376953125,8.297500990068912,1.2361249727383254,0.3551609435336664
1761469572218366700,3.08636669921875,7.719778259003162,0.9494035418435931,0.6574008095450699
1761469572228321500,3.096321533203125,6.671088705760241,1.049534918025881,1.0711387009382247
1761469572238275600,3.106275634765625,4.1762861522138115,0.4033225881017744,2.079088978166133
1761469572248230400,3.11623046875,1.455782745924592,-1.2729922296255827,2.9772540618121623
1761469572258184700,3.126184814453125,-0.5668091228634119,-3.306021613536775,3.1804689419806
1761469572268139500,3.136139404296875,-4.323187609007954,-5.03579636490345,2.7236858357176184
1761469572278094600,3.146094482421875,-9.308293066594004,-4.561192063006758,-1.2314058352619408
1761469572288049400,3.15604931640625,-18.305261591434476,-5.766727543953061,-4.5104359814986585
1761469572298004500,3.16600439453125,-18.331151234972477,-5.804829603332281,-4.203082096941769
1761469572307958300,3.175958251953125,-18.36816082293987,-5.755524012893438,-3.95385891431421
1761469572317913600,3.18591357421875,-18.4060752507925,-5.634497586590052,-3.795395030020177
1761469572327868400,3.195868408203125,-18.443872774267195,-5.47716767476201,-3.6925071947365997
1761469572337822500,3.205822509765625,-18.48256578527689,-5.305013118767738,-3.619549510553479
1761469572347777300,3.21577734375,-18.524201279479264,-5.117467516896128,-3.56655295664221
1761469572357731300,3.2257314453125,-18.573097704595327,-4.921331196811795,-3.5066154975518584
1761469572367686400,3.235686279296875,-18.628006521868706,-4.7455403301417824,-3.417379755523801
1761469572377641500,3.245641357421875,-18.677751672768593,-4.626736840584874,-3.309184753742814
1761469572387595500,3.255595458984375,-18.710110804581642,-4.566805811235309,-3.2270240646675226
1761469572397550300,3.26555029296875,-18.72488050369024,-4.534029915314912,-3.197233614298701
1761469572407505400,3.27550537109375,-18.728567667770385,-4.491582812468708,-3.2280764963299036
1761469572417459500,3.28545947265625,-18.727791422700882,-4.418476951986551,-3.317441125434637
1761469572427414500,3.29541455078125,-18.730767808163165,-4.309586953678727,-3.44319224217236
1761469572437368300,3.305368408203125,-18.7461758051753,-4.166609684590995,-3.5705887880295513
1761469572447323400,3.315323486328125,-6.055460314670205,1.6271134183153508,-0.8827887969464063
1761469572457278500,3.325278564453125,-2.619160170099139,2.8976699452266095,-0.556674390079081
1761469572467232500,3.335232421875,0.9916495691597461,4.3307361246913665,-1.2500289949283003
1761469572477187300,3.345187255859375,4.774866962391138,5.866372744053602,-3.236244312955439
1761469572487141400,3.355141357421875,7.910558605012297,7.443598680388927,-4.276688308161497
1761469572497096400,3.365096435546875,10.694917520618437,9.096824152821302,-3.6956259112790226
1761469572507051500,3.375051513671875,13.606924911016225,9.965665672957897,-2.0823209458246827
1761469572517005600,3.385005615234375,16.40889956281185,9.3934941462785,-1.790930792466551
1761469572526960400,3.39496044921875,18.599507572615146,10.624071129500866,-0.3152489851882681
1761469572536915500,3.40491552734375,20.897740090835093,10.968412974715232,1.9455169585444032
1761469572546869500,3.414869384765625,23.224031997847554,10.089825136590003,2.6461636200979353
1761469572556824300,3.42482421875,25.031686984491348,10.682200662386418,2.7775056887105105
1761469572566778400,3.4347783203125,25.858032594203948,11.340615471279621,2.645002175103128
1761469572576733400,3.4447333984375,25.009253034365177,10.522174935603141,1.8640391371667384
1761469572586688500,3.4546884765625,22.265979577863217,8.822012939950824,0.8699711086884141
1761469572596642600,3.464642578125,19.07630324707627,8.412717853310705,-0.25399098155125976
1761469572606597400,3.474597412109375,16.11381888437271,8.914245817968249,-1.4464301034286617
1761469572616551400,3.484551513671875,13.575692737406492,9.170621210438012,-1.8308368325278161
1761469572626506200,3.49450634765625,10.560545290529728,8.958997982886434,-1.0448841696105897
1761469572636461600,3.504461669921875,7.486462255081534,8.33388981578946,0.23030849266871808
1761469572646415400,3.514415283203125,6.981452293527126,8.393225801855325,0.11420695554688572
1761469572656370400,3.524370361328125,6.268717865425348,8.396655191782116,0.3942345878913998
1761469572666324500,3.534324462890625,5.985984042862057,8.178824341762065,0.6033079848296939
1761469572676279600,3.544279541015625,6.077372871270775,7.663164975899457,0.7358888745222241
1761469572686234400,3.554234375,6.332288712581992,6.829234610146283,0.8312445607353002
1761469572696188400,3.5641884765625,6.72217124274373,5.9679749234408135,0.7713343549780547
1761469572706143500,3.5741435546875,6.918464799216389,5.231669650137424,0.6364031758323312
1761469572716098600,3.5840986328125,6.992115141838789,4.675890747593343,0.5579760107295587
1761469572726052600,3.594052490234375,6.9277464223027225,4.155395339876413,0.6228413181435316
1761469572736007400,3.60400732421875,6.754973442149162,3.7169936934784054,0.7200743425358086
1761469572745961500,3.61396142578125,6.623763475483655,3.39945772986412,1.06968353369385
1761469572755916300,3.623916259765625,6.496621196648478,3.257176626347005,1.1436701955985278
1761469572765871600,3.63387158203125,5.600168616008758,2.803331327101588,1.4960282470732926
1761469572775825400,3.643825439453125,3.27840090842247,1.47549019369632,2.640406956267357
1761469572785780500,3.653780517578125,0.8723609264343977,0.4825689971655607,3.1596944494992494
1761469572795734500,3.663734619140625,-2.6534756966769693,-1.0556497476443647,3.0359958813771604
1761469572805689300,3.673689453125,-5.718263665035367,-2.0702955769881606,2.5689684444755314
1761469572815644400,3.68364453125,-8.129612859347462,-3.391057858048379,2.5215192955583334
1761469572825598500,3.693598388671875,-10.538819780933856,-6.331040758347511,1.029027552048117
1761469572835553300,3.70355322265625,-14.70715526640415,-8.796611372190714,-2.581819158220291
1761469572845508400,3.71350830078125,-14.761679468274115,-8.825901764082909,-2.165089976056665
1761469572855462400,3.72346240234375,-14.824644166231154,-8.809941393885016,-1.8498900541745125
1761469572865417500,3.73341748046875,-14.86952609500885,-8.76780321085751,-1.6885058985196053
1761469572875371500,3.74337158203125,-14.883192216789721,-8.729091495147348,-1.670696831715107
1761469572885326300,3.753326416015625,-14.866665444880724,-8.714031288659571,-1.7628914235487578
1761469572895281400,3.763281494140625,-14.83386558356285,-8.731599094054102,-1.899538612832129
1761469572905235500,3.7732353515625,-14.804300466382502,-8.767521471306681,-2.0060184812583026
1761469572915190500,3.7831904296875,-14.788745169854163,-8.807782754546404,-2.0369398353531953
1761469572925144300,3.793144287109375,-14.788410823333262,-8.843509901487828,-1.9929690300710499
1761469572935099400,3.803099365234375,-14.798219100642203,-8.866430758348107,-1.914240215140581
1761469572945054500,3.813054443359375,-14.801722724848984,-8.882996693223713,-1.8772616068333385
1761469572955008500,3.823008544921875,-14.781924968445301,-8.90657864434123,-1.9497838222086428
1761469572964963300,3.83296337890625,-14.740533804392813,-8.930795386230946,-2.146075040593743
1761469572974917400,3.84291748046875,-14.69266379971504,-8.934847291970252,-2.448112260172516
1761469572984872400,3.85287255859375,-14.661452668893336,-8.895738685896992,-2.777918653425574
1761469572994827500,3.86282763671875,-9.17590236571133,0.42568829529732466,0.44707098280489443
1761469573004781600,3.872781494140625,-4.832257075086236,2.3608527866534885,1.366850516887754
1761469573014736400,3.882736328125,-2.2640993624716996,3.7328272224262355,2.545451083026826
1761469573024691500,3.89269140625,-0.08541384565234184,5.766119056665897,3.779607970562577
1761469573034645200,3.902645263671875,3.4983769537776706,8.026525994360446,2.8301497759222984
1761469573044600600,3.9126005859375,6.7185074595391745,8.950783696770667,1.1500316934544592
1761469573054554400,3.922554443359375,9.355313176444172,9.935210913461447,-0.17249485733192413
1761469573064509400,3.932509521484375,12.275527838695048,10.783373218184709,-1.0733877950392663
1761469573074464300,3.94246435546875,15.955439171230791,11.652903305107355,-1.1607155845541506
1761469573084418600,3.95241845703125,19.785874242711067,11.507786393642425,-0.21369097373634577
1761469573094373400,3.962373291015625,22.573314173197744,10.619009169936179,1.688154746994376
1761469573104327400,3.972327392578125,25.38369541881084,10.404400789093971,4.172044861382246
1761469573114282500,3.982282470703125,26.905456073033807,9.691239075490833,5.3978369484156365
1761469573124237600,3.992237548828125,27.200878112256525,9.11057327671051,5.0604620196044445
1761469573138545400,4.00654541015625,23.71836449804306,7.090005607226491,1.6471610578268765
1761469573148500500,4.01650048828125,19.99851395382881,6.732810125657916,-0.8259994266234337
1761469573158455300,4.026455322265625,16.58320515936017,6.693463619175553,-2.7887372768208385
1761469573168409300,4.036409423828125,13.469905965811014,6.866874897232651,-3.5560172418415545
1761469573178364400,4.046364501953125,10.871971539092064,7.234161564704776,-3.336950712546706
1761469573188318500,4.056318359375,9.024390200251341,7.5417054188758135,-2.6683643459901214
1761469573198273500,4.0662734375,7.752627220159769,7.8546485017418854,-1.828923692382872
1761469573208228400,4.076228271484375,6.8327247903496025,7.974273244553804,-0.914950506491214
1761469573218182400,4.086182373046875,4.456911019799113,7.4114277646243565,0.6889008403107524
1761469573228137500,4.096137451171875,3.466419973024726,6.231770236778259,1.5809728677786885
1761469573238091500,4.106091552734375,3.817029061940312,5.722423122802376,1.753587442500144
1761469573248046300,4.11604638671875,4.435187848290801,5.489211163777113,1.8087503806650638
1761469573258001400,4.12600146484375,5.892538866445422,4.703999528485537,0.58081894351542
1761469573267955500,4.13595556640625,6.721040192887187,3.472247364003956,-0.5993206322265788
1761469573277910500,4.14591064453125,6.972813059997558,2.6806168015807867,-1.3758357873760163
1761469573287864300,4.1558642578125,6.920082755807042,2.438293899860978,-1.6951229785718023
1761469573297817900,4.16581787109375,7.197086510285735,2.544136493296921,-1.6622805932864546
1761469573307773000,4.17577294921875,7.120774254977703,2.3701208196058867,-1.5595686990916728
1761469573317727000,4.18572705078125,7.149305937457084,1.9680907555326819,-1.05802758269161
1761469573327682000,4.19568212890625,7.861608403882384,1.6436863674536346,0.29938378246054054
1761469573337636900,4.205636962890625,7.9169176186501975,0.5520370856672525,1.5635681439913809
1761469573347591000,4.2155908203125,6.867948663944006,-0.5539692227736115,2.0593501123428344
1761469573357545700,4.225545654296875,4.661234737992286,-1.4947507744833826,2.260353746202588
1761469573367499800,4.235499755859375,1.062415296256542,-3.1790663817062974,2.434896512507647
1761469573377455000,4.245455078125,-2.9565450357824563,-4.954367789494991,0.6078000720845536
1761469573387410000,4.255409912109375,-8.536806589794159,-5.17117689525187,-3.289899915297329
1761469573397364000,4.265364013671875,-16.776199089765548,-3.6710605020821094,-7.017948086753488
1761469573407318800,4.27531884765625,-23.038329393494127,-1.8729843679055571,-8.2760952139467
1761469573417273000,4.285273193359375,-23.787714513123035,-0.48081879249736664,-6.131181033825874
1761469573427228000,4.295227783203125,-21.171759276545046,-1.5941003526382147,-3.370468659006059
1761469573437183000,4.305182861328125,-19.797772770297527,-3.2377316289037466,-3.9604900228917597
1761469573447136800,4.31513671875,-21.688514036428927,-4.168161882469057,-6.98278851056695
1761469573457092000,4.325092041015625,-24.380148491108415,-4.093892531165481,-8.291430145722627
1761469573467046100,4.335046142578125,-25.377139421296118,-3.37433673261106,-6.908920725801587
1761469573477001000,4.3450009765625,-24.64870122810602,-2.718704540173709,-5.178025153711438
1761469573487577900,4.355577880859375,-24.66645666502714,-2.73020062443912,-5.096552739161253
1761469573497533000,4.365532958984375,-24.69612699614763,-2.7172818138942123,-4.994390003281832
1761469573507488000,4.375488037109375,-24.730169551002977,-2.679234115050733,-4.9023555704459545
1761469573517442000,4.385442138671875,-24.758902309012413,-2.6279899577647448,-4.844210547730326
1761469573527396900,4.39539697265625,-24.778154121971127,-2.5750743601351975,-4.822733167676628
1761469573537351000,4.405350830078125,-24.782400088977813,-2.5313708274871107,-4.846471770660579
1761469573547305700,4.4153056640625,-7.08465430932641,-4.001359793418645,-4.135860910584032
1761469573557261000,4.425260986328125,-3.442864325392246,-3.2160037812203166,-3.034903702226281
1761469573567214800,4.43521484375,-0.5144143342375755,-2.987427665302157,-1.6921730427250266
1761469573577170000,4.445169921875,1.8743483497351408,-2.2696496900752186,-0.5363439881034195
1761469573587124700,4.455124755859375,3.372771967512369,-1.2120146138325334,0.5595971456579864
1761469573597079000,4.4650791015625,4.054508030760288,-0.22280878456309436,0.9936262760601937
1761469573607033900,4.475033935546875,3.683953885924816,0.568633854072541,0.5592766815319657
1761469573616988000,4.48498779296875,4.010263815364241,1.4812123707354068,0.2640164087422192
1761469573626943000,4.49494287109375,5.163388725593686,1.8581188072070478,0.7033863156504928
1761469573636898000,4.50489794921875,6.463641887110471,2.4498643645368516,1.4316102815680205
1761469573646852000,4.51485205078125,7.94102622399032,3.464405126070976,2.3360402708277106
1761469573656807000,4.524806884765625,9.617270168438553,3.6845550666883584,3.1676363484144208
1761469573666761000,4.534760986328125,10.995319686341285,3.818847801800072,4.119698003551363
1761469573676715800,4.5447158203125,11.81932487040758,3.873749604810774,4.136432865253091
1761469573686671000,4.554671142578125,12.9334072255373,3.7651626811027525,3.6292113651290534
1761469573696625000,4.564625,13.984307440567015,3.8673385687246915,2.680746565440297
1761469573706580000,4.574580078125,14.726353303349017,4.153693504394591,1.6325526867598295
1761469573716534800,4.58453466796875,15.117650961005687,4.694121693071723,0.9516155918698758
1761469573726488800,4.59448876953125,15.444913076603411,4.705385137625038,0.9806749514851718
1761469573736444000,4.60444384765625,15.47703372348547,4.2813226899638765,1.651354710124433
1761469573746398000,4.61439794921875,15.014482847476005,3.8393355862945318,2.165441419842839
1761469573756353000,4.62435302734375,13.82637079501748,3.6816479470700023,1.843030543668568
1761469573766307800,4.634307861328125,12.115599142545461,3.915964067944884,0.9448843108534812
1761469573776262100,4.64426220703125,9.94805285937786,4.3323666485026475,-0.09323949777670204
1761469573786217000,4.654217041015625,7.9899957143425935,4.897943014700711,-1.314090548211336
1761469573796171000,4.6641708984375,6.454589396604895,4.531761678121984,-1.3803776685893534
1761469573806125800,4.674125732421875,5.052482711288333,4.336593326286971,-0.8821770947888493
1761469573816081200,4.6840810546875,4.921459207105636,4.766940261045098,-0.03380827117543667
1761469573826035000,4.694034912109375,4.884100659570097,4.041242306473851,1.432084913342446
1761469573835990000,4.703989990234375,5.523767513373494,3.6341891535416244,3.275864375682175
1761469573845944800,4.71394482421875,5.9287049893259995,3.8912949061125515,4.9920612680733205
1761469573855899000,4.72389892578125,6.582591507139802,3.4490549967259168,5.0996606420487165
1761469573865854000,4.73385400390625,7.732620204919576,3.446040325079858,4.421128635539114
1761469573875808000,4.74380810546875,8.544900464400648,3.0027146662831306,3.5436408676102755
1761469573885762800,4.7537626953125,8.94499576101899,2.1853867680236694,2.55055395912379
1761469573895718000,4.7637177734375,8.665468041020631,1.7017679695442318,1.0910877023808658
1761469573905672000,4.773671875,9.955562796616555,-0.16091799944788215,0.9718349346864968
1761469573915627000,4.783626953125,10.32060723811984,-1.7163693263486026,1.5646343119181692
1761469573925581000,4.7935810546875,9.703545599356293,-2.631105459436774,0.9457581710785626
1761469573935535900,4.803535888671875,5.194024686875939,-3.5472844848096368,-0.8779515129830687
1761469573945491000,4.813490966796875,-10.886084235596655,-6.479625638183951,-0.247961419063434
1761469573955444700,4.82344482421875,-23.812762445139885,-3.611160452392697,-6.623670536503195
1761469573965400000,4.833400146484375,-23.804067097508906,-3.6760897284209726,-6.562666909486055
1761469573975355000,4.84335498046875,-23.81882744426727,-3.653168287038803,-6.440515863066912
1761469573985309000,4.853308837890625,-23.843714048242568,-3.6101714413553476,-6.2768339518636465
1761469573995263700,4.863263671875,-23.86167056069374,-3.5867613396733997,-6.16127105166316
1761469574005218000,4.873218017578125,-23.86455809882879,-3.58981955820024,-6.132051971441507
1761469574015172900,4.8831728515625,-23.859587324678895,-3.605593758176267,-6.1458215535968534
1761469574025128000,4.8931279296875,-23.85525484843254,-3.635843642750382,-6.130104344505071
1761469574035082000,4.90308203125,-23.854719426381585,-3.6932518756240604,-6.043097092181444
1761469574045037000,4.913037109375,-23.857471355438232,-3.7750153820753094,-5.908535477000474
1761469574054991000,4.9229912109375,-23.85980476682186,-3.865200679913163,-5.78332738109827
1761469574064946000,4.93294580078125,-23.85767944523096,-3.9406627481326457,-5.71424799965322
1761469574074901000,4.94290087890625,-23.850618420803546,-3.987910821519792,-5.708303996556997
1761469574084854800,4.952854736328125,-23.84488309202194,-4.003401820640265,-5.727333691197633
1761469574094810000,4.96281005859375,-23.84633504439592,-3.9774379428222773,-5.745028337842226
1761469574104765000,4.972764892578125,-23.85820083875656,-3.9059085378766056,-5.748038625574112
1761469574114719000,4.982718994140625,-5.970042377364635,0.12510565844103694,2.2945701963201164
1761469574124673800,4.992673828125,-1.6841455113530157,1.7396847354844212,2.7995488859534263
1761469574134627800,5.0026279296875,1.2281336817234754,1.8148780697651206,3.8833518381536005
1761469574144583000,5.0125830078125,4.141185612738132,2.095686623354256,4.053009901157021
1761469574154538000,5.0225380859375,7.391431855300069,3.5124995871543883,1.8272196649439632
1761469574164491800,5.03249169921875,9.364973569715023,3.1085759644195434,1.1439930708773434
1761469574174446800,5.04244677734375,10.828389586997032,3.1448373643681404,0.9650802727945148
1761469574184401200,5.052401123046875,12.313671399128436,4.193713087832927,0.8311559326037764
1761469574194356000,5.06235595703125,13.974756352889537,4.692748651152849,1.415179517379403
1761469574204310800,5.072310791015625,15.557377426266669,5.026406605267525,2.4390201683089137
1761469574214264800,5.082264892578125,16.98039596670866,5.020832020005583,3.5108974126547574
1761469574224220200,5.09222021484375,17.972794892930985,4.87411877925992,4.350375767923891
1761469574234175000,5.102175048828125,18.15045915225744,4.749322771289944,4.678103162945806
1761469574244129000,5.11212890625,18.247337810254095,4.375931064940989,3.840039935171604
1761469574254083800,5.122083740234375,17.614647809725998,4.470734377968311,2.4306037837497887
1761469574264038000,5.132037841796875,15.999205832242964,3.8284213935703035,1.2239234436172992
1761469574273993000,5.141992919921875,14.189793772798776,3.7224560505375264,0.060229427774250506
1761469574283948000,5.151947998046875,12.3493962079823,4.281741792158782,-0.7327865976579487
1761469574293901800,5.16190185546875,10.220376931607722,4.6892917886972425,-0.7737143819823861
1761469574303857200,5.171857177734375,7.731564558386802,5.368581627836823,-0.17175722723975775
1761469574313811000,5.18181103515625,3.6284815895497795,5.690946034520864,0.9668871760860085
1761469574323766000,5.19176611328125,-2.8325995071619747,4.690513439446687,2.601660753765702
1761469574333720800,5.201720947265625,-0.8068231631189584,6.930327086445689,-0.014040508051216602
1761469574343675000,5.2116748046875,1.9385364520072936,5.192726463758945,0.28355675631873306
1761469574353630000,5.2216298828125,4.829360769122839,3.4418449192166327,0.8922971414607018
1761469574363585000,5.2315849609375,7.155550969326495,3.2937434389829634,0.3406712669428438
1761469574373539000,5.2415390625,8.59670897757113,2.5699042640209195,0.07405278594344854
1761469574383494000,5.251493896484375,9.794052968755365,1.9503455477446316,-0.4592798184495419
1761469574393448200,5.2614482421875,10.711798512792587,1.6660548511281608,-0.9756324272733181
1761469574403403000,5.271403076171875,11.450742902427912,1.7764298272967338,-1.202722250156477
1761469574413358000,5.281358154296875,11.596109989261626,1.7485051707997916,-1.1864390046797693
1761469574423312000,5.291311767578125,10.838975278419255,1.961219408458471,-0.9759368901126086
1761469574433267200,5.30126708984375,9.032592795929313,2.013160315836966,-0.4031572414722293
1761469574443221000,5.311220947265625,5.46851499722898,1.0724462764054536,0.9083744891017674
1761469574453176000,5.321176025390625,4.094504525583982,0.3137570295974612,0.3463812786201015
1761469574463131000,5.331130859375,5.234910239493846,-0.11629969004243612,-0.8766081355500965
1761469574473085000,5.3410849609375,3.1132693829327818,-3.1093066167816517,-0.5076458630159497
1761469574483040000,5.3510400390625,-1.9729069236427543,-3.102980628630519,-1.491355579087138
1761469574492995000,5.3609951171875,-9.841347219371794,-2.7697774325460194,-2.733088162574172
1761469574502949000,5.37094921875,-17.15600504707098,-1.489228650061041,-4.337504888173938
1761469574512904000,5.380904052734375,-17.127587930881976,-1.6020942740015685,-4.433206903606653
1761469574522858000,5.39085791015625,-17.110132938212157,-1.6701324758306144,-4.520763021984696
1761469574532813000,5.40081298828125,-17.098760480326412,-1.7240880840323864,-4.5535675594776865
1761469574542768000,5.41076806640625,-17.09186896724701,-1.7698102630265056,-4.526443697969615
1761469574552722000,5.420721923828125,-17.08914275715351,-1.8087405899234115,-4.447438258054852
1761469574562677000,5.430677001953125,-17.09018788229227,-1.8449696950376033,-4.329818133063614
1761469574572631000,5.440631103515625,-17.093201677155495,-1.887333795775473,-4.194733370791376
1761469574582586000,5.450586181640625,-17.09552456714511,-1.9498224006533622,-4.05540848673135
1761469574592541000,5.460541015625,-17.097341261178254,-2.026246591903269,-3.9237703577816485
1761469574602495000,5.470494873046875,-17.099802098333836,-2.092967135262489,-3.817881294855475
1761469574612450000,5.480449951171875,-17.10488510068655,-2.127898309520632,-3.7377243468180295
1761469574622405000,5.490405029296875,-17.115916197788714,-2.123240400712192,-3.659525839371979
1761469574632359000,5.50035888671875,-17.134142759352923,-2.0877891481027007,-3.5662858301386233
1761469574642314000,5.51031396484375,-17.156435255181787,-2.0302932369455693,-3.474778636047244
1761469574652268000,5.52026806640625,-17.177912927496433,-1.9561659244611858,-3.4116397505670784
1761469574662223000,5.53022314453125,-17.197127331054208,-1.8746220521099863,-3.375301193729043
1761469574672178000,5.540177978515625,-7.2894094046741715,-2.548631174367666,0.8777375049062073
1761469574682132000,5.550132080078125,-4.639642499387264,-1.6602194229729472,2.575304077237844
1761469574692087000,5.560087158203125,-3.1442052039444444,-0.28194910192638634,4.224371260946989
1761469574702040800,5.570040771484375,-1.655166669628024,1.0233062517918645,4.532803003868461
1761469574711996200,5.57999609375,-0.43126551090776916,1.5920235463641583,4.616515306299925
1761469574721951000,5.589950927734375,1.879099928176403,2.164210709004104,4.249082508355379
1761469574731905000,5.599905029296875,5.266713490989804,2.283599597233534,3.8256098432809114
1761469574741859800,5.60985986328125,8.638900352090596,2.3983469432674345,3.661125968044996
1761469574751814100,5.619814208984375,11.342487110370397,2.6971073331326245,3.4573876485243438
1761469574761769000,5.62976904296875,13.08963589812517,3.175448483470082,3.158633542269468
1761469574771724000,5.63972412109375,13.754616056883334,3.8349864511743186,2.5949820066541434
1761469574781678000,5.649677978515625,14.387721067953109,3.995605759936571,2.823150710815191
1761469574791633200,5.659633056640625,15.082573802405594,3.9636622231870886,2.9994308223068713
1761469574801588000,5.669587890625,15.534202302384376,3.665145432819426,2.99105929980278
1761469574811542000,5.6795419921875,15.784541337299347,3.6505274171411988,2.9001041866362094
1761469574821497000,5.6894970703125,15.810192495906351,4.276535163426399,2.6042361572116612
1761469574831451000,5.699450927734375,15.829458337390422,4.96324667699933,2.467710548481345
1761469574841406200,5.70940625,15.646269177162646,4.995049343973398,2.65617911041677
1761469574851361000,5.719361083984375,14.658803615689276,4.71970650844425,2.883161235141754
1761469574861315000,5.729315185546875,12.847024242591857,4.523907457490265,2.9484184279501435
1761469574871270000,5.739269775390625,9.342845909059047,3.956994874252379,3.6555604428723454
1761469574881224000,5.749223876953125,7.267911858615279,3.6504423692062495,3.2501836987197397
1761469574891179000,5.759178955078125,6.023009412920475,4.359295864221453,1.995242966352403
1761469574901134000,5.769134033203125,4.21799120452106,3.9081560245424507,1.3787183570750057
1761469574911087900,5.779087890625,2.7687621180236337,3.582310790005326,0.9225849468924104
1761469574921043000,5.78904296875,2.567894677764177,3.3840658072039482,0.4614977136947214
1761469574930997000,5.7989970703125,3.861304256996512,3.00113967205137,0.26678879606500266
1761469574940952000,5.8089521484375,5.842413191795349,2.6025223390311,0.28422873729616405
1761469574950907000,5.818906982421875,8.228210011699796,2.493524496434629,0.3518760401114821
1761469574960861000,5.82886083984375,10.078672458934783,2.330242398203909,0.691368983989954
1761469574970816000,5.83881591796875,10.889687228524684,2.0340154723390937,1.276117083647847
1761469574980771000,5.84877099609375,10.523488940811157,2.0484660224959255,1.8254006328232586
1761469574990725000,5.85872509765625,8.758305899193882,2.057930308672786,1.8709134068503974
1761469575000680000,5.868679931640625,6.641068246027827,1.8989160970196126,1.608886564490199
1761469575010634000,5.878634033203125,4.929795073774456,1.4704463543102144,1.1301247045226395
1761469575020589000,5.888589111328125,3.436545643764734,0.029591420665383335,0.34666780394390223
1761469575030544100,5.898544189453125,2.3007255040794607,-1.630842960232496,-0.05146452203840017
1761469575040498000,5.908497802734375,0.5287228455752134,-3.267930952334404,0.5191683968968689
1761469575050453000,5.918452880859375,-2.1609774261713026,-5.435428135663271,0.5654626766905189
1761469575060407000,5.928406982421875,-6.651681409978866,-7.6695216514497995,-2.2842298579610882
1761469575070362000,5.938362060546875,-14.006197785335779,-7.3258409004926675,-8.318606906461715
1761469575080317000,5.94831689453125,-21.656157242703436,-4.504313699226081,-15.047647450453042
1761469575090271000,5.95827099609375,-21.6130686270833,-4.676964222043752,-15.030989745640754
1761469575100226000,5.96822607421875,-21.539963643383977,-4.8315442506417625,-15.132320122349261
1761469575110179800,5.978179931640625,-21.46017640544176,-4.921162269985675,-15.322322469723224
1761469575120135200,5.98813525390625,-21.399760222923753,-4.93993594403863,-15.521804593104124
1761469575130090000,5.998090087890625,-21.370405533623693,-4.938119834527373,-15.635415774714946
1761469575140044000,6.0080439453125,-21.373690546643733,-4.982936881375313,-15.582240649366378
1761469575149998800,6.017998779296875,-21.409736842536926,-5.09368682833612,-15.359540147483347
1761469575159954200,6.0279541015625,-21.467985617887972,-5.243433737689257,-15.062923345518112
1761469575169908000,6.037907958984375,-21.521228547775745,-5.396401947176456,-14.814181224405765
1761469575179863000,6.047863037109375,-21.553664836478234,-5.530392484471202,-14.65588685145974
1761469575189816800,6.05781689453125,-21.57457902969122,-5.628914233499765,-14.555329212689399
1761469575199772200,6.067772216796875,-21.595046648180485,-5.679009513011574,-14.48107856608629
1761469575209727000,6.07772705078125,-21.62205623565912,-5.679236892026663,-14.412447512930632
1761469575219681000,6.087680908203125,-7.5230509872883555,-0.5525901895053684,1.7123706121012567
1761469575229635800,6.0976357421875,-4.857241878738999,-0.0015035364307463168,3.4579166408345103
1761469575239590000,6.10758984375,-2.428487960639596,0.6100852238796651,4.488234671084583
1761469575249545200,6.117545166015625,-0.14608195710480212,1.5190452577844262,4.692958494511246
1761469575259500000,6.1275,2.222928563171625,2.0654428762599824,4.843268298444151
1761469575269454000,6.1374541015625,5.138359498277306,2.7054601509362457,4.647517470546067
1761469575279409000,6.147408935546875,8.348489419028162,3.486775363311171,4.767300326529145
1761469575289363000,6.157363037109375,11.3882867385149,4.136968287304043,5.606522368949651
1761469575299318000,6.167318115234375,13.525576999628543,4.428040022362769,6.364404098767042
1761469575309273000,6.177273193359375,15.284913068783283,5.312965539076924,7.414454418969154
1761469575319227000,6.187226806640625,16.695801610970495,5.7371934064328665,8.081382204663752
1761469575329182200,6.19718212890625,16.840655487585067,5.7193374317467205,8.511863871717452
1761469575339137000,6.207136962890625,16.68064729645848,6.9668953603863715,9.31993674263656
1761469575349091000,6.217091064453125,16.271547440129517,6.956590239471197,8.955423631531
1761469575359046000,6.2270458984375,15.167136584186553,6.6673641322791575,8.314221823245287
1761469575369000000,6.237,13.46840023742318,6.187246035397052,7.218284196615219
1761469575378955000,6.246955078125,11.39445812062621,5.971528232008218,5.649934809696674
1761469575388910000,6.25691015625,8.651048470523953,5.527761551445722,4.429608294592797
1761469575398864100,6.266864013671875,6.902600875130295,5.4318005928158755,2.858763583727181
1761469575408819000,6.27681884765625,5.35148553160727,5.084944134432077,1.7198333491973579
1761469575418773200,6.286773193359375,4.331693571546674,4.504059139943123,0.9978482776693999
1761469575428728000,6.29672802734375,4.283461747819185,4.3293598679021,0.8808553446657955
1761469575438683100,6.30668310546875,4.867620649412274,4.061835304908454,1.293699648220092
1761469575448637000,6.316636962890625,5.183838223904371,3.9199247882694004,1.5972504872322082
1761469575458592000,6.326592041015625,5.480501787620782,4.134476762749254,1.5350773780442772
1761469575468546000,6.336546142578125,6.2059448906481265,4.277791300967335,1.4390133974313735
1761469575478501000,6.346501220703125,7.205055297207832,4.1686850295603275,1.5770952956929802
1761469575488456000,6.3564560546875,8.335380346608162,4.072545207232237,1.831555209930241
1761469575498410000,6.366409912109375,9.581298691347241,3.900533566839993,1.9675925967521963
1761469575508365000,6.376364990234375,10.439003315919637,3.4744618251830337,1.9130676642298696
1761469575518320000,6.386320068359375,10.422263778042792,3.3569708795294164,1.654177220199257
1761469575528274200,6.396274169921875,8.810622361886502,3.46755891392678,1.5845587634414433
1761469575538229000,6.40622900390625,6.3722197409540415,3.479508002656698,1.9118413373053074
1761469575548183000,6.41618310546875,3.76056132478714,3.1711051935687657,1.8179174374610185
1761469575558138000,6.42613818359375,2.556445647510886,2.4324270536541936,1.1892477054249495
1761469575568093200,6.43609326171875,4.805416414433718,0.46715924658775326,0.36404658957235514
1761469575578047000,6.446046875,7.187291092458367,-3.8206133501678705,-0.9143086283911019
1761469575588002000,6.456001953125,6.1697758451580995,-7.198854689002037,-2.261317622798681
1761469575597955800,6.465955810546875,1.3871359106779098,-7.908219348409771,-3.3830995925202965
1761469575607911200,6.4759111328125,-5.3943631348252294,-7.379279060691594,-5.657637639158964
1761469575617866000,6.485865966796875,-11.804467493015528,-6.443618505257367,-8.433120005348325
1761469575627820000,6.495820068359375,-16.73217874625325,-6.67918199584484,-9.506329667341708
1761469575637774800,6.50577490234375,-16.623057861799,-6.968046868509054,-9.671571667468548
1761469575647729200,6.515729248046875,-16.52374759274125,-7.257401570516825,-9.887578224670886
1761469575657684000,6.52568408203125,-16.4494256344676,-7.508634339401126,-10.076243185961246
1761469575667639000,6.53563916015625,-16.4002591602385,-7.705773699048161,-10.162033463710546
1761469575677593000,6.545593017578125,-16.36971438437104,-7.854440411949157,-10.109216065758465
1761469575687548200,6.555548095703125,-16.355733789813517,-7.9591183455199,-9.937601607990265
1761469575697503000,6.5655029296875,-16.358873841404915,-8.020240045958756,-9.700947399556636
1761469575707457000,6.57545703125,-16.376270381885767,-8.045871330821514,-9.45028453951478
1761469575717412000,6.585412109375,-16.40174501488209,-8.04822520047128,-9.222837135365605
1761469575727366000,6.595365966796875,-16.427746886622906,-8.043823166120053,-9.037585781911014
1761469575737321200,6.6053212890625,-16.447594911909103,-8.049176802107691,-8.901276446279883
1761469575747276000,6.615276123046875,-6.779012489384413,-1.2239194250293075,0.26985300594121214
1761469575757230000,6.62522998046875,-3.7711627983003853,-0.7365715230241417,0.7820363662563264
1761469575767185000,6.635184814453125,-1.6468074220836162,-0.30054259710684417,1.5085359925992785
1761469575777139000,6.645138916015625,-0.6863976253181695,0.507138936407119,2.025466255180538
1761469575787094000,6.655093994140625,-0.49161155079901214,1.3084503503672777,2.1808086464531717
1761469575797049000,6.665049072265625,-0.8597288238763808,1.7326085134878753,2.045890180658549
1761469575807003100,6.675003173828125,-2.3890286414325237,1.985174430672079,1.986828919880837
1761469575816958000,6.6849580078125,-3.6461335660964247,2.722602716656029,2.3608725142672657
1761469575826912300,6.694912353515625,-3.1191379827052352,2.6481898652285336,2.8990125920072196
1761469575836867000,6.7048671875,-1.4031120629668234,2.2010402642294764,3.2768665384620426
1761469575846822100,6.714822265625,1.204101648750901,1.861789458543807,3.1955256413370368
1761469575856776000,6.72477587890625,4.283962098556756,1.33409464084208,2.6820383588165044
1761469575866731300,6.734731201171875,7.1678750288486475,0.7479565481305122,1.8089162387512623
1761469575876686000,6.74468603515625,9.647143913176656,0.38877179244086146,1.1018147019699216
1761469575886640000,6.75464013671875,11.520073043763636,0.2761984294451773,0.947375397016853
1761469575896595000,6.764594970703125,12.929692004406451,0.4745211536578834,1.0542369582369924
1761469575906549000,6.774549072265625,13.626376630461214,0.6976667689599096,1.7135538305364548
1761469575916504000,6.784504150390625,13.753669131422042,1.1638766058683394,1.9366060684666035
1761469575926459100,6.794459228515625,13.381165021562575,1.642643288141489,2.015377991886437
1761469575936413000,6.804412841796875,12.211730781567097,1.4635720846265554,1.9926605486437676
1761469575946368000,6.814367919921875,10.977260298037528,1.5431345739021896,1.221598580866307
1761469575956322000,6.824322021484375,9.789605341696738,2.1748070679508147,0.6224161515340209
1761469575966277000,6.834277099609375,8.905079345694183,2.627370364561677,0.5659421307705342
1761469575976232000,6.84423193359375,8.198650739738344,3.191730048446357,0.9429134491719305
1761469575986186000,6.85418603515625,7.615241195207834,3.859353415189683,1.4904343725889921
1761469575996141000,6.86414111328125,7.207448329824209,3.91571096996665,2.763051339161396
1761469576006095000,6.87409521484375,7.580363358572125,3.779451318696141,3.0896032606631514
1761469576016050200,6.88405029296875,8.462461835166811,3.7103371581986546,2.4398110264256596
1761469576026005000,6.8940048828125,9.098348585909605,3.3155797154769298,1.7008987854942679
1761469576035959000,6.903958984375,9.121250738069415,2.7999942916333675,1.0643156499851494
1761469576045914000,6.9139140625,8.87520969260931,2.4762328776329756,0.7311787240698934
1761469576055869200,6.923869140625,8.189081531882286,2.277686866058409,1.2371549003079534
1761469576065823000,6.933822998046875,7.207277064910531,2.0593270237281915,1.8832083864085376
1761469576075778000,6.943778076171875,5.409935967010259,2.1064571698240933,1.805040712492168
1761469576085732000,6.953732177734375,2.869493944317102,1.6927056882970035,2.258576799657941
1761469576095687200,6.963687255859375,0.8863573030829429,0.7111584109567105,1.7345320288963615
1761469576105642000,6.97364208984375,0.08874971207678317,-0.29980799922198054,0.1787311579056084
1761469576115596000,6.983595947265625,0.020419687694311142,-1.9955869574844836,-1.2992075979866087
1761469576125551000,6.993551025390625,-0.9401935226887465,-5.1040387110024685,-2.7388261217042804
1761469576135505000,7.0035048828125,-4.845439797264337,-7.910320704603195,-4.189930062162876
1761469576145460200,7.013460205078125,-10.984400817441939,-8.049722161030768,-5.959152734559774
1761469576155415000,7.0234150390625,-16.932621823620796,-6.19364713461101,-8.304333466437459
1761469576165369000,7.033369140625,-16.897984225481746,-6.303128669071197,-8.360508942645788
1761469576175324000,7.043323974609375,-16.872140174651143,-6.373758787089586,-8.442648881193994
1761469576185279200,7.053279296875,-16.86140484562516,-6.391199166712164,-8.514231769892573
1761469576195233000,7.06323291015625,-16.86461387079954,-6.362489205056429,-8.560681970900296
1761469576205188000,7.07318798828125,-16.87718576760292,-6.311849735665321,-8.562693310722707
1761469576215142000,7.083141845703125,-16.89107868387699,-6.273965702950954,-8.51285580536425
1761469576225097000,7.093096923828125,-16.898504449963568,-6.2880082568287845,-8.39379746426344
1761469576235052000,7.103052001953125,-16.898345460009573,-6.363088924515247,-8.219668977847695
1761469576245006000,7.113006103515625,-16.894150930929182,-6.476833377116918,-8.035132494664191
1761469576254961000,7.1229609375,-16.88458815281391,-6.601078180944919,-7.902505646938085
1761469576264915000,7.1329150390625,-16.86547662510872,-6.717357120460272,-7.862009970420599
1761469576274870300,7.142870361328125,-16.838962712192533,-6.819816208937763,-7.897685679435729
1761469576284825000,7.1528251953125,-16.812796005278823,-6.900986425670981,-7.96792066065669
1761469576294779400,7.162779296875,-6.776992966255545,-2.940293281422555,-0.8260020569719374
1761469576304734200,7.172734130859375,-4.4277404548943045,-2.3388113429762423,1.3867824210651218
1761469576314689300,7.182689208984375,-1.6150193681567906,-1.5124372378215192,3.319762846380472
1761469576324643300,7.192643310546875,2.0838427485644817,0.6140377608977258,3.6748628169745206
1761469576334598400,7.202598388671875,5.501483200851083,2.123390476707369,3.7501971671611067
1761469576344552200,7.21255224609375,8.565417767250537,2.6848341270148754,3.0605969464093445
1761469576354507300,7.22250732421875,10.633428155910968,2.5283374511405823,3.519983805429935
1761469576364462300,7.23246240234375,13.061187217754124,3.064618749271333,2.699002937620878
1761469576374416400,7.24241650390625,14.923960280507803,3.750021518333256,1.4546077107958495
1761469576384371200,7.25237109375,16.178899551570414,3.7793954968556758,1.0260818539850414
1761469576394325200,7.2623251953125,17.185427540910243,4.132706830467283,0.7695365117758513
1761469576404280300,7.2722802734375,17.434585841608047,4.624794474345445,0.9049526979595423
1761469576414235400,7.2822353515625,16.652932775580883,4.947975458109378,1.0855402973867951
1761469576424189400,7.292189453125,15.060847123765944,5.3325090284585945,0.8741944254718721
1761469576434144300,7.302144287109375,12.805700883078574,6.0583460992395874,0.4265076488561928
1761469576444099000,7.31209912109375,10.443085616797209,6.504881075471639,0.3218699011653662
1761469576454053400,7.322053466796875,8.794532227829098,6.882911839798092,0.895020209749043
1761469576464008400,7.332008544921875,7.5269935874342915,6.867863908270001,1.9093584344483912
1761469576473962200,7.341962158203125,7.417135036355257,7.055686573517322,2.1368216206885875
1761469576483917300,7.351917236328125,7.804555560317635,7.251556351619959,2.1849302564278243
1761469576493872400,7.361872314453125,8.521736446434259,6.791674987080693,2.691884630048275
1761469576503826400,7.371826416015625,9.195064746820925,5.996582009243965,3.0926337144002316
1761469576513781200,7.38178125,9.905560456085205,5.52080924808979,3.4734494332700967
1761469576523735300,7.3917353515625,10.525964975535869,4.915366150927543,4.000364644901454
1761469576533690000,7.401690185546875,11.047628550249337,3.9646567871823906,3.8803403813779354
1761469576543645400,7.4116455078125,11.185163043761253,3.03588482221812,3.1849852503612635
1761469576553599200,7.42159912109375,10.847615680992602,2.0035729878023267,2.5570102956563234
1761469576563554300,7.43155419921875,9.976379959195851,0.8435828679785132,2.064720114943385
1761469576573509000,7.441509033203125,7.440244693785905,-0.32576632408201694,1.5374574050486087
1761469576583463200,7.451463134765625,4.343231449127197,-1.383190972444415,0.7726834314994514
1761469576593418200,7.461418212890625,2.033748638096452,-2.144673357102275,0.09344254606813192
1761469576603372300,7.471372314453125,-0.3434264839351177,-3.0657854549631476,0.4496636296465993
1761469576613327400,7.481327392578125,-3.082563863545656,-3.6849405588746067,1.5921258376948535
1761469576623282200,7.4912822265625,-5.032349439319968,-4.007824313257634,2.1382650974951685
1761469576633236500,7.501236572265625,-5.989050444695353,-5.019369546237588,1.414016026557982
1761469576643191300,7.51119140625,-7.387238495263457,-5.794375429335236,0.5828782141327857
1761469576653145300,7.521145263671875,-9.990606052947044,-7.972859870624542,-1.4707238560773432
1761469576663100200,7.53110009765625,-13.987722217446565,-9.44075332558155,-4.195306202243268
1761469576673055500,7.541055419921875,-14.015114082241057,-9.50018868036866,-3.9902988857001063
1761469576683009300,7.55100927734375,-14.038689019095896,-9.526275307783484,-3.8556367327541112
1761469576692964400,7.56096435546875,-14.04394387088418,-9.477436750334501,-3.881405380260944
1761469576702919200,7.570919189453125,-14.03191090326309,-9.348858885738252,-4.080462556228041
1761469576712873200,7.580873291015625,-14.022548031634091,-9.178348589819668,-4.35995578943491
1761469576722828300,7.590828369140625,-14.028707723307608,-9.015828123611211,-4.595866486024856
1761469576732782300,7.6007822265625,-8.822809058764577,-3.414342287524044,-2.3797414653882383
1761469576742737400,7.6107373046875,-6.614184330755472,-4.140686138783395,-0.1166499647848308
1761469576752692200,7.620692138671875,-6.091318979036807,-4.0926776024177665,1.304260059070587
1761469576762646300,7.630646240234375,-8.540247085636853,-3.623609599599242,1.0224390405032784
1761469576772601300,7.640601318359375,-12.118988200461864,-1.7162062447413802,-0.16024579927474258
1761469576782555400,7.650555419921875,-15.10679288238287,-0.49564796670824285,-1.3057432833656668
1761469576792510200,7.66051025390625,-15.102647453141211,-0.5374772299170494,-1.2575722499147057
1761469576802465300,7.67046533203125,-15.104159026747942,-0.5327803042724728,-1.2560295505173504
1761469576812419300,7.68041943359375,-15.107403123235702,-0.4983431971415877,-1.2966802714660763
1761469576822374400,7.69037451171875,-5.910863627687096,-0.1415776314228773,-1.65190547587499
1761469576832329200,7.7003291015625,-2.375842412123084,-0.358769306756556,-0.9590722645513713
1761469576842283300,7.710283203125,0.16105039365589618,-0.44194443357139823,-0.3764329006757587
1761469576852238300,7.72023828125,2.4072031805485485,0.17561580236405133,-0.22953275905586779
1761469576862192400,7.7301923828125,4.832264089348912,0.9805071206375956,0.3484473077718168
1761469576872147200,7.740147216796875,6.228413912087679,0.8335004499033093,1.1494332891698926
1761469576882102300,7.750102294921875,6.13848112770617,0.7049205394804477,1.5462423306591808
1761469576892056300,7.760056396484375,6.746981274351477,2.751778542257845,2.223473045311868
1761469576902011400,7.770011474609375,7.15339759068489,3.4440397989124056,2.4752877057373524
1761469576911965400,7.77996533203125,7.458487037441134,3.320169381354749,2.4791847131758926
1761469576921920300,7.789920166015625,9.256603795889019,4.1153120435521,1.6384382376670836
1761469576931875300,7.799875244140625,9.901550635921955,3.563125612542033,3.0218904913961886
1761469576941829000,7.8098291015625,10.179095657670498,2.5588430640414357,4.161161940579116
1761469576951784400,7.819784423828125,11.516097125869988,2.952029896445572,3.319768107077479
1761469576961739300,7.8297392578125,12.746902657151221,2.95158682885319,2.022755827178061
1761469576971693300,7.839693359375,13.018130166316032,2.468598437231779,1.2577556436575947
1761469576981648100,7.849648193359375,12.56118719331622,2.505700964179635,0.6839285317908972
1761469576991602400,7.8596025390625,11.823031908231973,2.762071972735226,0.42324324023276566
1761469577001557200,7.86955712890625,11.308801113867759,3.2668945950239894,0.4456532249614596
1761469577011512300,7.87951220703125,10.785979016768932,3.366292834626138,0.8929523904990404
1761469577021466400,7.88946630859375,10.245216773831844,3.4999788360163566,1.4942475011363625
1761469577031421400,7.89942138671875,9.880786080312728,4.034534917789697,1.9900249394431708
1761469577041376300,7.909376220703125,9.25712752750218,4.395595550353825,2.4984821188420057
1761469577051330300,7.919330322265625,7.376087571173906,4.282366938319802,3.2519217745587228
1761469577061285400,7.929285400390625,5.599367821019888,4.653854856874048,2.7926553270474073
1761469577071239200,7.9392392578125,4.673870932203531,4.682372218567132,1.7218202852308748
1761469577081194500,7.949194580078125,4.594568847429752,3.6988504262834785,0.945164589099586
1761469577091149300,7.9591494140625,5.598854610800743,3.0423180701360106,0.28017564424676816
1761469577101103400,7.969103271484375,5.900763089433312,2.365241230870783,-0.09263524827323853
1761469577111058200,7.97905810546875,5.289871079215407,1.5971633934706448,-0.4018886097759008
1761469577121012200,7.98901220703125,4.1190895162642,0.9618427521780133,-0.7593223570797591
1761469577130967300,7.99896728515625,2.2256512661337853,0.19658961680978534,0.1715442055435851
1761469577142788400,8.010788330078125,0.9343862977147102,-0.13783932167738674,1.5109825089685618
1761469577152742400,8.020742431640626,0.2933265282481909,0.24062661919593809,3.131177087806165
1761469577162697200,8.030697265625,-1.1054027895897627,-0.016702420736849306,4.12420788219124
1761469577172651300,8.0406513671875,-3.9020407565325494,-0.844551128488779,3.058464318294823
1761469577182606300,8.0506064453125,-7.2792398928374045,-1.5867001593843102,0.37497824488803744
1761469577192561400,8.0605615234375,-10.499717604601383,-2.1166782657176255,-1.8636909082509576
1761469577202515500,8.070515380859375,-11.62926173275709,-2.0047332637533546,-2.682712312555313
1761469577212470300,8.08047021484375,-9.974917485427856,-1.441194833123684,-2.112992270681262
1761469577222425300,8.09042529296875,-8.22349818074703,-1.1116577583312988,-0.6648039254084229
1761469577232379100,8.100379150390625,-9.176792592549324,-0.9356155472487211,0.1433997688161209
1761469577242334500,8.11033447265625,-11.604908212745189,-0.37034926991313694,-0.24070724668409674
1761469577252288300,8.120288330078125,-13.634911819094418,-0.16806553311496972,-1.3305712890215218
1761469577262243300,8.130243408203125,-14.174487482595444,-0.8187199371397494,-2.3583263369157907
1761469577272198100,8.1401982421875,-12.393348746955395,-3.181150494503975,-2.1614687168195843
1761469577282152400,8.15015234375,-9.545373976007104,-4.810717443451285,-2.0930749795511363
1761469577292107300,8.160107177734375,-7.286276367345452,-6.532607286787033,-1.4533056882865727
1761469577302060500,8.170060546875,-6.717414403605461,-7.983142779707908,-0.5465143401904031
1761469577312015600,8.180015625,-7.5832713549733155,-7.793271365237236,-0.5392860694373026
1761469577321970700,8.189970703125,-8.769563790789245,-6.968922482299805,-1.344837276391685
1761469577331924700,8.1999248046875,-10.541621978873014,-6.124966397094727,-1.5158080294288694
1761469577341879600,8.209879638671875,-11.647480111014842,-4.6054564444079995,-1.2053677962291984
1761469577351834600,8.219834716796875,-11.39115674099326,-3.4095655746415257,-0.9382122857436537
1761469577361788700,8.22978857421875,-9.973708694159985,-2.442333822901547,-0.6583145633891224
1761469577371743700,8.23974365234375,-7.331241882753372,-1.6289377111330627,-0.453484137782827
1761469577381697500,8.249697509765625,-3.934344358766079,-1.3428946178913115,-0.9377999786157161
1761469577391652600,8.259652587890624,-0.7127589780211449,-0.6286407251372933,-1.8038341131813822
1761469577401607700,8.269607666015625,1.6316554456591605,0.12366788072288036,-2.110543854615837
1761469577411561700,8.279561767578125,3.0375457411676643,0.9644345222368835,-2.2732423077397046
1761469577421516500,8.2895166015625,3.815334532982111,1.8613883303970098,-2.5630785096541047
1761469577431470600,8.299470703125,4.74332616122365,2.558819975426793,-2.6714132121667262
1761469577441425700,8.30942578125,5.706497823917865,3.049062868221104,-2.635167886570096
1761469577452002600,8.32000244140625,6.363841788709164,3.615170272555947,-2.1410893611356614
1761469577461957600,8.32995751953125,7.329507606306672,3.6199884864926335,-1.521613646967709
