time,seconds_elapsed,z,y,x
1761469569182212600,0.050212646484375,0.050419025123119354,-0.581158459186554,0.3082999289035797
1761469569192167400,0.06016748046875,0.060018476098775864,-0.6109793186187744,0.25757306814193726
1761469569202121700,0.070121826171875,0.05147479102015495,-0.5583733320236206,0.17942018806934357
1761469569212076500,0.08007666015625,0.030725164338946342,-0.43543580174446106,0.11200878024101257
1761469569222031600,0.090031494140625,0.004070384427905083,-0.2830340266227722,0.060278743505477905
1761469569231985700,0.099985595703125,-0.02912970632314682,-0.12905733287334442,0.020418833941221237
1761469569241940700,0.109940673828125,-0.06085860729217529,0.0054256427101790905,0.005252664443105459
1761469569251894800,0.119894775390625,-0.0824754536151886,0.10619203746318817,0.007298600859940052
1761469569261849600,0.129849609375,-0.08874985575675964,0.17358359694480896,0.00680405180901289
1761469569271803600,0.1398037109375,-0.07190471887588501,0.20548449456691742,-0.01638413965702057
1761469569281759500,0.149759521484375,-0.0283399298787117,0.20780836045742035,-0.0518217571079731
1761469569291714300,0.15971435546875,0.029680604115128517,0.18644289672374725,-0.08983805775642395
1761469569301668400,0.16966845703125,0.09046672284603119,0.16262012720108032,-0.1208156868815422
1761469569311623700,0.179623779296875,0.14818666875362396,0.13605576753616333,-0.13958977162837982
1761469569321577500,0.189577392578125,0.18927177786827087,0.09698747098445892,-0.14031973481178284
1761469569331532500,0.199532470703125,0.2075129896402359,0.05791442096233368,-0.12898953258991241
1761469569341487400,0.2094873046875,0.20107080042362213,0.021372923627495766,-0.1078413724899292
1761469569351441700,0.219441650390625,0.1728808432817459,0.01157227624207735,-0.0879664197564125
1761469569361396500,0.229396484375,0.13390788435935974,0.014351816847920418,-0.0653388723731041
1761469569371350500,0.2393505859375,0.08712726831436157,0.025733262300491333,-0.04771018773317337
1761469569381305300,0.249305419921875,0.03604225069284439,0.026474151760339737,-0.02706802450120449
1761469569391260700,0.2592607421875,0.0011653805850073695,0.03651522472500801,0.009220072068274021
1761469569401214700,0.269214599609375,-0.009955181740224361,0.03097052127122879,0.05538996309041977
1761469569411169500,0.27916943359375,0.011419134214520454,0.021873602643609047,0.09929851442575455
1761469569421123600,0.28912353515625,0.056138403713703156,0.0014442272949963808,0.11827513575553894
1761469569431078400,0.299078369140625,0.11556127667427063,-0.014457502402365208,0.10947952419519424
1761469569441033700,0.30903369140625,0.1673317849636078,-0.014459632337093353,0.0679485872387886
1761469569450987500,0.318987548828125,0.20768791437149048,0.011615169234573841,0.020645322278141975
1761469569460942600,0.328942626953125,0.23078444600105286,0.06115395948290825,-0.012445254251360893
1761469569470896400,0.338896484375,0.2295357584953308,0.13845454156398773,-0.021198341622948647
1761469569480851500,0.3488515625,0.21680238842964172,0.21124166250228882,-0.0010877472814172506
1761469569490806500,0.358806640625,0.19735519587993622,0.2650732100009918,0.041242148727178574
1761469569500760600,0.368760498046875,0.18383832275867462,0.2866211235523224,0.0964827612042427
1761469569510715400,0.37871533203125,0.17795857787132263,0.2691067159175873,0.1458534151315689
1761469569520669400,0.38866943359375,0.17951199412345886,0.2130650281906128,0.1782742142677307
1761469569530624500,0.39862451171875,0.18146739900112152,0.13131661713123322,0.18911132216453552
1761469569540579600,0.40857958984375,0.17169465124607086,0.038838885724544525,0.1919478476047516
1761469569550533600,0.41853369140625,0.1561332643032074,-0.048748426139354706,0.1737561672925949
1761469569560488400,0.428488525390625,0.12863026559352875,-0.11068475991487503,0.13894438743591309
1761469569570442500,0.4384423828125,0.08906266838312149,-0.13557155430316925,0.09042607992887497
1761469569580397600,0.4483974609375,0.048647865653038025,-0.14137963950634003,0.02941811829805374
1761469569590352600,0.4583525390625,0.006531646475195885,-0.14904488623142242,-0.02880808524787426
1761469569600306400,0.468306396484375,-0.02653682418167591,-0.14863023161888123,-0.06755974143743515
1761469569610261500,0.478261474609375,-0.05549396574497223,-0.1267375499010086,-0.07522869110107422
1761469569620215300,0.48821533203125,-0.07635104656219482,-0.0801231861114502,-0.06610097736120224
1761469569630170600,0.498170654296875,-0.08856029808521271,-0.011421249248087406,-0.05136482045054436
1761469569640125400,0.50812548828125,-0.09816738963127136,0.04200921580195427,-0.035889193415641785
1761469569650079500,0.51807958984375,-0.09523427486419678,0.06225169077515602,-0.021519513800740242
1761469569660034300,0.528034423828125,-0.08585595339536667,0.0414433516561985,-0.0014611163642257452
1761469569669988600,0.537988525390625,-0.0761031061410904,-0.0033687527757138014,0.014883624389767647
1761469569679943700,0.547943603515625,-0.05995529145002365,-0.05735822021961212,0.03201254457235336
1761469569689898500,0.5578984375,-0.03124360926449299,-0.10752849280834198,0.04681435972452164
1761469569699852500,0.5678525390625,-0.005728661548346281,-0.1563682109117508,0.06417284160852432
1761469569709807400,0.577807373046875,0.019369347020983696,-0.1924097090959549,0.08300738781690598
1761469569719761700,0.58776171875,0.0388873890042305,-0.20626533031463623,0.09767821431159973
1761469569729716500,0.597716552734375,0.04622862860560417,-0.19387337565422058,0.1060895249247551
1761469569739671600,0.607671630859375,0.04434977099299431,-0.15676303207874298,0.10228919237852097
1761469569749625300,0.617625244140625,0.030881762504577637,-0.09734872728586197,0.08427204191684723
1761469569759580700,0.62758056640625,0.012812480330467224,-0.03798713535070419,0.0519535169005394
1761469569769534500,0.637534423828125,-0.007749021984636784,0.031221020966768265,0.006855901330709457
1761469569779489500,0.647489501953125,-0.021426750347018242,0.09525406360626221,-0.04362591728568077
1761469569789444400,0.6574443359375,-0.01795111410319805,0.13952219486236572,-0.08298879116773605
1761469569799398400,0.6673984375,0.000052919378504157066,0.1475265920162201,-0.10683553665876389
1761469569809353500,0.677353515625,0.02332582324743271,0.11430346965789795,-0.11356812715530396
1761469569819307500,0.6873076171875,0.04475574567914009,0.05750197544693947,-0.10291894525289536
1761469569829262600,0.6972626953125,0.05773775279521942,0.003847244894132018,-0.0712236613035202
1761469569839216400,0.70721630859375,0.06497329473495483,-0.03731323778629303,-0.03339052572846413
1761469569849171500,0.71717138671875,0.06717167794704437,-0.06139450520277023,0.001591482083313167
1761469569859126500,0.72712646484375,0.06869527697563171,-0.05994601547718048,0.035238657146692276
1761469569869080600,0.73708056640625,0.07114407420158386,-0.030730372294783592,0.05798022449016571
1761469569879035400,0.747035400390625,0.07242664694786072,0.005934163928031921,0.06271851807832718
1761469569888989400,0.756989501953125,0.07772048562765121,0.04137907177209854,0.055384520441293716
1761469569898944500,0.766944580078125,0.0769851878285408,0.06087261065840721,0.037454258650541306
1761469569908899600,0.776899658203125,0.07019518315792084,0.07174966484308243,0.021003829315304756
1761469569918853600,0.786853515625,0.056817058473825455,0.07200159877538681,0.007008652202785015
1761469569928808400,0.796808349609375,0.03746772184967995,0.05103147774934769,-0.007133151404559612
1761469569938762500,0.806762451171875,0.02467310056090355,0.024716250598430634,-0.02056986279785633
1761469569948717600,0.816717529296875,0.018889836966991425,-0.0014838193310424685,-0.027351761236786842
1761469569958672600,0.826672607421875,0.02019558474421501,-0.0176974106580019,-0.02794324979186058
1761469569968626400,0.83662646484375,0.023694094270467758,-0.018234679475426674,-0.023995501920580864
1761469569978581500,0.84658154296875,0.0241865124553442,-0.012598099187016487,-0.012860825285315514
1761469569988535300,0.856535400390625,0.025316044688224792,-0.002585036214441061,-0.0014186971820890903
1761469569998490600,0.86649072265625,0.02500365674495697,0.00680606858804822,0.013166369870305061
1761469570008445400,0.876445556640625,0.028996214270591736,0.010770712979137897,0.02993919886648655
1761469570018399500,0.8863994140625,0.030684391036629677,0.008852704428136349,0.03703439235687256
1761469570028354300,0.896354248046875,0.025307469069957733,0.0010347282513976097,0.028172191232442856
1761469570038308600,0.90630859375,0.017205066978931427,-0.007572075817734003,0.005530261900275946
1761469570048263400,0.916263427734375,0.0008506188169121742,-0.025860635563731194,-0.019283810630440712
1761469570058218500,0.926218505859375,-0.01440103817731142,-0.04943706840276718,-0.03923967480659485
1761469570068172500,0.936172607421875,-0.021419890224933624,-0.07627581804990768,-0.05219881981611252
1761469570078127600,0.946127685546875,-0.018716247752308846,-0.10943856835365295,-0.06003810092806816
1761469570088081700,0.95608154296875,-0.012331229634582996,-0.13004669547080994,-0.06074469909071922
1761469570098036500,0.966036376953125,-0.007902393117547035,-0.1140911653637886,-0.04733222350478172
1761469570107991600,0.975991455078125,-0.002812559250742197,-0.0819137841463089,-0.02890181541442871
1761469570117945300,0.9859453125,0.005197163671255112,-0.05389147251844406,-0.010493514128029346
1761469570127900700,0.995900634765625,0.01461025606840849,-0.03948264941573143,0.00837822537869215
1761469570137854500,1.0058544921875,0.025153176859021187,-0.05296836420893669,0.01972462236881256
1761469570147809500,1.0158095703125,0.0400671660900116,-0.08262036740779877,0.02178557775914669
1761469570157764400,1.025764404296875,0.05223914608359337,-0.11226880550384521,0.015455243177711964
1761469570167718400,1.035718505859375,0.06188764050602913,-0.13004328310489655,0.006657687481492758
1761469570177673500,1.045673583984375,0.06287168711423874,-0.13901840150356293,-0.0011432438623160124
1761469570187627500,1.05562744140625,0.0523272342979908,-0.14803151786327362,-0.021064607426524162
1761469570197582600,1.06558251953125,0.03576290234923363,-0.14585065841674805,-0.045499108731746674
1761469570207537400,1.075537353515625,0.017924703657627106,-0.13239532709121704,-0.0699232667684555
1761469570217491700,1.08549169921875,0.005895738489925861,-0.1111568883061409,-0.09083707630634308
1761469570227446500,1.095446533203125,-0.001454965677112341,-0.08677788823843002,-0.10073884576559067
1761469570237400600,1.105400634765625,-0.003442749148234725,-0.05505352094769478,-0.09196240454912186
1761469570247355400,1.11535546875,-0.00405069999396801,-0.02386665903031826,-0.07346813380718231
1761469570257310700,1.125310791015625,-0.005618236493319273,-0.017443381249904633,-0.05597382038831711
1761469570267264500,1.135264404296875,-0.004730396904051304,-0.03058033064007759,-0.050515785813331604
1761469570277219600,1.145219482421875,-0.0007641511037945747,-0.05175592005252838,-0.04182509332895279
1761469570287173600,1.155173583984375,0.004135479219257832,-0.06789308786392212,-0.0211414135992527
1761469570297128700,1.165128662109375,0.0011117260437458754,-0.06548240035772324,0.005550652276724577
1761469570307082800,1.175082763671875,-0.007797612808644772,-0.06428024917840958,0.027410943061113358
1761469570317037600,1.18503759765625,-0.012151082046329975,-0.07571852207183838,0.04182104393839836
1761469570326992600,1.19499267578125,-0.007312891073524952,-0.0870412141084671,0.04630076140165329
1761469570336946700,1.20494677734375,-0.0038928594440221786,-0.08866148442029953,0.0504547581076622
1761469570346901800,1.21490185546875,-0.004931465722620487,-0.07760589569807053,0.06095987558364868
1761469570356855600,1.22485546875,-0.0022898761089891195,-0.06036512181162834,0.06981302797794342
1761469570366811000,1.234810791015625,0.00030467077158391476,-0.04167448729276657,0.07623472064733505
1761469570376765700,1.244765625,-0.008034219034016132,-0.03083941526710987,0.0780310183763504
1761469570386719700,1.2547197265625,-0.011781116016209126,-0.03161363676190376,0.07566505670547485
1761469570396674600,1.264674560546875,-0.02110857143998146,-0.03669148311018944,0.06439162790775299
1761469570406628600,1.274628662109375,-0.02870144136250019,-0.05093643069267273,0.03483640030026436
1761469570416583700,1.284583740234375,-0.036917027086019516,-0.05299532040953636,-0.0003191872965544462
1761469570426538800,1.294538818359375,-0.04143946245312691,-0.040018316358327866,-0.02571858838200569
1761469570436492800,1.304492919921875,-0.04614313691854477,-0.015414437279105186,-0.038192033767700195
1761469570446447600,1.314447509765625,-0.044445350766181946,0.006911817472428083,-0.03946349397301674
1761469570456401700,1.324401611328125,-0.03663323447108269,0.008157111704349518,-0.035656772553920746
1761469570466356700,1.334356689453125,-0.023176489397883415,-0.009029223583638668,-0.03023047186434269
1761469570476311800,1.344311767578125,-0.010674012824892998,-0.029279367998242378,-0.017978597432374954
1761469570486265600,1.354265625,-0.0006268441793508828,-0.045933306217193604,-0.0024317498318850994
1761469570496220700,1.364220703125,0.0057101477868855,-0.04747873917222023,0.014125654473900795
1761469570506174500,1.374174560546875,0.00842132605612278,-0.038007453083992004,0.027339505031704903
1761469570516129800,1.3841298828125,0.00300552137196064,-0.041509244590997696,0.029897738248109818
1761469570526084600,1.394084716796875,-0.010297933593392372,-0.06391134858131409,0.01902228780090809
1761469570536038700,1.40403857421875,-0.02220732346177101,-0.07664552330970764,0.0036047142930328846
1761469570545993500,1.413993408203125,-0.025925155729055405,-0.06007011607289314,-0.011418020352721214
1761469570555947800,1.42394775390625,-0.024485982954502106,-0.03918081521987915,-0.0252214502543211
1761469570565902600,1.433902587890625,-0.016324490308761597,-0.025757785886526108,-0.0369570329785347
1761469570575857700,1.443857666015625,-0.003855570452287793,-0.015186367556452751,-0.04718064144253731
1761469570585811700,1.453811767578125,0.010311204940080643,-0.02074204385280609,-0.051235631108284
1761469570595766800,1.463766845703125,0.021396879106760025,-0.030880698934197426,-0.04568027704954147
1761469570605720800,1.473720947265625,0.03238416835665703,-0.035723764449357986,-0.025994058698415756
1761469570615675600,1.483675537109375,0.03492722287774086,-0.03454877808690071,-0.0017899207305163145
1761469570625630700,1.493630615234375,0.029982395470142365,-0.04436313733458519,0.01782851107418537
1761469570635584500,1.50358447265625,0.018239719793200493,-0.05581047013401985,0.025171378627419472
1761469570645539800,1.513539794921875,0.009206767193973064,-0.06653473526239395,0.01943407952785492
1761469570655493600,1.52349365234375,-0.001926044817082584,-0.061724793165922165,0.007200583815574646
1761469570665448700,1.53344873046875,-0.006444492377340794,-0.045990560203790665,-0.006122078280895948
1761469570675403500,1.543403564453125,-0.006382973864674568,-0.021634353324770927,-0.01872682012617588
1761469570685357600,1.553357666015625,-0.008560072630643845,0.00045384184340946376,-0.030630705878138542
1761469570695312600,1.563312744140625,-0.010353445075452328,0.01603972725570202,-0.04439898207783699
1761469570705266700,1.5732666015625,-0.00902361050248146,0.02013188600540161,-0.05615023151040077
1761469570715221800,1.5832216796875,-0.013081468641757965,0.003059159964323044,-0.06540444493293762
1761469570725175600,1.593175537109375,-0.021521974354982376,-0.03200406953692436,-0.07113055884838104
1761469570735131000,1.603130859375,-0.03325958922505379,-0.0625942051410675,-0.07398785650730133
1761469570745085700,1.613085693359375,-0.04486573860049248,-0.06430283188819885,-0.07906272262334824
1761469570755039700,1.623039794921875,-0.050329744815826416,-0.040077656507492065,-0.09361343830823898
1761469570764994600,1.63299462890625,-0.054012756794691086,0.0014302328927442431,-0.11116538196802139
1761469570774948600,1.642948486328125,-0.05435337498784065,0.0368843637406826,-0.13662919402122498
1761469570784903700,1.652903564453125,-0.05570207163691521,0.06469520181417465,-0.15919016301631927
1761469570794858800,1.662858642578125,-0.051895879209041595,0.08288166671991348,-0.1763814091682434
1761469570804812500,1.6728125,-0.041620247066020966,0.08622022718191147,-0.18925750255584717
1761469570814767600,1.682767578125,-0.0295404102653265,0.07543682307004929,-0.19563044607639313
1761469570824721700,1.6927216796875,-0.01525053195655346,0.06837186217308044,-0.19666150212287903
1761469570834676700,1.7026767578125,-0.010253110900521278,0.06908159703016281,-0.18739449977874756
1761469570844631600,1.712631591796875,-0.007839483208954334,0.0647796243429184,-0.18014928698539734
1761469570854585600,1.722585693359375,-0.014597786590456963,0.057132359594106674,-0.18226861953735352
1761469570864540700,1.732540771484375,-0.029090091586112976,0.05238725244998932,-0.17938004434108734
1761469570874494700,1.74249462890625,-0.047922637313604355,0.061990611255168915,-0.1765507012605667
1761469570884449800,1.75244970703125,-0.05962802842259407,0.08753059059381485,-0.17341722548007965
1761469570894404600,1.762404541015625,-0.052732571959495544,0.093636155128479,-0.1764383167028427
1761469570904358700,1.772358642578125,-0.03005651757121086,0.09833364188671112,-0.16555139422416687
1761469570914313700,1.782313720703125,0.008817378431558609,0.15971657633781433,-0.133713036775589
1761469570924267800,1.792267822265625,0.07204581797122955,0.2736409604549408,-0.10251304507255554
1761469570934222600,1.80222265625,0.21355846524238586,0.39190101623535156,-0.07335862517356873
1761469570944177700,1.812177734375,0.4016146659851074,0.5429244637489319,-0.019824214279651642
1761469570954131700,1.822131591796875,0.6094200611114502,0.7311931848526001,0.0615694485604763
1761469570964086800,1.832086669921875,0.8290291428565979,0.786432147026062,0.10284889489412308
1761469570974040800,1.842040771484375,1.0103545188903809,0.5871139764785767,0.05334499850869179
1761469570983995600,1.85199560546875,1.177570104598999,0.33171743154525757,-0.018718188628554344
1761469570993950700,1.86195068359375,1.3731797933578491,-0.11592426151037216,-0.28264036774635315
1761469571003904500,1.871904541015625,1.7576885223388672,-0.2738809883594513,-0.6464070081710815
1761469571013859800,1.88185986328125,2.4027514457702637,-0.020192012190818787,-1.0784173011779785
1761469571023813600,1.891813720703125,3.1681060791015625,0.145633727312088,-1.4539272785186768
1761469571033768700,1.901768798828125,3.8306212425231934,0.30080655217170715,-1.6741992235183716
1761469571043723500,1.9117236328125,4.181431770324707,0.46397867798805237,-1.7193418741226196
1761469571053677800,1.921677734375,4.086754322052002,0.6038933992385864,-1.5171715021133423
1761469571063632600,1.931632568359375,3.4149956703186035,0.4097929298877716,-0.4994524121284485
1761469571073586700,1.941586669921875,1.9173170328140259,0.9215222001075745,1.1536959409713745
1761469571083541500,1.95154150390625,0.7329208254814148,-0.07262273877859116,1.970382809638977
1761469571093496800,1.961496826171875,0.059471309185028076,-1.0936943292617798,2.0830862522125244
1761469571103451000,1.971450927734375,-0.3094498813152313,-1.2142595052719116,2.0997860431671143
1761469571113405700,1.98140576171875,-0.5445833206176758,-1.1262321472167969,2.0486745834350586
1761469571123359700,1.99135986328125,-0.5769914984703064,-0.052423473447561264,2.024503469467163
1761469571133314600,2.001314453125,-0.40717366337776184,0.9584394693374634,2.205073833465576
1761469571143270000,2.011269775390625,-0.14920473098754883,1.655297040939331,2.601762533187866
1761469571153223700,2.0212236328125,0.12768545746803284,1.5636643171310425,3.048769950866699
1761469571163178800,2.0311787109375,0.2481278032064438,0.10734890401363373,2.8915908336639404
1761469571173132500,2.041132568359375,-0.05476735159754753,-1.942819356918335,1.7041125297546387
1761469571183087600,2.051087646484375,-0.45198631286621094,-2.908118963241577,0.6675317287445068
1761469571193042700,2.061042724609375,-0.555328369140625,-3.550689220428467,0.3634575605392456
1761469571202996700,2.070996826171875,-0.5972699522972107,-3.591688394546509,0.4594879448413849
1761469571212951600,2.08095166015625,-0.6610156297683716,-2.1835525035858154,0.3120255172252655
1761469571222905600,2.090905517578125,-0.6004303693771362,-0.7344601154327393,0.3768169581890106
1761469571232860700,2.100860595703125,-0.5985467433929443,0.5021723508834839,0.06585854291915894
1761469571242815700,2.110815673828125,-0.6355396509170532,1.0247654914855957,-0.4872247874736786
1761469571252769800,2.120769775390625,-0.6811255216598511,1.3495957851409912,-1.023773193359375
1761469571262724600,2.130724609375,-0.6347593665122986,1.4428791999816895,-1.498978614807129
1761469571272678700,2.1406787109375,-0.67155921459198,1.2322551012039185,-1.8630566596984863
1761469571282633700,2.1506337890625,-0.7507073283195496,0.707430362701416,-2.0170767307281494
1761469571292588500,2.160588623046875,-0.7105111479759216,-0.1364676058292389,-2.0808987617492676
1761469571302542300,2.170542236328125,-0.6241391897201538,-1.1813526153564453,-2.136756420135498
1761469571312497700,2.18049755859375,-0.5842346549034119,-2.098294734954834,-2.031517267227173
1761469571322451700,2.19045166015625,-0.6449854373931885,-2.086547613143921,-1.6393864154815674
1761469571332406500,2.200406494140625,-0.6860353946685791,-1.3415846824645996,-0.9906268119812012
1761469571342361300,2.210361328125,-0.7037142515182495,-0.4845866858959198,-0.4421599507331848
1761469571352315600,2.220315673828125,-0.7589120268821716,0.127293199300766,-0.17332211136817932
1761469571362270700,2.230270751953125,-0.8966355919837952,0.6831526160240173,-0.06029660627245903
1761469571372224500,2.240224609375,-0.8162672519683838,1.4004111289978027,0.03129962459206581
1761469571382179600,2.2501796875,-0.5889296531677246,1.7087763547897339,0.12601591646671295
1761469571392134700,2.260134765625,-0.35967782139778137,1.3904651403427124,0.3668953776359558
1761469571402088700,2.270088623046875,-0.11690189689397812,0.5826979279518127,0.6552610397338867
1761469571412043500,2.28004345703125,0.03219836950302124,-0.19993826746940613,0.9955427050590515
1761469571421998600,2.28999853515625,0.1049077957868576,-0.7836722731590271,1.4392482042312622
1761469571431952400,2.299952392578125,0.20979879796504974,-1.1503008604049683,1.971703052520752
1761469571441907700,2.30990771484375,0.2760280668735504,-1.3366705179214478,2.3592684268951416
1761469571451861500,2.319861572265625,0.2651914060115814,-1.3476641178131104,2.5160915851593018
1761469571461816600,2.329816650390625,0.10291090607643127,-1.2563406229019165,2.395198345184326
1761469571471771400,2.339771484375,-0.13570111989974976,-0.9811773896217346,1.9798128604888916
1761469571481725400,2.349725341796875,-0.3360007405281067,-0.48646849393844604,1.3284006118774414
1761469571491680500,2.359680419921875,-0.4611080586910248,0.05838870257139206,0.5814018249511719
1761469571501634600,2.369634521484375,-0.5379528403282166,0.5797442197799683,-0.13187697529792786
1761469571511589600,2.379589599609375,-0.5886948704719543,1.023745059967041,-0.6912392973899841
1761469571521544400,2.38954443359375,-0.6292713284492493,1.380765676498413,-1.025745153427124
1761469571531498800,2.399498779296875,-0.6194083094596863,1.6235407590866089,-1.1280022859573364
1761469571541453600,2.40945361328125,-0.5227853059768677,1.7080647945404053,-0.9662531614303589
1761469571551407600,2.41940771484375,-0.395751416683197,1.4807461500167847,-0.6058289408683777
1761469571561362400,2.429362548828125,-0.24018464982509613,1.0834232568740845,-0.1298636645078659
1761469571571317800,2.43931787109375,-0.0815073773264885,0.6904845833778381,0.37231048941612244
1761469571581271600,2.449271484375,-0.03257215768098831,0.2204168140888214,0.8422696590423584
1761469571591226600,2.4592265625,-0.19335651397705078,-0.3484056293964386,1.2158310413360596
1761469571601180700,2.4691806640625,-0.5555535554885864,-0.637945830821991,1.4387415647506714
1761469571611135500,2.479135498046875,-0.9696503281593323,-0.5334532260894775,1.4103384017944336
1761469571621090600,2.489090576171875,-1.339926838874817,-0.19737398624420166,1.1086944341659546
1761469571631044600,2.499044677734375,-1.505862832069397,0.34420353174209595,0.6892902851104736
1761469571640999700,2.508999755859375,-1.3747012615203857,0.8834425806999207,0.2604435980319977
1761469571650953500,2.518953369140625,-1.0101712942123413,1.2333003282546997,-0.14625146985054016
1761469571660908500,2.528908447265625,-0.5952326655387878,1.2585481405258179,-0.41734886169433594
1761469571670863600,2.538863525390625,-0.328969269990921,0.9259645938873291,-0.5573288798332214
1761469571680817700,2.548817626953125,-0.4719918370246887,-0.10662689805030823,-0.9623326063156128
1761469571690772500,2.5587724609375,-0.9200207591056824,-1.2301002740859985,-1.6988122463226318
1761469571700726500,2.5687265625,-1.034363031387329,-1.2655301094055176,-2.197814702987671
1761469571710681300,2.578681396484375,-0.6947811841964722,-0.19667677581310272,-2.0313916206359863
1761469571720636700,2.58863671875,-0.10833761096000671,1.044136881828308,-0.8775320649147034
1761469571730590500,2.598590576171875,0.29798007011413574,1.1663256883621216,0.6278021335601807
1761469571740545500,2.608545654296875,0.5632236003875732,0.22373734414577484,1.4058830738067627
1761469571750499600,2.61849951171875,0.7924773097038269,-0.683181881904602,1.474385142326355
1761469571760454700,2.62845458984375,0.8907882571220398,-0.8909074664115906,1.1533186435699463
1761469571770409500,2.638409423828125,0.8132692575454712,-0.7811844348907471,0.7149213552474976
1761469571780363500,2.648363525390625,0.6324910521507263,-0.9089664220809937,0.21914666891098022
1761469571790318600,2.658318603515625,0.3271358907222748,-1.2126187086105347,-0.4996087849140167
1761469571800273700,2.668273681640625,0.13198025524616241,-1.6645350456237793,-1.4335201978683472
1761469571810227700,2.678227783203125,0.013239750638604164,-1.6103538274765015,-2.415055751800537
1761469571820182500,2.6881826171875,-0.03759566694498062,-0.8802713751792908,-3.1166677474975586
1761469571830136600,2.698136474609375,0.03561010584235191,0.19810940325260162,-3.1260175704956055
1761469571840091400,2.70809130859375,0.17661882936954498,0.9756411910057068,-2.182363510131836
1761469571850046700,2.718046630859375,0.38188889622688293,0.7601525783538818,-0.7790462374687195
1761469571860000500,2.72800048828125,0.6430651545524597,-0.23244573175907135,0.34995341300964355
1761469571869955600,2.73795556640625,0.8848905563354492,-1.1315590143203735,1.0105451345443726
1761469571879909600,2.74790966796875,1.0096780061721802,-1.5174381732940674,1.1830754280090332
1761469571889864400,2.757864501953125,0.9611818194389343,-1.5228939056396484,1.0717438459396362
1761469571899819500,2.767819580078125,0.7691758871078491,-1.1909289360046387,0.8712237477302551
1761469571909773600,2.777773681640625,0.5401020050048828,-0.5371009707450867,0.7319170236587524
1761469571919728600,2.787728759765625,0.39252737164497375,0.31841596961021423,0.8075616359710693
1761469571929682400,2.797682373046875,0.3060454726219177,1.029253363609314,1.0213148593902588
1761469571939637800,2.8076376953125,0.137775719165802,1.395257830619812,1.3063530921936035
1761469571949592600,2.817592529296875,-0.03466740995645523,1.4647538661956787,1.591491937637329
1761469571959546600,2.827546630859375,-0.11947382241487503,1.317046880722046,1.9096745252609253
1761469571969501400,2.83750146484375,-0.14045685529708862,1.018485426902771,2.206061840057373
1761469571979455500,2.84745556640625,-0.21515780687332153,0.5111578106880188,2.4432835578918457
1761469571989410600,2.85741064453125,-0.19925794005393982,0.003157705068588257,2.6284053325653076
1761469571999365600,2.86736572265625,-0.1573096513748169,-0.43756046891212463,2.5846662521362305
1761469572009319400,2.8773193359375,-0.13520967960357666,-0.868634045124054,2.2866389751434326
1761469572019274500,2.8872744140625,-0.13289065659046173,-1.311383843421936,1.7174967527389526
1761469572029228500,2.897228515625,-0.10315193235874176,-1.5541763305664062,1.0135018825531006
1761469572039183600,2.90718359375,-0.09203251451253891,-1.6616992950439453,0.2499583214521408
1761469572049138400,2.917138427734375,-0.0970243439078331,-1.6050879955291748,-0.4785856008529663
1761469572059092500,2.927092529296875,-0.09035928547382355,-1.3631393909454346,-1.129840612411499
1761469572069047600,2.937047607421875,-0.07034190744161606,-0.9925815463066101,-1.7033809423446655
1761469572079001600,2.947001708984375,-0.06321650743484497,-0.5689734220504761,-2.1652424335479736
1761469572088956700,2.956956787109375,-0.06577953696250916,-0.2557907700538635,-2.5166428089141846
1761469572098911500,2.966911376953125,-0.016410402953624725,0.0031561776995658875,-2.5305769443511963
1761469572108865500,2.976865478515625,0.13245657086372375,0.18306416273117065,-2.280256748199463
1761469572118820600,2.986820556640625,0.2430863231420517,0.4854700565338135,-1.875618577003479
1761469572128774700,2.996774658203125,0.26204243302345276,0.6398260593414307,-1.474671721458435
1761469572138729500,3.0067294921875,0.26300373673439026,0.7957569360733032,-1.1121344566345215
1761469572148684500,3.0166845703125,0.23590847849845886,0.9194559454917908,-0.8408057689666748
1761469572158638600,3.026638671875,0.08436455577611923,0.9231885075569153,-0.677823543548584
1761469572168593700,3.03659375,-0.19266678392887115,0.7489179372787476,-0.596237063407898
1761469572178548500,3.046548583984375,-0.5252696871757507,0.46750855445861816,-0.566924512386322
1761469572188502500,3.05650244140625,-0.8410324454307556,0.2776113450527191,-0.595905065536499
1761469572198457600,3.06645751953125,-1.045255184173584,0.24879705905914307,-0.737460196018219
1761469572208411400,3.076411376953125,-1.1205933094024658,0.32252347469329834,-0.9915875792503357
1761469572218366700,3.08636669921875,-1.0148227214813232,0.4013715386390686,-1.3076345920562744
1761469572228321500,3.096321533203125,-0.749183177947998,0.4945718050003052,-1.6045233011245728
1761469572238275600,3.106275634765625,-0.30826446413993835,0.7348939776420593,-1.6922338008880615
1761469572248230400,3.11623046875,0.24909228086471558,0.9476576447486877,-1.6886985301971436
1761469572258184700,3.126184814453125,0.8712195158004761,0.4331579804420471,-1.6807717084884644
1761469572268139500,3.136139404296875,1.256622076034546,-0.9378296136856079,-1.6156883239746094
1761469572278094600,3.146094482421875,0.9909777641296387,-2.5519371032714844,-1.4552955627441406
1761469572288049400,3.15604931640625,0.48063144087791443,-3.2330708503723145,-0.816159188747406
1761469572298004500,3.16600439453125,0.09905767440795898,-2.9716742038726807,0.09023910760879517
1761469572307958300,3.175958251953125,0.15335234999656677,-2.1045737266540527,0.9539187550544739
1761469572317913600,3.18591357421875,0.515041708946228,-1.188033938407898,1.613974690437317
1761469572327868400,3.195868408203125,0.9400654435157776,-0.7852103114128113,1.893701195716858
1761469572337822500,3.205822509765625,1.2376461029052734,-0.4249119460582733,2.1101677417755127
1761469572347777300,3.21577734375,1.293710470199585,-0.29293179512023926,2.29805326461792
1761469572357731300,3.2257314453125,1.1835137605667114,-0.5321559309959412,2.2880470752716064
1761469572367686400,3.235686279296875,0.9993494749069214,-0.8894813060760498,1.8207517862319946
1761469572377641500,3.245641357421875,0.7817800045013428,-0.9398463368415833,1.0875698328018188
1761469572387595500,3.255595458984375,0.6257768273353577,-0.4729204475879669,0.5572394132614136
1761469572397550300,3.26555029296875,0.5797139406204224,0.14075468480587006,0.4759445786476135
1761469572407505400,3.27550537109375,0.5710881948471069,0.8166065812110901,0.7291504740715027
1761469572417459500,3.28545947265625,0.5722153186798096,1.3721197843551636,1.1057500839233398
1761469572427414500,3.29541455078125,0.6266686916351318,1.6198132038116455,1.4941585063934326
1761469572437368300,3.305368408203125,0.6505887508392334,1.4510318040847778,1.8406381607055664
1761469572447323400,3.315323486328125,0.6763428449630737,1.2369093894958496,2.1779704093933105
1761469572457278500,3.325278564453125,0.860218346118927,1.2649396657943726,2.5916731357574463
1761469572467232500,3.335232421875,0.9293355941772461,1.3285112380981445,3.00321364402771
1761469572477187300,3.345187255859375,0.740996241569519,1.4852244853973389,3.4082694053649902
1761469572487141400,3.355141357421875,0.41440993547439575,1.7604970932006836,3.804326295852661
1761469572497096400,3.365096435546875,0.1759587824344635,2.0435800552368164,4.2122955322265625
1761469572507051500,3.375051513671875,0.09305696934461594,2.1071858406066895,4.494298458099365
1761469572517005600,3.385005615234375,-0.04827079549431801,1.757188320159912,4.71470308303833
1761469572526960400,3.39496044921875,-0.07418228685855865,1.2661850452423096,4.7962822914123535
1761469572536915500,3.40491552734375,0.06915563344955444,0.6003676056861877,4.563328742980957
1761469572546869500,3.414869384765625,0.23799312114715576,-0.199419304728508,3.9877119064331055
1761469572556824300,3.42482421875,0.41703006625175476,-1.0444276332855225,2.9790501594543457
1761469572566778400,3.4347783203125,0.5985250473022461,-1.7330119609832764,1.6693905591964722
1761469572576733400,3.4447333984375,0.6583272218704224,-1.8325183391571045,0.28549888730049133
1761469572586688500,3.4546884765625,0.6618598699569702,-1.6532546281814575,-0.9206954836845398
1761469572596642600,3.464642578125,0.535915732383728,-1.2337135076522827,-1.8865065574645996
1761469572606597400,3.474597412109375,0.29531005024909973,-0.6594699025154114,-2.617931365966797
1761469572616551400,3.484551513671875,0.03224571794271469,-0.0951315388083458,-3.1560733318328857
1761469572626506200,3.49450634765625,-0.11012048274278641,0.5494439601898193,-3.3323206901550293
1761469572636461600,3.504461669921875,-0.16425374150276184,0.9950929284095764,-3.2703263759613037
1761469572646415400,3.514415283203125,-0.24293844401836395,1.277365803718567,-3.1044647693634033
1761469572656370400,3.524370361328125,-0.3074515461921692,1.3817787170410156,-2.8839616775512695
1761469572666324500,3.534324462890625,-0.32733258605003357,1.3704196214675903,-2.6125428676605225
1761469572676279600,3.544279541015625,-0.3232871890068054,1.2566413879394531,-2.3240721225738525
1761469572686234400,3.554234375,-0.32437217235565186,1.0199655294418335,-2.0691983699798584
1761469572696188400,3.5641884765625,-0.35943588614463806,0.7204127907752991,-1.861476182937622
1761469572706143500,3.5741435546875,-0.43330156803131104,0.36707067489624023,-1.6887131929397583
1761469572716098600,3.5840986328125,-0.5157195329666138,-0.0714297965168953,-1.536012053489685
1761469572726052600,3.594052490234375,-0.5433181524276733,-0.5206875205039978,-1.424311637878418
1761469572736007400,3.60400732421875,-0.5778825283050537,-0.7294743061065674,-1.4288673400878906
1761469572745961500,3.61396142578125,-0.6095280647277832,-0.8039906024932861,-1.5314613580703735
1761469572755916300,3.623916259765625,-0.6793013215065002,-0.8317086696624756,-1.7919378280639648
1761469572765871600,3.63387158203125,-0.6733738780021667,-0.5975632667541504,-2.0408384799957275
1761469572775825400,3.643825439453125,-0.5193796157836914,-0.1381225734949112,-2.209350347518921
1761469572785780500,3.653780517578125,-0.2632788121700287,0.353598952293396,-2.220050573348999
1761469572795734500,3.663734619140625,0.008961808867752552,0.6561852097511292,-1.933712363243103
1761469572805689300,3.673689453125,0.34912604093551636,0.19090141355991364,-1.4196228981018066
1761469572815644400,3.68364453125,0.762986421585083,-1.0822372436523438,-0.9235210418701172
1761469572825598500,3.693598388671875,1.0046523809432983,-2.9461331367492676,-0.6800663471221924
1761469572835553300,3.70355322265625,0.8930892944335938,-4.307743072509766,-0.42132070660591125
1761469572845508400,3.71350830078125,0.5480679869651794,-3.9920690059661865,0.023704979568719864
1761469572855462400,3.72346240234375,0.24895918369293213,-2.5146644115448,0.4307365417480469
1761469572865417500,3.73341748046875,0.06316427886486053,-0.9024572372436523,0.49835580587387085
1761469572875371500,3.74337158203125,-0.10326574742794037,0.4694748520851135,0.3033393621444702
1761469572885326300,3.753326416015625,-0.25473088026046753,1.3334099054336548,-0.07415174692869186
1761469572895281400,3.763281494140625,-0.4157302677631378,1.3355014324188232,-0.41629430651664734
1761469572905235500,3.7732353515625,-0.5812841057777405,0.6379950046539307,-0.5314992070198059
1761469572915190500,3.7831904296875,-0.7928785681724548,-0.3040975332260132,-0.5771272778511047
1761469572925144300,3.793144287109375,-1.091233730316162,-1.038055419921875,-0.5253537893295288
1761469572935099400,3.803099365234375,-1.339464783668518,-1.107950210571289,-0.44652435183525085
1761469572945054500,3.813054443359375,-1.4232995510101318,-0.22848840057849884,-0.4862203598022461
1761469572955008500,3.823008544921875,-1.2864406108856201,1.0981721878051758,-0.5451478362083435
1761469572964963300,3.83296337890625,-1.1585361957550049,2.4994137287139893,-0.39113935828208923
1761469572974917400,3.84291748046875,-1.2367732524871826,3.2605905532836914,-0.03362860158085823
1761469572984872400,3.85287255859375,-1.388800024986267,2.998992443084717,0.5645222067832947
1761469572994827500,3.86282763671875,-1.5302326679229736,1.9259302616119385,1.214372992515564
1761469573004781600,3.872781494140625,-1.688977837562561,0.8235749006271362,1.824762225151062
1761469573014736400,3.882736328125,-1.5799680948257446,0.5089676380157471,2.4634475708007812
1761469573024691500,3.89269140625,-1.182655930519104,0.7831480503082275,3.0041840076446533
1761469573034645200,3.902645263671875,-0.856275200843811,1.4717429876327515,3.4114465713500977
1761469573044600600,3.9126005859375,-0.6476455926895142,2.183657169342041,3.8027853965759277
1761469573054554400,3.922554443359375,-0.6222283840179443,2.594007968902588,4.3044586181640625
1761469573064509400,3.932509521484375,-0.6722167134284973,2.466494083404541,4.880167484283447
1761469573074464300,3.94246435546875,-0.780324399471283,1.6287976503372192,5.2940354347229
1761469573084418600,3.95241845703125,-0.876783013343811,0.5653333067893982,5.319459915161133
1761469573094373400,3.962373291015625,-0.6820700168609619,-0.2480340152978897,4.857165336608887
1761469573104327400,3.972327392578125,-0.17613305151462555,-0.8360897898674011,3.8157801628112793
1761469573114282500,3.982282470703125,0.5036158561706543,-1.1966290473937988,2.4211723804473877
1761469573124237600,3.992237548828125,1.105250597000122,-1.1935291290283203,0.8727439045906067
1761469573138545400,4.00654541015625,1.3943666219711304,-0.8772834539413452,-1.0696353912353516
1761469573148500500,4.01650048828125,1.2647126913070679,-0.6030412316322327,-2.057755947113037
1761469573158455300,4.026455322265625,0.937320351600647,-0.28855687379837036,-2.8222532272338867
1761469573168409300,4.036409423828125,0.587119460105896,0.16724500060081482,-3.369082450866699
1761469573178364400,4.046364501953125,0.2934359610080719,0.7179356813430786,-3.7235329151153564
1761469573188318500,4.056318359375,0.07205163687467575,1.1924833059310913,-3.901407480239868
1761469573198273500,4.0662734375,-0.0797385573387146,1.4916014671325684,-3.931028366088867
1761469573208228400,4.076228271484375,-0.12972529232501984,1.5036671161651611,-3.8453688621520996
1761469573218182400,4.086182373046875,0.012785258702933788,1.545198678970337,-3.359067678451538
1761469573228137500,4.096137451171875,0.261856347322464,1.34144127368927,-2.6789989471435547
1761469573238091500,4.106091552734375,0.6213495135307312,0.8425019383430481,-1.8668501377105713
1761469573248046300,4.11604638671875,0.9009137749671936,-0.007659992668777704,-1.1419459581375122
1761469573258001400,4.12600146484375,0.9492006897926331,-0.9787282347679138,-0.5925779342651367
1761469573267955500,4.13595556640625,0.8420433402061462,-1.8144131898880005,-0.15595054626464844
1761469573277910500,4.14591064453125,0.6509699821472168,-2.1496336460113525,0.1395772099494934
1761469573287864300,4.1558642578125,0.4408353567123413,-1.965645432472229,0.2703155279159546
1761469573297817900,4.16581787109375,0.2379492074251175,-1.4487916231155396,0.22868412733078003
1761469573307773000,4.17577294921875,0.04465111717581749,-0.8134485483169556,0.08930758386850357
1761469573317727000,4.18572705078125,-0.09359379857778549,-0.3950992822647095,-0.14771594107151031
1761469573327682000,4.19568212890625,-0.14249342679977417,-0.27719423174858093,-0.6342800259590149
1761469573337636900,4.205636962890625,0.01934799551963806,-0.26749834418296814,-1.276213526725769
1761469573347591000,4.2155908203125,0.328122079372406,-0.22721457481384277,-1.8629885911941528
1761469573357545700,4.225545654296875,0.6467873454093933,-0.3909280598163605,-2.2472400665283203
1761469573367499800,4.235499755859375,0.957781970500946,-1.0504182577133179,-2.2963924407958984
1761469573377455000,4.245455078125,1.1150575876235962,-2.3618886470794678,-2.0280263423919678
1761469573387410000,4.255409912109375,0.8221206665039062,-3.5941247940063477,-1.51259446144104
1761469573397364000,4.265364013671875,0.30717018246650696,-3.744955062866211,-0.5413755774497986
1761469573407318800,4.27531884765625,0.06946119666099548,-2.8389458656311035,0.3611108362674713
1761469573417273000,4.285273193359375,0.31904006004333496,-1.8886231184005737,0.7021918296813965
1761469573427228000,4.295227783203125,0.7752552032470703,-1.4430514574050903,0.24210575222969055
1761469573437183000,4.305182861328125,1.0341541767120361,-0.9790254235267639,-0.43554383516311646
1761469573447136800,4.31513671875,0.9165247678756714,-0.3798813223838806,-0.7969207167625427
1761469573457092000,4.325092041015625,0.6252370476722717,-0.02850051037967205,-0.7067035436630249
1761469573467046100,4.335046142578125,0.5304431915283203,-0.09604652971029282,-0.391011118888855
1761469573477001000,4.3450009765625,0.6065009832382202,-0.47689008712768555,-0.0919872298836708
1761469573487577900,4.355577880859375,0.5200497508049011,-0.9107648134231567,0.13318435847759247
1761469573497533000,4.365532958984375,0.3720158338546753,-1.0365757942199707,0.38624247908592224
1761469573507488000,4.375488037109375,0.09208670258522034,-0.8125873804092407,0.548812210559845
1761469573517442000,4.385442138671875,-0.06226830556988716,-0.4551366865634918,0.5710042119026184
1761469573527396900,4.39539697265625,-0.14078468084335327,-0.04870634898543358,0.5123182535171509
1761469573537351000,4.405350830078125,-0.33842456340789795,0.4793453812599182,0.3037572503089905
1761469573547305700,4.4153056640625,-0.6341896653175354,0.701416552066803,0.10758800804615021
1761469573557261000,4.425260986328125,-0.8156702518463135,0.6800570487976074,-0.0519658587872982
1761469573567214800,4.43521484375,-0.9144807457923889,0.35851919651031494,-0.19349369406700134
1761469573577170000,4.445169921875,-0.9665709137916565,0.11256983876228333,-0.3719308376312256
1761469573587124700,4.455124755859375,-0.8928301334381104,0.028714889660477638,-0.5374526977539062
1761469573597079000,4.4650791015625,-0.7403426170349121,0.25972244143486023,-0.6838345527648926
1761469573607033900,4.475033935546875,-0.749549388885498,0.9098082780838013,-0.6439566016197205
1761469573616988000,4.48498779296875,-0.8629528880119324,1.4476637840270996,-0.4062681198120117
1761469573626943000,4.49494287109375,-0.9918695688247681,1.7405987977981567,-0.05981430411338806
1761469573636898000,4.50489794921875,-1.0640920400619507,1.8803972005844116,0.36466625332832336
1761469573646852000,4.51485205078125,-1.0617423057556152,1.8346928358078003,0.8287348747253418
1761469573656807000,4.524806884765625,-1.0093157291412354,1.5892610549926758,1.192596197128296
1761469573666761000,4.534760986328125,-0.728765606880188,1.4840046167373657,1.5408895015716553
1761469573676715800,4.5447158203125,-0.6225422620773315,1.3360251188278198,1.8098567724227905
1761469573686671000,4.554671142578125,-0.5692883729934692,1.1725273132324219,1.9616042375564575
1761469573696625000,4.564625,-0.6365306973457336,0.8309647440910339,1.8977508544921875
1761469573706580000,4.574580078125,-0.7504474520683289,0.45605871081352234,1.6873208284378052
1761469573716534800,4.58453466796875,-0.8727473020553589,0.059510160237550735,1.3243318796157837
1761469573726488800,4.59448876953125,-0.9211465120315552,-0.33739379048347473,0.8352047801017761
1761469573736444000,4.60444384765625,-0.832014799118042,-0.6377424597740173,0.18687202036380768
1761469573746398000,4.61439794921875,-0.6397180557250977,-0.6983914375305176,-0.5604866147041321
1761469573756353000,4.62435302734375,-0.5067211985588074,-0.6304433941841125,-1.2889409065246582
1761469573766307800,4.634307861328125,-0.5137221217155457,-0.44810739159584045,-1.8901617527008057
1761469573776262100,4.64426220703125,-0.629781186580658,0.21868979930877686,-2.2209601402282715
1761469573786217000,4.654217041015625,-0.8885411024093628,0.6585857272148132,-2.4310309886932373
1761469573796171000,4.6641708984375,-1.1771811246871948,1.1374402046203613,-2.2857422828674316
1761469573806125800,4.674125732421875,-1.4587796926498413,1.5748982429504395,-1.9698182344436646
1761469573816081200,4.6840810546875,-1.5376052856445312,1.755153775215149,-1.4854375123977661
1761469573826035000,4.694034912109375,-1.513780117034912,1.7304250001907349,-0.8667885065078735
1761469573835990000,4.703989990234375,-1.1326874494552612,0.9270903468132019,-0.24505530297756195
1761469573845944800,4.71394482421875,-0.6700087785720825,0.28502196073532104,0.4875161051750183
1761469573855899000,4.72389892578125,-0.323219358921051,-0.253347247838974,0.9873595237731934
1761469573865854000,4.73385400390625,-0.06417981535196304,-0.6699553728103638,1.3031175136566162
1761469573875808000,4.74380810546875,0.17497679591178894,-0.8411362767219543,1.3727502822875977
1761469573885762800,4.7537626953125,0.41925522685050964,-0.2937602996826172,1.363832950592041
1761469573895718000,4.7637177734375,0.4228283762931824,-0.18373145163059235,0.8967784643173218
1761469573905672000,4.773671875,0.3262677490711212,-0.46280330419540405,0.24061496555805206
1761469573915627000,4.783626953125,0.35006168484687805,-1.0047770738601685,-0.7514439225196838
1761469573925581000,4.7935810546875,0.38330671191215515,-1.7242497205734253,-2.044360637664795
1761469573935535900,4.803535888671875,0.5340147614479065,-1.703343152999878,-3.094416379928589
1761469573945491000,4.813490966796875,0.7864810824394226,-1.388994812965393,-2.6546287536621094
1761469573955444700,4.82344482421875,0.4489125907421112,-0.5814074873924255,-1.3156688213348389
1761469573965400000,4.833400146484375,0.2598308324813843,-0.7726780772209167,-0.05505959317088127
1761469573975355000,4.84335498046875,0.4324856698513031,-1.58791983127594,0.4966103434562683
1761469573985309000,4.853308837890625,0.6592980623245239,-1.4970616102218628,0.4634537398815155
1761469573995263700,4.863263671875,0.7050169110298157,-0.5849719643592834,0.17498859763145447
1761469574005218000,4.873218017578125,0.6283567547798157,0.17396923899650574,-0.052539363503456116
1761469574015172900,4.8831728515625,0.5153607130050659,0.25181886553764343,-0.14539751410484314
1761469574025128000,4.8931279296875,0.47053733468055725,-0.44136813282966614,-0.3933873474597931
1761469574035082000,4.90308203125,0.43777698278427124,-1.1759120225906372,-0.6950849890708923
1761469574045037000,4.913037109375,0.3220250606536865,-1.4255783557891846,-0.90080326795578
1761469574054991000,4.9229912109375,0.22298724949359894,-1.0496925115585327,-0.8828012347221375
1761469574064946000,4.93294580078125,0.11902035772800446,-0.32030054926872253,-0.6304174661636353
1761469574074901000,4.94290087890625,-0.09573994576931,0.12846319377422333,-0.359123557806015
1761469574084854800,4.952854736328125,-0.23172228038311005,0.18909990787506104,-0.0023526737932115793
1761469574094810000,4.96281005859375,-0.2749881446361542,0.0699867233633995,0.467280775308609
1761469574104765000,4.972764892578125,-0.2710045874118805,-0.11199373006820679,0.9372418522834778
1761469574114719000,4.982718994140625,-0.18194815516471863,-0.33184683322906494,1.2649317979812622
1761469574124673800,4.992673828125,-0.06404895335435867,-0.4879504144191742,1.443978190422058
1761469574134627800,5.0026279296875,0.258157879114151,-0.2713610827922821,1.6299099922180176
1761469574144583000,5.0125830078125,0.5199207663536072,0.0884905681014061,1.6868276596069336
1761469574154538000,5.0225380859375,0.5075985193252563,0.5621616244316101,1.6963413953781128
1761469574164491800,5.03249169921875,0.40599915385246277,1.1707473993301392,1.7632197141647339
1761469574174446800,5.04244677734375,0.27340227365493774,1.641621708869934,1.9168468713760376
1761469574184401200,5.052401123046875,0.1371687948703766,1.8026419878005981,2.1294591426849365
1761469574194356000,5.06235595703125,0.07135127484798431,1.628035306930542,2.322580337524414
1761469574204310800,5.072310791015625,0.10299708694219589,1.1289423704147339,2.3682186603546143
1761469574214264800,5.082264892578125,0.23491644859313965,0.5660241842269897,2.1762781143188477
1761469574224220200,5.09222021484375,0.4794505536556244,0.0247044637799263,1.8228358030319214
1761469574234175000,5.102175048828125,0.7473931908607483,-0.4290250539779663,1.2522428035736084
1761469574244129000,5.11212890625,0.9140365123748779,-0.5265143513679504,0.47202423214912415
1761469574254083800,5.122083740234375,0.9133445024490356,-0.511193037033081,-0.33650973439216614
1761469574264038000,5.132037841796875,0.8326051831245422,-0.41462841629981995,-1.11571204662323
1761469574273993000,5.141992919921875,0.6621296405792236,-0.12174884229898453,-1.8847236633300781
1761469574283948000,5.151947998046875,0.43767791986465454,0.13768219947814941,-2.5543718338012695
1761469574293901800,5.16190185546875,0.23368142545223236,0.2919270694255829,-3.012702226638794
1761469574303857200,5.171857177734375,0.13325095176696777,0.2830164134502411,-3.1375913619995117
1761469574313811000,5.18181103515625,0.2279142439365387,0.4624476730823517,-2.4522018432617188
1761469574323766000,5.19176611328125,0.4882645905017853,1.1612637042999268,-1.1317331790924072
1761469574333720800,5.201720947265625,0.42045751214027405,1.005260705947876,-0.07085133343935013
1761469574343675000,5.2116748046875,0.4052056074142456,0.31619367003440857,0.7343841791152954
1761469574353630000,5.2216298828125,0.4286203384399414,-0.2899003326892853,1.1830580234527588
1761469574363585000,5.2315849609375,0.46455490589141846,-0.35619521141052246,1.3025645017623901
1761469574373539000,5.2415390625,0.44814565777778625,0.016039805486798286,1.1403621435165405
1761469574383494000,5.251493896484375,0.3359333872795105,0.5652235746383667,0.8097176551818848
1761469574393448200,5.2614482421875,0.17464059591293335,1.0253325700759888,0.3742463290691376
1761469574403403000,5.271403076171875,-0.0060940394178032875,1.180952787399292,-0.1004544049501419
1761469574413358000,5.281358154296875,-0.16288383305072784,0.9979202747344971,-0.49888306856155396
1761469574423312000,5.291311767578125,-0.24100393056869507,0.7459333539009094,-0.7610345482826233
1761469574433267200,5.30126708984375,-0.2193048745393753,0.5405831336975098,-0.7813815474510193
1761469574443221000,5.311220947265625,-0.040960703045129776,0.608708381652832,-0.3004506528377533
1761469574453176000,5.321176025390625,-0.030906561762094498,0.15684355795383453,-0.2178259938955307
1761469574463131000,5.331130859375,-0.20268604159355164,-0.5084042549133301,-0.683763325214386
1761469574473085000,5.3410849609375,-0.31083017587661743,-0.8043739795684814,-1.4762333631515503
1761469574483040000,5.3510400390625,-0.3111971616744995,-0.5421116948127747,-2.1360080242156982
1761469574492995000,5.3609951171875,-0.26531070470809937,0.11553299427032471,-2.148247718811035
1761469574502949000,5.37094921875,-0.3165038526058197,0.7720871567726135,-1.5466643571853638
1761469574512904000,5.380904052734375,-0.3978557884693146,1.0149108171463013,-0.8878886103630066
1761469574522858000,5.39085791015625,-0.31810101866722107,0.6094591617584229,-0.6212126612663269
1761469574532813000,5.40081298828125,-0.06809991598129272,0.0014299347531050444,-0.5235833525657654
1761469574542768000,5.41076806640625,0.1704317033290863,-0.5347107648849487,-0.42483624815940857
1761469574552722000,5.420721923828125,0.40057528018951416,-1.0097746849060059,-0.3675519526004791
1761469574562677000,5.430677001953125,0.5112141370773315,-1.2581464052200317,-0.3412124812602997
1761469574572631000,5.440631103515625,0.5212794542312622,-1.3643112182617188,-0.4894903600215912
1761469574582586000,5.450586181640625,0.4716138541698456,-1.371919870376587,-0.7156747579574585
1761469574592541000,5.460541015625,0.3842795193195343,-1.2045495510101318,-0.7538354396820068
1761469574602495000,5.470494873046875,0.2699127197265625,-0.9069631695747375,-0.5332074761390686
1761469574612450000,5.480449951171875,0.08804266899824142,-0.7563941478729248,-0.13843514025211334
1761469574622405000,5.490405029296875,-0.09296146780252457,-0.9025825262069702,0.2211235612630844
1761469574632359000,5.50035888671875,-0.259305864572525,-1.0692301988601685,0.4585237205028534
1761469574642314000,5.51031396484375,-0.39354225993156433,-0.8991549611091614,0.6409931182861328
1761469574652268000,5.52026806640625,-0.44627514481544495,-0.5577313303947449,0.7689973711967468
1761469574662223000,5.53022314453125,-0.5266382098197937,-0.4020690619945526,0.7646790146827698
1761469574672178000,5.540177978515625,-0.624488353729248,-0.465921014547348,0.5997028350830078
1761469574682132000,5.550132080078125,-0.5646303296089172,-0.43915385007858276,0.4532822370529175
1761469574692087000,5.560087158203125,-0.3561621904373169,-0.2716783583164215,0.3654533326625824
1761469574702040800,5.570040771484375,-0.1327591985464096,0.012282278388738632,0.4084268808364868
1761469574711996200,5.57999609375,0.07559143006801605,0.35221830010414124,0.645255982875824
1761469574721951000,5.589950927734375,0.1935337781906128,0.5036930441856384,0.9506946802139282
1761469574731905000,5.599905029296875,0.20644845068454742,0.4316123425960541,1.1977629661560059
1761469574741859800,5.60985986328125,0.18709924817085266,0.17051629722118378,1.3643519878387451
1761469574751814100,5.619814208984375,0.15469351410865784,-0.17050869762897491,1.466293454170227
1761469574761769000,5.62976904296875,0.08607957512140274,-0.4678139090538025,1.5357965230941772
1761469574771724000,5.63972412109375,-0.025997165590524673,-0.7400988936424255,1.6380740404129028
1761469574781678000,5.649677978515625,-0.11783787608146667,-1.0559117794036865,1.6867496967315674
1761469574791633200,5.659633056640625,-0.22920265793800354,-1.2889457941055298,1.601330041885376
1761469574801588000,5.669587890625,-0.3457939624786377,-1.3216853141784668,1.3618913888931274
1761469574811542000,5.6795419921875,-0.43499836325645447,-1.0969339609146118,0.9818362593650818
1761469574821497000,5.6894970703125,-0.5128020644187927,-0.7120035886764526,0.4549413025379181
1761469574831451000,5.699450927734375,-0.5622216463088989,-0.3827532231807709,-0.2189430445432663
1761469574841406200,5.70940625,-0.5511215925216675,-0.1731661558151245,-0.9759020805358887
1761469574851361000,5.719361083984375,-0.4815775752067566,-0.0814429298043251,-1.6289381980895996
1761469574861315000,5.729315185546875,-0.3712713122367859,-0.07751929759979248,-2.0560970306396484
1761469574871270000,5.739269775390625,-0.15637394785881042,0.07975666970014572,-2.0456786155700684
1761469574881224000,5.749223876953125,0.017043111845850945,0.14021416008472443,-1.8368998765945435
1761469574891179000,5.759178955078125,0.025392046198248863,0.06896816939115524,-1.4582860469818115
1761469574901134000,5.769134033203125,-0.04551674798130989,0.04162496328353882,-0.9048050045967102
1761469574911087900,5.779087890625,-0.12734779715538025,0.1758836805820465,-0.18094108998775482
1761469574921043000,5.78904296875,-0.23494350910186768,0.3575722575187683,0.5007330775260925
1761469574930997000,5.7989970703125,-0.35606077313423157,0.5410724878311157,0.9519433379173279
1761469574940952000,5.8089521484375,-0.4883969724178314,0.5345019102096558,1.1313762664794922
1761469574950907000,5.818906982421875,-0.6113015413284302,0.32366234064102173,1.0483624935150146
1761469574960861000,5.82886083984375,-0.7005587220191956,0.07180614024400711,0.7627629041671753
1761469574970816000,5.83881591796875,-0.7071710824966431,-0.0618625208735466,0.3870947062969208
1761469574980771000,5.84877099609375,-0.600174605846405,0.01695479452610016,0.03251078352332115
1761469574990725000,5.85872509765625,-0.4384142756462097,0.2917974293231964,-0.14169815182685852
1761469575000680000,5.868679931640625,-0.2898767292499542,0.6905993819236755,-0.07443735748529434
1761469575010634000,5.878634033203125,-0.2372944951057434,0.8352085947990417,0.17364472150802612
1761469575020589000,5.888589111328125,-0.32642969489097595,0.32706600427627563,0.4768296182155609
1761469575030544100,5.898544189453125,-0.37493687868118286,-0.8847481608390808,0.6121612787246704
1761469575040498000,5.908497802734375,-0.15551316738128662,-2.3541343212127686,0.48069676756858826
1761469575050453000,5.918452880859375,0.26026150584220886,-3.6808924674987793,-0.03980580344796181
1761469575060407000,5.928406982421875,0.6613650321960449,-4.047415733337402,-0.7777904272079468
1761469575070362000,5.938362060546875,0.6981086134910583,-2.9114630222320557,-1.308695673942566
1761469575080317000,5.94831689453125,0.4616217315196991,-0.8893945217132568,-1.6895402669906616
1761469575090271000,5.95827099609375,0.23138515651226044,0.6059489250183105,-1.8591361045837402
1761469575100226000,5.96822607421875,-0.10453027486801147,1.6759114265441895,-1.4529882669448853
1761469575110179800,5.978179931640625,-0.23785719275474548,2.2839126586914062,-0.6118665337562561
1761469575120135200,5.98813525390625,-0.16774840652942657,1.860522985458374,0.015110520645976067
1761469575130090000,5.998090087890625,0.09847531467676163,0.46279963850975037,-0.10320313274860382
1761469575140044000,6.0080439453125,0.5161716341972351,-1.483299732208252,-0.733869731426239
1761469575149998800,6.017998779296875,0.8132670521736145,-2.920459508895874,-1.260473608970642
1761469575159954200,6.0279541015625,0.9316895604133606,-3.005563974380493,-1.42781662940979
1761469575169908000,6.037907958984375,0.8440800309181213,-2.0456955432891846,-1.3116810321807861
1761469575179863000,6.047863037109375,0.5694602131843567,-1.2465111017227173,-1.1139999628067017
1761469575189816800,6.05781689453125,0.2822960317134857,-0.8745184540748596,-0.7299736142158508
1761469575199772200,6.067772216796875,0.12564200162887573,-0.7337014079093933,-0.22546811401844025
1761469575209727000,6.07772705078125,0.045237861573696136,-0.7867735028266907,0.28380173444747925
1761469575219681000,6.087680908203125,-0.05238775908946991,-0.9471035003662109,0.7219974398612976
1761469575229635800,6.0976357421875,-0.08474063873291016,-1.0183275938034058,1.1250463724136353
1761469575239590000,6.10758984375,-0.12475942820310593,-0.880209743976593,1.504038691520691
1761469575249545200,6.117545166015625,-0.22820784151554108,-0.4116118848323822,1.8790929317474365
1761469575259500000,6.1275,-0.39524343609809875,0.26485127210617065,2.216984510421753
1761469575269454000,6.1374541015625,-0.6693095564842224,0.9724458456039429,2.481977701187134
1761469575279409000,6.147408935546875,-0.9478285312652588,1.4778090715408325,2.671581268310547
1761469575289363000,6.157363037109375,-1.1929796934127808,1.5742698907852173,2.782921314239502
1761469575299318000,6.167318115234375,-1.4295611381530762,1.2954845428466797,2.8304646015167236
1761469575309273000,6.177273193359375,-1.5719197988510132,0.913227915763855,2.692220449447632
1761469575319227000,6.187226806640625,-1.6546682119369507,0.30811619758605957,2.3932549953460693
1761469575329182200,6.19718212890625,-1.6081719398498535,-0.357794851064682,1.8661693334579468
1761469575339137000,6.207136962890625,-1.3503299951553345,-0.5921034812927246,1.099992275238037
1761469575349091000,6.217091064453125,-1.0281003713607788,-0.3655075430870056,0.15582986176013947
1761469575359046000,6.2270458984375,-0.7677370309829712,-0.016412409022450447,-0.7101315855979919
1761469575369000000,6.237,-0.562417209148407,0.3983912169933319,-1.4232491254806519
1761469575378955000,6.246955078125,-0.47069182991981506,0.9105434417724609,-1.8923351764678955
1761469575388910000,6.25691015625,-0.42547842860221863,1.4428205490112305,-2.030949592590332
1761469575398864100,6.266864013671875,-0.44173330068588257,1.824059247970581,-1.9139200448989868
1761469575408819000,6.27681884765625,-0.5316075682640076,2.0452282428741455,-1.5916723012924194
1761469575418773200,6.286773193359375,-0.6437466144561768,2.0906858444213867,-1.136584758758545
1761469575428728000,6.29672802734375,-0.7029115557670593,1.8993321657180786,-0.6640239953994751
1761469575438683100,6.30668310546875,-0.7065443396568298,1.5909770727157593,-0.27521875500679016
1761469575448637000,6.316636962890625,-0.6777105927467346,1.4240258932113647,0.029969407245516777
1761469575458592000,6.326592041015625,-0.669386088848114,1.4500319957733154,0.24778854846954346
1761469575468546000,6.336546142578125,-0.6769189834594727,1.6490967273712158,0.34206536412239075
1761469575478501000,6.346501220703125,-0.6647339463233948,1.9145563840866089,0.3374194800853729
1761469575488456000,6.3564560546875,-0.6005523800849915,2.0449185371398926,0.2937811017036438
1761469575498410000,6.366409912109375,-0.500603973865509,1.9292923212051392,0.20131774246692657
1761469575508365000,6.376364990234375,-0.38317447900772095,1.687518835067749,0.06157638132572174
1761469575518320000,6.386320068359375,-0.24370978772640228,1.4386866092681885,-0.07106901705265045
1761469575528274200,6.396274169921875,-0.05302226170897484,1.3815133571624756,-0.02417215146124363
1761469575538229000,6.40622900390625,0.19494439661502838,1.4049028158187866,0.21554483473300934
1761469575548183000,6.41618310546875,0.4238443374633789,1.4975019693374634,0.6682997941970825
1761469575558138000,6.42613818359375,0.6025518178939819,1.260291576385498,1.1010911464691162
1761469575568093200,6.43609326171875,0.6814875602722168,0.1021062508225441,1.1021546125411987
1761469575578047000,6.446046875,0.5172592401504517,-1.636102318763733,0.6429159045219421
1761469575588002000,6.456001953125,0.2805306315422058,-3.1009275913238525,-0.12304739654064178
1761469575597955800,6.465955810546875,0.240336075425148,-3.3808069229125977,-0.9621375203132629
1761469575607911200,6.4759111328125,0.21991987526416779,-2.253282070159912,-1.7647223472595215
1761469575617866000,6.485865966796875,-0.007551632821559906,-0.4906664788722992,-2.4910337924957275
1761469575627820000,6.495820068359375,-0.3446696996688843,1.1134459972381592,-3.0417537689208984
1761469575637774800,6.50577490234375,-0.6607893109321594,2.0123023986816406,-3.247504234313965
1761469575647729200,6.515729248046875,-0.8609959483146667,2.0683517456054688,-2.98825740814209
1761469575657684000,6.52568408203125,-0.8331664204597473,1.3759114742279053,-2.397294759750366
1761469575667639000,6.53563916015625,-0.6031801104545593,0.05241507291793823,-1.8142750263214111
1761469575677593000,6.545593017578125,-0.27580443024635315,-1.3202636241912842,-1.3349970579147339
1761469575687548200,6.555548095703125,0.10233364254236221,-2.226529598236084,-0.8545246720314026
1761469575697503000,6.5655029296875,0.34078535437583923,-2.571566581726074,-0.40648242831230164
1761469575707457000,6.57545703125,0.4184456765651703,-2.480436325073242,-0.07477936148643494
1761469575717412000,6.585412109375,0.43162673711776733,-2.1091604232788086,0.10231951624155045
1761469575727366000,6.595365966796875,0.4641779959201813,-1.6037827730178833,0.09118980914354324
1761469575737321200,6.6053212890625,0.4962019622325897,-1.1039633750915527,-0.07303055375814438
1761469575747276000,6.615276123046875,0.4654366672039032,-0.7635617852210999,-0.3485894203186035
1761469575757230000,6.62522998046875,0.40663087368011475,-0.6766226291656494,-0.68477863073349
1761469575767185000,6.635184814453125,0.38078540563583374,-0.7097480893135071,-1.0230488777160645
1761469575777139000,6.645138916015625,0.38674822449684143,-0.6976945996284485,-1.2858365774154663
1761469575787094000,6.655093994140625,0.40982457995414734,-0.533724308013916,-1.4429022073745728
1761469575797049000,6.665049072265625,0.38444384932518005,-0.2901158928871155,-1.476259708404541
1761469575807003100,6.675003173828125,0.3361900746822357,0.09096382558345795,-1.1538690328598022
1761469575816958000,6.6849580078125,0.36989158391952515,0.5473971366882324,-0.500148594379425
1761469575826912300,6.694912353515625,0.4459663927555084,0.8707830309867859,0.30107608437538147
1761469575836867000,6.7048671875,0.5485782623291016,0.8924744725227356,1.106765627861023
1761469575846822100,6.714822265625,0.63132643699646,0.6059525012969971,1.81797456741333
1761469575856776000,6.72477587890625,0.6265929341316223,0.1630246341228485,2.3518218994140625
1761469575866731300,6.734731201171875,0.4936780035495758,-0.2512419819831848,2.6274096965789795
1761469575876686000,6.74468603515625,0.2747858762741089,-0.4816301763057709,2.636570692062378
1761469575886640000,6.75464013671875,0.0412445105612278,-0.5219970941543579,2.392686367034912
1761469575896595000,6.764594970703125,-0.16080819070339203,-0.36906111240386963,1.9024966955184937
1761469575906549000,6.774549072265625,-0.22913551330566406,-0.010967738926410675,1.2673721313476562
1761469575916504000,6.784504150390625,-0.22146746516227722,0.43398576974868774,0.5696974396705627
1761469575926459100,6.794459228515625,-0.17147518694400787,0.8010879158973694,-0.01492678839713335
1761469575936413000,6.804412841796875,-0.14480842649936676,0.9679762721061707,-0.399136483669281
1761469575946368000,6.814367919921875,-0.21344979107379913,1.0321699380874634,-0.5952311158180237
1761469575956322000,6.824322021484375,-0.33697518706321716,0.9799637794494629,-0.6018162965774536
1761469575966277000,6.834277099609375,-0.46690502762794495,0.8650913834571838,-0.4727465808391571
1761469575976232000,6.84423193359375,-0.5359423756599426,0.7413218021392822,-0.25334230065345764
1761469575986186000,6.85418603515625,-0.4696241319179535,0.7286990880966187,0.021466512233018875
1761469575996141000,6.86414111328125,-0.2434714436531067,0.8143114447593689,0.2691996395587921
1761469576006095000,6.87409521484375,-0.010463532991707325,0.8259127140045166,0.3807458281517029
1761469576016050200,6.88405029296875,0.1455755978822708,0.7725962400436401,0.33091142773628235
1761469576026005000,6.8940048828125,0.18136774003505707,0.7927648425102234,0.18153811991214752
1761469576035959000,6.903958984375,0.10171471536159515,0.8681357502937317,-0.021651741117239
1761469576045914000,6.9139140625,-0.04312141612172127,0.9692341685295105,-0.24029295146465302
1761469576055869200,6.923869140625,-0.12176642566919327,1.0993090867996216,-0.35537827014923096
1761469576065823000,6.933822998046875,-0.07071821391582489,1.0357530117034912,-0.336001992225647
1761469576075778000,6.943778076171875,0.11938727647066116,0.9063997268676758,-0.11016462743282318
1761469576085732000,6.953732177734375,0.4481595456600189,0.6512989401817322,0.31875208020210266
1761469576095687200,6.963687255859375,0.7495838403701782,0.2074698656797409,0.8513500094413757
1761469576105642000,6.97364208984375,0.8531960844993591,-0.43299034237861633,1.1773344278335571
1761469576115596000,6.983595947265625,0.8459450602531433,-1.2102863788604736,1.0935697555541992
1761469576125551000,6.993551025390625,0.731582760810852,-1.8604059219360352,0.4889337122440338
1761469576135505000,7.0035048828125,0.6521462202072144,-1.7576305866241455,-0.3280031979084015
1761469576145460200,7.013460205078125,0.7040571570396423,-0.7532035708427429,-0.9936457872390747
1761469576155415000,7.0234150390625,0.673746645450592,0.41164228320121765,-1.2023476362228394
1761469576165369000,7.033369140625,0.3624055087566376,0.9457576274871826,-0.9699048399925232
1761469576175324000,7.043323974609375,-0.04247325658798218,0.8389206528663635,-0.47833991050720215
1761469576185279200,7.053279296875,-0.3046096861362457,0.5869019031524658,0.0679825022816658
1761469576195233000,7.06323291015625,-0.3485797941684723,0.18756863474845886,0.4490230679512024
1761469576205188000,7.07318798828125,-0.1435002237558365,-0.25787433981895447,0.5430669784545898
1761469576215142000,7.083141845703125,0.18845002353191376,-0.8281474709510803,0.20466072857379913
1761469576225097000,7.093096923828125,0.4475335478782654,-1.5105366706848145,-0.45352789759635925
1761469576235052000,7.103052001953125,0.6230223178863525,-1.8607977628707886,-0.9881985187530518
1761469576245006000,7.113006103515625,0.721938967704773,-1.6385040283203125,-1.2179254293441772
1761469576254961000,7.1229609375,0.7404511570930481,-0.7756385207176208,-1.1834475994110107
1761469576264915000,7.1329150390625,0.6414783596992493,0.18440651893615723,-1.0662294626235962
1761469576274870300,7.142870361328125,0.4592161178588867,0.7389325499534607,-0.9251447319984436
1761469576284825000,7.1528251953125,0.18038977682590485,0.8180076479911804,-0.6593040823936462
1761469576294779400,7.162779296875,-0.08546187728643417,0.43265411257743835,-0.11679019033908844
1761469576304734200,7.172734130859375,-0.12770524621009827,-0.11981181800365448,0.6427496671676636
1761469576314689300,7.182689208984375,0.008150043897330761,-0.5238016247749329,1.3616801500320435
1761469576324643300,7.192643310546875,0.23556102812290192,-0.6978235244750977,1.835954189300537
1761469576334598400,7.202598388671875,0.4330756962299347,-0.6013033986091614,2.045706272125244
1761469576344552200,7.21255224609375,0.5536090135574341,-0.2619796693325043,2.1101667881011963
1761469576354507300,7.22250732421875,0.7166551947593689,0.13830703496932983,2.110044479370117
1761469576364462300,7.23246240234375,0.7544271349906921,0.3495735824108124,2.0210354328155518
1761469576374416400,7.24241650390625,0.6528747081756592,0.3434041142463684,1.8763179779052734
1761469576384371200,7.25237109375,0.47865813970565796,0.14430485665798187,1.6081956624984741
1761469576394325200,7.2623251953125,0.26700395345687866,-0.13867810368537903,1.167344570159912
1761469576404280300,7.2722802734375,0.08766631036996841,-0.3901313245296478,0.631854772567749
1761469576414235400,7.2822353515625,-0.05731937661767006,-0.5534135103225708,0.10547994077205658
1761469576424189400,7.292189453125,-0.19657576084136963,-0.5498959422111511,-0.3711850941181183
1761469576434144300,7.302144287109375,-0.34404587745666504,-0.2811446487903595,-0.7405354976654053
1761469576444099000,7.31209912109375,-0.4575899541378021,0.15676508843898773,-0.9670668840408325
1761469576454053400,7.322053466796875,-0.4531557857990265,0.6576164960861206,-0.9938161969184875
1761469576464008400,7.332008544921875,-0.37224483489990234,1.036202311515808,-0.8721297979354858
1761469576473962200,7.341962158203125,-0.3453200161457062,1.2237458229064941,-0.6876336932182312
1761469576483917300,7.351917236328125,-0.3394797146320343,1.218261480331421,-0.4992081820964813
1761469576493872400,7.361872314453125,-0.3228016793727875,1.0785752534866333,-0.3280430734157562
1761469576503826400,7.371826416015625,-0.3125571012496948,0.792854905128479,-0.18501022458076477
1761469576513781200,7.38178125,-0.2565732002258301,0.43244585394859314,-0.11020176857709885
1761469576523735300,7.3917353515625,-0.14881932735443115,0.11307442933320999,-0.12601330876350403
1761469576533690000,7.401690185546875,-0.06349032372236252,-0.1792421191930771,-0.24020059406757355
1761469576543645400,7.4116455078125,-0.04280056059360504,-0.4000222086906433,-0.4639005661010742
1761469576553599200,7.42159912109375,-0.04128948599100113,-0.5629216432571411,-0.7699187994003296
1761469576563554300,7.43155419921875,-0.021311933174729347,-0.5925709009170532,-1.051253080368042
1761469576573509000,7.441509033203125,-0.013790633529424667,-0.4228132963180542,-1.1055946350097656
1761469576583463200,7.451463134765625,-0.081502765417099,-0.31747967004776,-0.9654732346534729
1761469576593418200,7.461418212890625,-0.25913211703300476,-0.4109230637550354,-0.7756396532058716
1761469576603372300,7.471372314453125,-0.379730224609375,-0.5069818496704102,-0.5913817286491394
1761469576613327400,7.481327392578125,-0.26763030886650085,-0.4241948425769806,-0.3516019284725189
1761469576623282200,7.4912822265625,0.043960630893707275,-0.42172372341156006,-0.1336778700351715
1761469576633236500,7.501236572265625,0.33145126700401306,-0.715897262096405,-0.044281139969825745
1761469576643191300,7.51119140625,0.634490430355072,-1.1579779386520386,-0.1390102654695511
1761469576653145300,7.521145263671875,0.8107890486717224,-1.3891984224319458,-0.2588905990123749
1761469576663100200,7.53110009765625,0.8298906683921814,-1.9634902477264404,-0.4676266014575958
1761469576673055500,7.541055419921875,0.671675443649292,-1.9206697940826416,-0.4309532940387726
1761469576683009300,7.55100927734375,0.4421827793121338,-0.5877225995063782,0.1750846654176712
1761469576692964400,7.56096435546875,0.011759493499994278,1.2665008306503296,0.985168993473053
1761469576702919200,7.570919189453125,-0.4689667522907257,2.7767844200134277,1.6343141794204712
1761469576712873200,7.580873291015625,-0.8293382525444031,2.675995349884033,1.7047710418701172
1761469576722828300,7.590828369140625,-1.014786958694458,1.9165838956832886,1.4823857545852661
1761469576732782300,7.6007822265625,-1.0037564039230347,1.3140453100204468,1.0878392457962036
1761469576742737400,7.6107373046875,-0.7032496929168701,0.30350831151008606,0.4364199638366699
1761469576752692200,7.620692138671875,-0.26564544439315796,-0.6215524077415466,-0.3973342776298523
1761469576762646300,7.630646240234375,0.17228879034519196,-1.1360955238342285,-0.915762186050415
1761469576772601300,7.640601318359375,0.5126969218254089,-1.0843816995620728,-0.984284520149231
1761469576782555400,7.650555419921875,0.7032569646835327,-0.600537896156311,-0.6101429462432861
1761469576792510200,7.66051025390625,0.682851254940033,-0.05988588556647301,-0.07248376309871674
1761469576802465300,7.67046533203125,0.5490434765815735,0.36129820346832275,0.33763304352760315
1761469576812419300,7.68041943359375,0.4281492829322815,0.7624272704124451,0.5210939049720764
1761469576822374400,7.69037451171875,0.31171682476997375,0.8693581819534302,0.5095781087875366
1761469576832329200,7.7003291015625,0.1528925746679306,0.7374550104141235,0.42924410104751587
1761469576842283300,7.710283203125,0.00574123952537775,0.5405640006065369,0.38095083832740784
1761469576852238300,7.72023828125,-0.0786234438419342,0.24197649955749512,0.38372132182121277
1761469576862192400,7.7301923828125,-0.1860882043838501,-0.24172301590442657,0.38110077381134033
1761469576872147200,7.740147216796875,-0.3893105685710907,-0.5049842000007629,0.43793368339538574
1761469576882102300,7.750102294921875,-0.4427509903907776,-0.5351000428199768,0.5629402995109558
1761469576892056300,7.760056396484375,-0.3599783480167389,-0.16932688653469086,0.564940869808197
1761469576902011400,7.770011474609375,-0.27014416456222534,0.44358736276626587,0.5840833783149719
1761469576911965400,7.77996533203125,-0.2928718626499176,0.7948851585388184,0.6611869931221008
1761469576921920300,7.789920166015625,-0.3788800537586212,0.7961481809616089,0.6851822137832642
1761469576931875300,7.799875244140625,-0.26865503191947937,0.8854929804801941,0.8530566692352295
1761469576941829000,7.8098291015625,-0.07084307819604874,0.7529889941215515,1.0157878398895264
1761469576951784400,7.819784423828125,-0.03161737695336342,0.35187146067619324,0.9903309345245361
1761469576961739300,7.8297392578125,-0.14357461035251617,0.019581010565161705,0.706207275390625
1761469576971693300,7.839693359375,-0.3436717689037323,-0.11640825122594833,0.2867564558982849
1761469576981648100,7.849648193359375,-0.5610565543174744,-0.001674946048296988,-0.10289778560400009
1761469576991602400,7.8596025390625,-0.7488070130348206,0.30962806940078735,-0.4412713050842285
1761469577001557200,7.86955712890625,-0.8923837542533875,0.6051913499832153,-0.7068222165107727
1761469577011512300,7.87951220703125,-0.9710617661476135,0.7975919842720032,-0.8531203269958496
1761469577021466400,7.88946630859375,-0.9610497355461121,0.8642309308052063,-0.8837469220161438
1761469577031421400,7.89942138671875,-0.8563739061355591,0.7419074177742004,-0.8641399145126343
1761469577041376300,7.909376220703125,-0.6751146912574768,0.3470154106616974,-0.80092853307724
1761469577051330300,7.919330322265625,-0.41324418783187866,0.0850016325712204,-0.6098512411117554
1761469577061285400,7.929285400390625,-0.22508272528648376,0.04757057875394821,-0.3502578139305115
1761469577071239200,7.9392392578125,-0.17051242291927338,0.18317341804504395,-0.14276933670043945
1761469577081194500,7.949194580078125,-0.20858876407146454,0.40367069840431213,-0.03223370015621185
1761469577091149300,7.9591494140625,-0.2300567626953125,0.5141311287879944,-0.14572936296463013
1761469577101103400,7.969103271484375,-0.26863113045692444,0.7142677903175354,-0.3307338058948517
1761469577111058200,7.97905810546875,-0.38515082001686096,0.7734211087226868,-0.5573139190673828
1761469577121012200,7.98901220703125,-0.5540770292282104,0.7579597234725952,-0.5757927298545837
1761469577130967300,7.99896728515625,-0.6947158575057983,0.8301002383232117,-0.33572202920913696
1761469577142788400,8.010788330078125,-0.5838030576705933,0.638201117515564,-0.01307075284421444
1761469577152742400,8.020742431640626,-0.18344475328922272,0.13280051946640015,0.05249893665313721
1761469577162697200,8.030697265625,0.3717915415763855,-0.4675459563732147,-0.037777867168188095
1761469577172651300,8.0406513671875,0.6797512173652649,-0.8300264477729797,-0.16665329039096832
1761469577182606300,8.0506064453125,0.6346837282180786,-0.49690255522727966,-0.18064852058887482
1761469577192561400,8.0605615234375,0.374930202960968,0.3225771188735962,-0.00992178451269865
1761469577202515500,8.070515380859375,0.042380884289741516,0.8524861335754395,0.22676624357700348
1761469577212470300,8.08047021484375,-0.13057199120521545,0.6315619945526123,0.27474334836006165
1761469577222425300,8.09042529296875,-0.019634025171399117,-0.062405649572610855,0.1660248041152954
1761469577232379100,8.100379150390625,0.26010629534721375,-0.6382167935371399,0.18631701171398163
1761469577242334500,8.11033447265625,0.5779686570167542,-0.7479491233825684,0.40635988116264343
1761469577252288300,8.120288330078125,0.8395006656646729,-0.5345452427864075,0.8229155540466309
1761469577262243300,8.130243408203125,0.9616878032684326,-0.21245108544826508,1.1495682001113892
1761469577272198100,8.1401982421875,0.9485040903091431,-0.18779794871807098,1.1274511814117432
1761469577282152400,8.15015234375,0.8282065391540527,-0.32533571124076843,0.8362324833869934
1761469577292107300,8.160107177734375,0.7450578808784485,-0.5960623025894165,0.2986803948879242
1761469577302060500,8.170060546875,0.722834587097168,-0.6284250020980835,-0.27786678075790405
1761469577312015600,8.180015625,0.7333335280418396,-0.21145306527614594,-0.8265615701675415
1761469577321970700,8.189970703125,0.674925684928894,0.3131062090396881,-1.171324372291565
1761469577331924700,8.1999248046875,0.6048999428749084,0.6394214630126953,-1.1450419425964355
1761469577341879600,8.209879638671875,0.5231195092201233,0.7407987713813782,-0.8387871980667114
1761469577351834600,8.219834716796875,0.43897533416748047,0.5928953289985657,-0.3451499938964844
1761469577361788700,8.22978857421875,0.37604284286499023,0.2587686777114868,0.23323501646518707
1761469577371743700,8.23974365234375,0.32342439889907837,-0.23050379753112793,0.6586688756942749
1761469577381697500,8.249697509765625,0.26440295577049255,-0.4981767535209656,0.85764479637146
1761469577391652600,8.259652587890624,0.2024405151605606,-0.5779426693916321,0.8297271728515625
1761469577401607700,8.269607666015625,0.1806907057762146,-0.38883429765701294,0.640579342842102
1761469577411561700,8.279561767578125,0.1693437695503235,0.07302119582891464,0.38436782360076904
1761469577421516500,8.2895166015625,0.16437314450740814,0.6692225337028503,0.15882256627082825
1761469577431470600,8.299470703125,0.13252733647823334,1.1688323020935059,0.003788514295592904
1761469577441425700,8.30942578125,0.08204620331525803,1.4266839027404785,0.007370057515799999
1761469577452002600,8.32000244140625,0.015115907415747643,1.4824321269989014,0.20590178668498993
1761469577461957600,8.32995751953125,-0.10911624878644943,1.132867455482483,0.4535573720932007
