time,seconds_elapsed,z,y,x
1761507743716353500,0.074353515625,0.02989946370124817,-0.0552520046878606,0.14318339525223708
1761507743726325200,0.0843251953125,0.012381927189230918,-0.0829440945379436,0.1153333383614663
1761507743736297500,0.09429736328125,-0.008162263667583465,-0.12373619671873748,0.07892367078228853
1761507743746269400,0.10426953125,0.001861117696762085,-0.1360426475189626,0.03668279456528835
1761507743756241400,0.114241455078125,0.01414601425230503,-0.12887319428101182,0.001995288303331472
1761507743766213400,0.12421337890625,0.05215981082618236,-0.10537877531647681,0.0006355899232206866
1761507743776185300,0.134185302734375,0.07258943539261818,-0.07369754276499152,0.023636179222515784
1761507743786157300,0.1441572265625,0.05405424627065658,-0.04467369285449385,0.05832459423334803
1761507743796129500,0.154129638671875,0.028543957439064977,-0.01194981938228011,0.08520399316078983
1761507743806101200,0.164101318359375,0.014179916521906852,0.02096373144313693,0.08904919734685682
1761507743816073500,0.174073486328125,0.004466331759095192,0.04915463766083121,0.10581600682311691
1761507743826045200,0.184045166015625,0.010377017107605933,0.06582271773666143,0.1360684943462722
1761507743836017400,0.194017333984375,0.024787819775938986,0.08072481105327606,0.15762673935014754
1761507743845989400,0.2039892578125,0.036083120772242544,0.10591361284554004,0.22069701657351104
1761507743855961300,0.21396142578125,0.06405541580319404,0.13974310947209595,0.27888140318514776
1761507743865933300,0.223933349609375,0.06737140848338603,0.1796620090149343,0.261483602328971
1761507743875905300,0.2339052734375,0.07076455805301665,0.17182517790943383,0.2063508218402974
1761507743885877200,0.243877197265625,0.10368950705528258,0.18608502779975533,0.18219961946746333
1761507743895849500,0.253849365234375,0.13993161778151988,0.14321750758439303,0.15855116071868686
1761507743905821400,0.263821533203125,0.14488193366527558,0.10586758174672722,0.19584248823691158
1761507743915793400,0.27379345703125,0.1675929471671581,0.10675298627912998,0.27869042892400175
1761507743925765400,0.283765380859375,0.18054127606749534,0.09578341010585427,0.360512204901129
1761507743935737300,0.2937373046875,0.199460496070981,0.11615677444040774,0.3876400484645739
1761507743945709600,0.30370947265625,0.21114742673337458,0.12468100328817963,0.3713233025770634
1761507743955681300,0.313681396484375,0.16944295894801617,0.10924641053006053,0.3615102029625326
1761507743965653500,0.323653564453125,0.097401805087924,0.10333455613777041,0.3492566513933241
1761507743975625200,0.333625244140625,0.03866495395898819,0.11883534599989652,0.31570275683775545
1761507743985597400,0.343597412109375,0.0008323591709136962,0.13611118271052836,0.2526596233496442
1761507743995569400,0.3535693359375,-0.003466799327731132,0.14093056569099424,0.2214219150482677
1761507744005541400,0.363541259765625,-0.026777532288432118,0.1227946050196886,0.20517591457571832
1761507744015513300,0.373513427734375,-0.052231122496724125,0.08944631603881716,0.17645941358134148
1761507744025485300,0.3834853515625,-0.07913374246954917,0.05639072639420628,0.14022961434740572
1761507744035457300,0.393457275390625,-0.11550152540206908,0.03492971295341849,0.12364647260867058
1761507744045429500,0.403429443359375,-0.13239070088267327,0.019280162270367145,0.12799736129455266
1761507744055401200,0.413401123046875,-0.14733575655817985,0.010414572639018297,0.15987075541727244
1761507744065373400,0.42337353515625,-0.1446843652665615,0.009470131395757198,0.17690668242480606
1761507744075345200,0.43334521484375,-0.13514730611443518,0.005515110159665346,0.17988723260555414
1761507744085317400,0.4433173828125,-0.09139292006194591,-0.0040951603591442105,0.17082568201068787
1761507744095289300,0.453289306640625,-0.009780804780125617,-0.01420461257174611,0.1656382146365009
1761507744105261300,0.46326123046875,0.06344985112547874,-0.04299991442337632,0.1461745124927722
1761507744115233500,0.473233642578125,0.1181459024310112,-0.07049830833226442,0.16620036029759794
1761507744125205200,0.483205322265625,0.1398831024646759,-0.09469166934639214,0.1863518437760882
1761507744135177500,0.493177490234375,0.10727613337039947,-0.1069381335876882,0.16524908745475111
1761507744145149400,0.5031494140625,0.05385433978438377,-0.08235650390833615,0.11579389594476669
1761507744155121400,0.513121337890625,-0.013220716100931167,-0.05180938995331526,0.06949771645497531
1761507744165093400,0.52309326171875,-0.04074409832060337,-0.03775616855099797,0.04821068960791453
1761507744175065300,0.5330654296875,-0.05300502947866916,-0.030286563322693107,0.07040273900330066
1761507744185037300,0.543037353515625,-0.022087328645586966,-0.025343407832086086,0.09734176373006775
1761507744195009500,0.553009521484375,0.010164251139760017,-0.00000526069700717926,0.07546283540446311
1761507744204981200,0.562981201171875,0.020606734699010847,0.02039294581785798,0.06920317222150042
1761507744214953500,0.572953369140625,0.04280453798174858,0.07343114691376686,0.023120489351917056
1761507744224925200,0.58292529296875,0.022946575823426244,0.10519698900878428,-0.04470613381937146
1761507744234897400,0.5928974609375,-0.03255903829932213,0.12694339526221154,-0.10830459963530302
1761507744244869400,0.602869384765625,-0.0669762716859579,0.17545388980060814,-0.2120574907829985
1761507744254841300,0.61284130859375,-0.0883037218749523,0.21955606637746095,-0.32480361652970313
1761507744264813300,0.622813232421875,-0.0979378116607666,0.2518310270383954,-0.40950310336761175
1761507744274785300,0.632785400390625,-0.07644143464565277,0.26203721762374044,-0.43646834024786946
1761507744284757200,0.64275732421875,-0.01775192978978157,0.2546183196693659,-0.41181211096234616
1761507744294729500,0.6527294921875,0.07244330492019653,0.2390773439273238,-0.34019312803708013
1761507744304701400,0.662701416015625,0.15351766006350517,0.21741949274018404,-0.2666105534212664
1761507744314673400,0.67267333984375,0.19861060124337673,0.21410992980077861,-0.2153574091112241
1761507744324645400,0.682645263671875,0.20761866808533666,0.188506409727782,-0.14932084769448264
1761507744334617300,0.692617431640625,0.15389233859479426,0.14616583599597216,-0.07898682654583826
1761507744344589600,0.702589599609375,0.09868950681090355,0.09787789816707372,-0.01177071822201833
1761507744354561300,0.712561279296875,0.05151566770374775,0.051448739947378634,0.03204080484518781
1761507744364533500,0.722533447265625,-0.0022135843962430954,-0.004492635244131088,0.06775863596899434
1761507744374505200,0.732505126953125,-0.08740940338373183,-0.0763518566660583,0.08696690204693004
1761507744384477400,0.7424775390625,-0.15270809724628925,-0.12474003999903797,0.11588243274474516
1761507744394449400,0.752449462890625,-0.17316577886343001,-0.16001937010772524,0.1381198191192001
1761507744404421400,0.76242138671875,-0.1996177324593067,-0.19119352991990743,0.1974502704934217
1761507744414393300,0.772393310546875,-0.22203122431933878,-0.2179134137369692,0.2676960288367234
1761507744424365300,0.782365234375,-0.2686743175506592,-0.2221271589744836,0.2887551286794245
1761507744434337300,0.792337158203125,-0.28672669159173964,-0.21918262995518742,0.2901642282923683
1761507744444309500,0.8023095703125,-0.27996318880617616,-0.20909575490057467,0.2867208463728428
1761507744454281200,0.81228125,-0.23171382942199706,-0.20075075507722795,0.26639186916928737
1761507744464253400,0.82225341796875,-0.17185644983053205,-0.21687588738277552,0.27618462011553346
1761507744474225400,0.832225341796875,-0.08212707906663418,-0.23660759281292557,0.30705285578370095
1761507744484197400,0.842197265625,0.04676993448138237,-0.2605762051604688,0.32494141756519673
1761507744494169600,0.852169677734375,0.14646774155199527,-0.31316271696612236,0.3384268490169197
1761507744504141300,0.862141357421875,0.20084405938386915,-0.39485980711765584,0.32075521792173384
1761507744514113500,0.872113525390625,0.1941197195649147,-0.4903074093978852,0.27594273765105753
1761507744524085200,0.882085205078125,0.15883037951886653,-0.5694162366218865,0.26340737346578386
1761507744534057500,0.892057373046875,0.10603519339859485,-0.6380092958547174,0.2459658247994259
1761507744544029400,0.902029541015625,0.03118891898989677,-0.6897434286147356,0.23093106328016147
1761507744554001400,0.91200146484375,-0.05519114134609699,-0.6985035851102321,0.20076681116288528
1761507744563973400,0.921973388671875,-0.1405886203855276,-0.6729976801928133,0.1422007317572832
1761507744573945300,0.9319453125,-0.18309037602841852,-0.6626905134510248,0.08775699297869577
1761507744583917300,0.941917236328125,-0.17572072404325007,-0.6297785700608044,0.06301301234448328
1761507744593888800,0.951888671875,-0.0957505307495594,-0.6171595461800694,0.08284582179524004
1761507744603860700,0.96186083984375,0.014653963774442672,-0.6021404023550451,0.1226507395695895
1761507744613832700,0.971832763671875,0.10289864893853663,-0.5832302424408495,0.1423340210144408
1761507744623805000,0.981804931640625,0.20426994217932223,-0.5636951555613428,0.17334856981812044
1761507744633776600,0.991776611328125,0.2564063721299171,-0.5391277005378157,0.18512915184702722
1761507744643748900,1.001748779296875,0.27290099533498285,-0.5083208396680653,0.14720308835553003
1761507744653719600,1.011719482421875,0.278549814876914,-0.4757417814940214,0.09078951080869883
1761507744663691800,1.02169189453125,0.27134207545518874,-0.4371382023334503,0.04810399609673768
1761507744673663700,1.031663818359375,0.27825229323506356,-0.4010650184333324,0.027744148830883202
1761507744683635700,1.0416357421875,0.3070096011638641,-0.35310149025321,0.027656342683266846
1761507744693607700,1.051607666015625,0.33055823453366756,-0.33726942261010406,0.08332571426667272
1761507744703579600,1.06157958984375,0.36627310651540756,-0.31520489031821486,0.10909403297994286
1761507744713552000,1.0715517578125,0.3766384331852197,-0.32601825301647186,0.097637477007322
1761507744723523600,1.081523681640625,0.37036242165565486,-0.36018384972959755,0.07447588846003636
1761507744733495800,1.091495849609375,0.3337356955260038,-0.3801201378211379,0.04385136188725009
1761507744743467800,1.1014677734375,0.318315423554182,-0.37147264791987833,-0.024446605122834444
1761507744753439700,1.111439697265625,0.27919688060879705,-0.33071415574774143,-0.03943087856387719
1761507744763411700,1.12141162109375,0.22199030778706072,-0.29548202578164634,-0.0011036503929644822
1761507744773383700,1.1313837890625,0.13691197769939897,-0.25058723752237855,0.0835696608240716
1761507744783355600,1.141355712890625,0.04132043690383434,-0.19368147427812218,0.12828735721707343
1761507744793327900,1.151327880859375,0.018314239847660063,-0.13234342767484486,0.10103095537051558
1761507744803299600,1.161299560546875,0.061864043238759034,-0.10131116055138409,0.10306257079597562
1761507744813271800,1.171271728515625,0.12537702272832393,-0.13091492924168704,0.10766443856824189
1761507744823243500,1.181243408203125,0.21709259887337684,-0.19975765238665044,0.11041092426478862
1761507744833215700,1.1912158203125,0.2586304779201746,-0.2620389711894095,0.12014602673966437
1761507744843187700,1.201187744140625,0.2486871760547161,-0.3250461200486868,0.08744969886150211
1761507744853159700,1.21115966796875,0.21934651528000831,-0.36168526726849376,0.07547010539546609
1761507744863131600,1.221131591796875,0.17088614349365233,-0.4022793626591563,0.0849004527701065
1761507744873103600,1.231103515625,0.11743395476937293,-0.4364624950289726,0.09206172270160168
1761507744883075800,1.241075927734375,0.07359773565232754,-0.4708467759940773,0.1107321190431714
1761507744893047800,1.2510478515625,0.0802741446763277,-0.5088750394847243,0.11165646734647452
1761507744903019800,1.261019775390625,0.12148527598679065,-0.5808197472330182,0.1409091575767845
1761507744912991700,1.27099169921875,0.17665362097918985,-0.6670634678382427,0.1809798136152327
1761507744922963700,1.280963623046875,0.21250936273634433,-0.7578639018997549,0.1959398476641625
1761507744932935700,1.290935791015625,0.22013269722163675,-0.8549507958196103,0.1933340490799397
1761507744942908000,1.300907958984375,0.17475977005660534,-0.91941990699023,0.1483420475238934
1761507744952879600,1.310879638671875,0.1056885719180107,-0.9731378339786082,0.0839817304899916
1761507744962851800,1.320851806640625,0.03274491626024246,-0.9863580386228858,0.036372787901200354
1761507744972823600,1.330823486328125,-0.0603144757091999,-0.9780371503274887,0.010805106326565147
1761507744982795800,1.340795654296875,-0.134515437951684,-0.9468604332320392,0.007506466639973223
1761507744992767700,1.350767822265625,-0.1941594670534134,-0.8877971266277134,-0.020350714111328123
1761507745002739700,1.36073974609375,-0.19096213231682777,-0.8070956233847886,-0.06400839832369237
1761507745012711700,1.370711669921875,-0.1283843878507614,-0.7749241961635649,-0.08000844294484705
1761507745022683600,1.38068359375,-0.0471738391071558,-0.7680721383117138,-0.10611702646315097
1761507745032655600,1.390655517578125,0.034003391888737675,-0.7711737575888633,-0.145678162076883
1761507745042627800,1.4006279296875,0.01167816283404827,-0.7561000340323895,-0.22061386833470314
1761507745052599600,1.410599609375,-0.12597031244635581,-0.6895525822177528,-0.29618677651751785
1761507745062571800,1.42057177734375,-0.32537060276269913,-0.55559477814883,-0.3754963504780084
1761507745072543700,1.430543701171875,-0.5550263306111097,-0.37967319777123626,-0.39169425575882194
1761507745082515700,1.440515625,-0.7673153285950421,-0.16536730700694025,-0.3978361195147037
1761507745092488000,1.450488037109375,-0.9216489812165498,0.031662454785779115,-0.4117785009536892
1761507745102459600,1.460459716796875,-1.0060738158315419,0.20164127417616545,-0.4311726815251633
1761507745112431900,1.470431884765625,-1.0023527494817972,0.3452562566455453,-0.44205973051413894
1761507745122403600,1.480403564453125,-0.8718377793431281,0.4297030108314007,-0.40980836992450054
1761507745132375800,1.490375732421875,-0.611477701151371,0.4532930721901357,-0.3641307972570881
1761507745142347800,1.50034765625,-0.2520949386715889,0.4060096352286637,-0.29690520871886983
1761507745152319700,1.51031982421875,0.09984978276193142,0.3359343746140599,-0.23822403329992664
1761507745162291700,1.520291748046875,0.38663726463019843,0.23418343440592287,-0.18503829522579907
1761507745172263700,1.530263671875,0.5871873095035552,0.15672361649796365,-0.1662061689838767
1761507745182235600,1.540235595703125,0.6945201414972544,0.14450082539319992,-0.15567142229760064
1761507745192208000,1.550207763671875,0.6890858414888381,0.16939312845692037,-0.16214867375399916
1761507745202179600,1.5601796875,0.6291875453650951,0.19230214874893425,-0.1957102036267519
1761507745212151800,1.57015185546875,0.563190932366252,0.24373832147568464,-0.2328022822458297
1761507745222123500,1.58012353515625,0.5076145910948515,0.3016337533444166,-0.2537857961016707
1761507745232095700,1.590095703125,0.4284586367934942,0.35276509790569544,-0.23670148164145646
1761507745242067700,1.600067626953125,0.3576566693395376,0.40984862886965273,-0.18437058856468647
1761507745252039700,1.610039794921875,0.27074352504014965,0.4646912490390241,-0.10484665946746244
1761507745262011600,1.62001171875,0.15397943235635755,0.5199548710994422,-0.02467916720311623
1761507745271983600,1.629983642578125,0.04149754703640938,0.5712028277777135,0.02816321449317038
1761507745281955800,1.639955810546875,-0.06120119541585445,0.5975172725990414,0.07770287854936905
1761507745291927800,1.649927734375,-0.1439788473457098,0.5601544872798025,0.13043711912948638
1761507745301899800,1.659899658203125,-0.2051736130207777,0.4864432082504034,0.1598840532902628
1761507745311871700,1.669871826171875,-0.24507658434212207,0.4177751840852201,0.15920155091881752
1761507745321843700,1.67984375,-0.2931739680349827,0.345952056889981,0.1165975952767767
1761507745331815700,1.689815673828125,-0.3025567134082317,0.30128859316855666,0.0751920556390658
1761507745341788000,1.699787841796875,-0.23874679679870603,0.26026421660184856,0.04229486685998272
1761507745351759600,1.709759521484375,-0.1401350313991308,0.22152605127617717,0.01147308241573628
1761507745361730800,1.719730712890625,-0.04581541023552418,0.17146861955672502,-0.01022401850298047
1761507745371703600,1.72970361328125,0.023791794475913047,0.10664894138276576,-0.03811585957570932
1761507745381674800,1.7396748046875,0.06978840649724007,0.03661152856051922,-0.10302430287851021
1761507745391646700,1.749646728515625,0.10589023196995258,0.006688391722738742,-0.17891382099613545
1761507745401618700,1.75961865234375,0.07719605240523815,-0.013130699729919433,-0.2221735006005503
1761507745411591000,1.7695908203125,0.028709961655735968,-0.024033055885881185,-0.20317381750568747
1761507745421562600,1.779562744140625,-0.015178279909491539,-0.002140080768615007,-0.16351769708488137
1761507745431534800,1.789534912109375,-0.07223463060557841,0.020343553718179464,-0.1203497874171473
1761507745441506600,1.799506591796875,-0.15599311026632784,0.053117257681488984,-0.09756546208388171
1761507745451478800,1.809478759765625,-0.19956687905490397,0.10402283066287636,-0.07061359614185057
1761507745461450800,1.81945068359375,-0.2100532017558813,0.16057488509863613,-0.03301372326426208
1761507745471422700,1.829422607421875,-0.20124036522507666,0.21723229960501192,0.015529056975385173
1761507745481394700,1.839394775390625,-0.12176935362517834,0.283038942989707,0.09448360695312731
1761507745491366700,1.84936669921875,-0.006356091028451919,0.3474526707112789,0.1544775728705339
1761507745501338600,1.859338623046875,0.1220014088153839,0.40401670784577726,0.20276658841166645
1761507745511310800,1.869310791015625,0.2712836232662201,0.4523284649416804,0.240380170154199
1761507745521282600,1.879282470703125,0.44441549986004825,0.5051205823220313,0.2584026239810511
1761507745531254800,1.8892548828125,0.5783966848045587,0.5567553463608026,0.28700335310865194
1761507745541226800,1.899226806640625,0.6114443834036588,0.5796544297806918,0.32903566460888833
1761507745551198700,1.90919873046875,0.522205426505208,0.6081891809999942,0.3684852296069264
1761507745561171000,1.9191708984375,0.335247853654623,0.6848191239550709,0.37698494506794955
1761507745571142700,1.929142578125,0.08700082258284092,0.7568120547592639,0.33349140190873294
1761507745581115000,1.939114990234375,-0.13337035956978796,0.8253241577103734,0.2913957976476289
1761507745591086600,1.949086669921875,-0.2606920866250992,0.8592224817894398,0.28990437177978456
1761507745601058800,1.959058837890625,-0.33290684348642824,0.7842801996603608,0.27388372276201844
1761507745611030800,1.96903076171875,-0.29857436577379703,0.6923853214256465,0.26362147287419063
1761507745621002800,1.979002685546875,-0.20014789381325243,0.5828877126134931,0.27620427466407416
1761507745630974700,1.988974609375,-0.07271043142378329,0.4748458555676043,0.2847608531451784
1761507745640946700,1.99894677734375,0.07643442038297653,0.420673535875231,0.306896934569627
1761507745650918700,2.008918701171875,0.21024141780436037,0.39228484206311404,0.35262411853242664
1761507745660891000,2.018890869140625,0.32008360227048394,0.36191403452306986,0.43310076351091265
1761507745670862600,2.028862548828125,0.3721346920251846,0.3491618127167225,0.5405868498375639
1761507745680834800,2.038834716796875,0.3874316298782825,0.31994317088648677,0.6473199258398264
1761507745690806500,2.048806640625,0.322950097617507,0.2699270210254937,0.7085867338377982
1761507745700778800,2.05877880859375,0.23683541021943091,0.2277155535660684,0.7187959200978279
1761507745710750700,2.068750732421875,0.16024024631679057,0.2011932381477207,0.7369301272034645
1761507745720722700,2.07872265625,0.14692600671350955,0.13419972306601702,0.7218512160152196
1761507745730694700,2.088694580078125,0.18568331513106823,0.07514160409346222,0.7047090886868536
1761507745740666600,2.09866650390625,0.2646247498989105,0.00855235896371305,0.6832512901164591
1761507745750638800,2.108638916015625,0.34149814622104163,-0.06639481853619217,0.6638302580706775
1761507745760610800,2.11861083984375,0.4247521834909916,-0.11435542410686611,0.6233088625900447
1761507745770582800,2.128582763671875,0.49021337443888185,-0.15036540657766162,0.5900870130004361
1761507745780554800,2.1385546875,0.5451999331235885,-0.16660598195642232,0.5871696277163923
1761507745790526700,2.148526611328125,0.550141481178999,-0.18271387086622415,0.5720795375470071
1761507745800498700,2.158498779296875,0.5120528658032417,-0.19110322128795088,0.5390586173569784
1761507745810471000,2.168470947265625,0.4430763602107763,-0.20124767174869776,0.4936310739278793
1761507745820442600,2.178442626953125,0.30092881994545456,-0.24137860660701987,0.41110659304149444
1761507745830414800,2.188414794921875,0.12910276525318623,-0.27949447531588373,0.2969218127937987
1761507745840386600,2.198386474609375,-0.05648936446309089,-0.3210497438888997,0.17210456110639497
1761507745850358800,2.20835888671875,-0.19845979459583757,-0.3691382866881788,0.062407356335222715
1761507745860330800,2.218330810546875,-0.28139760552346704,-0.40601146185956893,0.011447532415948808
1761507745870302700,2.228302734375,-0.34600890164375303,-0.42915231814607974,-0.03943290612418204
1761507745880274700,2.238274658203125,-0.35981940033137794,-0.4631745973983779,-0.07780411956729368
1761507745890246700,2.24824658203125,-0.3607698329240083,-0.5077219239268451,-0.1307581495110877
1761507745900218600,2.258218505859375,-0.39862814667522906,-0.567180002002418,-0.18188264420647174
1761507745910190800,2.26819091796875,-0.44241643499732014,-0.6367730320580304,-0.23519814614010973
1761507745920162600,2.27816259765625,-0.4930903911799192,-0.672875588183105,-0.2960704383951612
1761507745930134800,2.288134765625,-0.5147632938057184,-0.6982678035929799,-0.3383922160949558
1761507745940106800,2.298106689453125,-0.507592963784933,-0.7230829497672617,-0.32050285059586164
1761507745950077700,2.30807763671875,-0.423365697568655,-0.7377065914686769,-0.24913822602415456
1761507745960049700,2.318049560546875,-0.32915596652030943,-0.752954356417805,-0.11726115548573433
1761507745970021600,2.328021728515625,-0.2133200945973396,-0.7606512675959617,0.036663697139173744
1761507745979993900,2.337993896484375,-0.16392799491882323,-0.752871208178997,0.18000965340882538
1761507745989965600,2.347965576171875,-0.17473112848401068,-0.75481445120126,0.27948972607553
1761507745999937800,2.357937744140625,-0.24671441467702387,-0.7391691383019089,0.3302857742678374
1761507746009909500,2.367909423828125,-0.31954291952252384,-0.7085452327836305,0.36866098803263153
1761507746019881700,2.3778818359375,-0.3312356954038143,-0.6675465021148324,0.43175059101097285
1761507746029853700,2.387853759765625,-0.2493617143154144,-0.6315042978748678,0.5386683393977583
1761507746039825700,2.39782568359375,-0.0900602101534605,-0.6250131822898983,0.6549019784666598
1761507746049798000,2.4077978515625,0.1058890629261732,-0.6262188317526132,0.7532274012055248
1761507746059769600,2.41776953125,0.25999533653259277,-0.6511296933863312,0.7949291655771434
1761507746069741800,2.427741943359375,0.3885176715493202,-0.6458885778624563,0.7901438309967518
1761507746079713800,2.4377138671875,0.467542108425498,-0.6249139596991241,0.7728303656894713
1761507746089685800,2.447685791015625,0.47655368239879603,-0.6057428838264197,0.7202458997104316
1761507746099657700,2.45765771484375,0.446079633679986,-0.5961656387943775,0.6710800830684602
1761507746109629700,2.467629638671875,0.39961481962502,-0.5713179055247456,0.5916149897526949
1761507746119601700,2.4776015625,0.3603717735171318,-0.4876598174985498,0.4936229636866599
1761507746129574000,2.487573974609375,0.3429290558069944,-0.3914939839463681,0.38243126430772245
1761507746139545600,2.497545654296875,0.28269582864046094,-0.2934511775411665,0.3109940676901489
1761507746149517800,2.507517822265625,0.18824761266112328,-0.24580891720466314,0.24097307627974077
1761507746159489500,2.517489501953125,0.04325461983680725,-0.19077800792157648,0.16354544360833242
1761507746169461800,2.527461669921875,-0.12630933514237402,-0.12782025116197765,0.10274587866277433
1761507746179433700,2.537433837890625,-0.32182781558930873,-0.03809855224788189,0.10316857018740846
1761507746189405700,2.54740576171875,-0.5123579862296581,0.07603131947480142,0.10006173587902449
1761507746199377700,2.557377685546875,-0.6737070705711841,0.1734653463318944,0.03424235174376517
1761507746209349600,2.567349609375,-0.7688724949091672,0.21408238420672712,-0.026370157063938676
1761507746219321600,2.577321533203125,-0.759531250590086,0.21619294661991298,-0.050150918689183886
1761507746229293800,2.5872939453125,-0.6156757373631,0.24484102202057836,0.023037925634998825
1761507746239265800,2.597265869140625,-0.41145431050062176,0.3209886613514274,0.17418131258152425
1761507746249237800,2.60723779296875,-0.23752923770248888,0.3613319968514144,0.3692012323891744
1761507746259209700,2.617209716796875,-0.1254039107352495,0.43464777375720437,0.5395774901319295
1761507746269181700,2.627181640625,-0.07542670464515686,0.5285787609294057,0.5878191046010702
1761507746279154000,2.63715380859375,-0.07489069807231426,0.5858260310877115,0.5486576723620296
1761507746289125600,2.647125732421875,-0.1340402216553688,0.5482515757791697,0.43049478226359933
1761507746299097900,2.657097900390625,-0.21945406730771064,0.4637313910309225,0.3082974855499342
1761507746309069600,2.667069580078125,-0.3361807505905628,0.3752475633487105,0.20189966938402504
1761507746319041800,2.677041748046875,-0.4515595263957977,0.31159897478073834,0.11470610070805996
1761507746329013800,2.687013671875,-0.48417877044975755,0.2734367827121168,0.044969890188938
1761507746338985700,2.69698583984375,-0.4583791432827711,0.23113040351085362,0.0030149188120529285
1761507746348957700,2.706957763671875,-0.35032968745231624,0.17388970922380684,-0.024029288459639062
1761507746358929700,2.7169296875,-0.2077303117662668,0.11032353824228047,-0.012839575862814671
1761507746368901600,2.726901611328125,-0.08333177868127822,0.048629152482002974,-0.023633434709580615
1761507746378873900,2.736873779296875,0.021826047360897063,-0.004180646685510873,-0.0377142108391039
1761507746388845600,2.746845458984375,0.061244450035691254,-0.029984000179544088,-0.03542297636307776
1761507746398817800,2.75681787109375,0.049721770024299616,-0.06876352042891085,-0.06019818325261585
1761507746408789800,2.766789794921875,-0.06380582495629787,-0.09565613046437502,-0.09417883358658291
1761507746418760700,2.7767607421875,-0.2423398528546095,-0.07284465226270258,-0.1715695409142412
1761507746428732700,2.786732666015625,-0.4192787205159664,-0.010537687562033533,-0.285539125774987
1761507746438704600,2.79670458984375,-0.5863982049524784,0.07200958967804909,-0.4272307024337351
1761507746448676900,2.8066767578125,-0.6514812102377414,0.17912074174508452,-0.5492738680316135
1761507746458648600,2.816648681640625,-0.6050029521793127,0.33033224375806747,-0.6228679869547485
1761507746468620800,2.826620849609375,-0.4128501487731933,0.45658575705997645,-0.6421143930859864
1761507746478592500,2.836592529296875,-0.08616437175869941,0.5354848870560527,-0.612143142790161
1761507746488564700,2.846564697265625,0.25407179170250893,0.5744189402800053,-0.5750828110162168
1761507746498536700,2.85653662109375,0.5143173036038875,0.600606470786035,-0.5699567001741379
1761507746508508700,2.8665087890625,0.6563263121813535,0.6216516699675471,-0.5908195650586858
1761507746518481000,2.87648095703125,0.6529764172315597,0.6246880419887602,-0.6584004881069063
1761507746528452600,2.88645263671875,0.5287707763701677,0.595823401227966,-0.7654770072519779
1761507746538424800,2.8964248046875,0.3534077797234058,0.5270500900574028,-0.9054375588670373
1761507746548396800,2.906396728515625,0.15271803411841392,0.4436284411355853,-1.0049258879054337
1761507746558368800,2.91636865234375,0.015869184783101082,0.3665908672276884,-1.0350473968595266
1761507746568340700,2.9263408203125,-0.03982815251946449,0.28038967058993874,-0.9652095251973718
1761507746578312700,2.936312744140625,-0.0744008687287569,0.16383900146111846,-0.8358505201607942
1761507746588284700,2.94628466796875,-0.07115677224099635,0.065810442776978,-0.6466673071499913
1761507746598257000,2.9562568359375,-0.04576514135301113,0.001600493999198079,-0.46968591552115974
1761507746608228600,2.966228515625,-0.029205051696300506,-0.05528539550080895,-0.32270832475088534
1761507746618200800,2.976200927734375,-0.051042789494991296,-0.1318213034968823,-0.18174239548556506
1761507746628172500,2.986172607421875,-0.082239307269454,-0.19785254941768943,-0.08081540281302295
1761507746638144800,2.996144775390625,-0.11942016015052795,-0.24883761737607418,-0.031466804349515584
1761507746648116700,3.00611669921875,-0.1146340949177742,-0.3016976854261011,0.0013053835101425647
1761507746658088700,3.016088623046875,-0.06446399660408496,-0.3274286312710494,0.07459234531340189
1761507746668060700,3.026060791015625,-0.012664835783839225,-0.3666409169144928,0.12748557584751397
1761507746678032600,3.03603271484375,0.05721826325953006,-0.3678734543841332,0.1967179376308806
1761507746688004600,3.046004638671875,0.17513854024112224,-0.3741263042338192,0.28375315567366777
1761507746697976800,3.055976806640625,0.31567572270035743,-0.3473217378079891,0.3509023727737367
1761507746707948800,3.06594873046875,0.44519583658277984,-0.34568083873316646,0.39092586520221084
1761507746717920800,3.075920654296875,0.5857943938404321,-0.3328258872047066,0.43124191083647306
1761507746727892700,3.085892822265625,0.672276745507121,-0.30942258058972655,0.48112073458600785
1761507746737864700,3.09586474609375,0.739021546524763,-0.29047311157844957,0.5139693669490516
1761507746747837000,3.1058369140625,0.7421639362037181,-0.2564682583849877,0.5101608415115625
1761507746757808600,3.11580859375,0.7036451127171516,-0.2261863712374121,0.4683942317428067
1761507746767780900,3.12578076171875,0.6075830318003893,-0.22483751391172407,0.4116895440286025
1761507746777752600,3.135752685546875,0.49072775370180605,-0.24184059809558092,0.3400490799238905
1761507746787724800,3.145724853515625,0.3732943834543228,-0.2576874979816377,0.2469683163728565
1761507746797696800,3.15569677734375,0.3083493253350258,-0.2897469161957502,0.1455497864568606
1761507746807668700,3.165668701171875,0.3091764238089323,-0.3347751946415752,0.06243590200969484
1761507746817640700,3.175640625,0.3036170361161232,-0.3777615189310163,0.04045625782255083
1761507746827612700,3.18561279296875,0.32526597334444524,-0.3944961614370346,0.11729678392154164
1761507746837584600,3.195584716796875,0.35380700817406174,-0.397341321735084,0.23909524491019546
1761507746847556900,3.205556884765625,0.3625362580746412,-0.4276166330114007,0.4052814670845866
1761507746857528600,3.215528564453125,0.335208690688014,-0.4461803906407207,0.5316432265339419
1761507746867500800,3.225500732421875,0.2880126397490501,-0.4353782799888402,0.581762325312756
1761507746877472500,3.235472412109375,0.21918869436979294,-0.4482784588985145,0.6104195704005658
1761507746887444700,3.24544482421875,0.17905425238013267,-0.48059192493893205,0.6289672536779195
1761507746897416700,3.255416748046875,0.15738310332000255,-0.534867778071016,0.6747668818224221
1761507746907387600,3.2653876953125,0.15148644649684428,-0.6107048901479691,0.7299940443299711
1761507746917359900,3.27535986328125,0.1495861658334732,-0.6896180486693978,0.8111247327703982
1761507746927331600,3.28533154296875,0.14280103573799133,-0.7474222951233387,0.877219618511945
1761507746937303800,3.2953037109375,0.15408464629650115,-0.7574542981855571,0.9368318642359227
1761507746947275500,3.305275634765625,0.14518296243846415,-0.7862146748542785,0.963558543119952
1761507746957247700,3.315247802734375,0.10534779565632342,-0.8314935670603066,0.9920921983607113
1761507746967219700,3.3252197265625,-0.008204349243640899,-0.890651347015053,1.0229007397308945
1761507746977191700,3.335191650390625,-0.1928074679225683,-0.9382124318741262,1.0163144201431422
1761507746987164000,3.345163818359375,-0.40732875500321386,-0.9489430847249924,0.9629162266284227
1761507746997135600,3.355135498046875,-0.5915624558478594,-0.8995110183622688,0.8278984651777893
1761507747007107800,3.36510791015625,-0.7022592113167047,-0.845591869713366,0.6364644045002759
1761507747017079800,3.375079833984375,-0.752048785880208,-0.8153336557023226,0.42044842188246545
1761507747027051800,3.3850517578125,-0.7590057654112577,-0.8525907886900007,0.22632503078943117
1761507747037023700,3.395023681640625,-0.7679892823338508,-0.8990792028162627,0.002748476724233478
1761507747046995700,3.40499560546875,-0.7622825951248406,-0.9038457596309483,-0.18590631023198365
1761507747056967700,3.4149677734375,-0.797019561985135,-0.8884997219391166,-0.3681294384391978
1761507747066940000,3.42493994140625,-0.8450514792263507,-0.8517009271781891,-0.5238946947664023
1761507747076911600,3.43491162109375,-0.931348537454009,-0.7836799687448889,-0.6979292192883789
1761507747086883800,3.4448837890625,-0.9794961900293826,-0.7023171520490199,-0.8679460326015949
1761507747096855600,3.45485546875,-1.119156589654088,-0.5651079449687153,-0.969106094244495
1761507747106827800,3.464827880859375,-1.2493734536290169,-0.3736719115298241,-1.077484855094552
1761507747116799700,3.4747998046875,-1.3885785107016562,-0.14232194698415696,-1.1961878799516708
1761507747126771700,3.484771728515625,-1.408547532019019,0.1002878088530153,-1.2929691419884561
1761507747136743700,3.49474365234375,-1.3053133675158024,0.2955684619560838,-1.3299134096346794
1761507747146715600,3.504715576171875,-1.0769523556530476,0.47093686543032526,-1.2580987580068408
1761507747156687600,3.5146875,-0.7615133643180132,0.5927440668478607,-1.119148625543341
1761507747166659800,3.524659912109375,-0.34854221951365466,0.6784788150176405,-1.0170207417815924
1761507747176631800,3.5346318359375,0.10583587143421172,0.7623881013259292,-0.9452063093494624
1761507747186603800,3.544603759765625,0.5642711288183927,0.8083451119892299,-0.893983267916739
1761507747196575700,3.55457568359375,0.9737123459309339,0.7935283588685095,-0.8016000947084277
1761507747206547700,3.564547607421875,1.2951672365546225,0.6914253903523087,-0.7258904084034263
1761507747216520000,3.57452001953125,1.4644371770232916,0.56452802618891,-0.7031234269306064
1761507747226491600,3.58449169921875,1.5098182874947785,0.4463838773235678,-0.6907064284279942
1761507747236463900,3.5944638671875,1.446653683051467,0.3489237661771476,-0.7372671040728688
1761507747246435600,3.604435546875,1.3316799809157847,0.2670984465360641,-0.8176200130738317
1761507747256407800,3.61440771484375,1.159628885295987,0.20644450973942874,-0.8943997397631406
1761507747266379800,3.6243798828125,0.9578016600936651,0.16208689709678292,-0.9599520430605858
1761507747276351700,3.634351806640625,0.7983715611159801,0.17048501534685492,-0.9671887893810868
1761507747286323700,3.64432373046875,0.6770587190866469,0.2378992400586605,-0.8762132910136133
1761507747296294700,3.654294677734375,0.5698094737231731,0.32248101880103347,-0.6777783385980873
1761507747306267000,3.664266845703125,0.47180268847942347,0.41074864644929765,-0.4393572666224092
1761507747316238600,3.674238525390625,0.3565981001973152,0.4971152627818286,-0.22375300661064684
1761507747326210800,3.6842109375,0.2645931857168674,0.5693998700089752,-0.018730812158761545
1761507747336182800,3.694182861328125,0.17171850266456604,0.6019575931340456,0.16790281683392821
1761507747346154800,3.70415478515625,0.08147533715963363,0.6059029697589576,0.2951422906995751
1761507747356126700,3.714126708984375,0.019393267256021498,0.579443417378515,0.3571283346164971
1761507747366098700,3.7240986328125,-0.016017653343081473,0.548440522480011,0.3848303978713229
1761507747376070700,3.734070556640625,-0.05154664736390113,0.47483825678303837,0.3590054901326075
1761507747386043000,3.74404296875,-0.12138006204664706,0.38985944154709573,0.3245433581583202
1761507747396014600,3.7540146484375,-0.17538228586912155,0.3292084273599088,0.2739665970061905
1761507747405986800,3.76398681640625,-0.16572598425149918,0.34313597655594347,0.19359153097234666
1761507747415958500,3.77395849609375,-0.044077042135596274,0.41050972312688827,0.1578768781863153
1761507747425930800,3.7839306640625,0.0943389103859663,0.46717795128822326,0.20920274067269637
1761507747435902700,3.79390283203125,0.22124913403093813,0.5181358389787376,0.3007257716540247
1761507747445874700,3.803874755859375,0.2715256153285503,0.5882271739453077,0.37132995151355863
1761507747455847000,3.813846923828125,0.2448971361219883,0.6463536380909383,0.3850870760461315
1761507747465818600,3.823818603515625,0.1411339793086052,0.6825945797733962,0.35488705849573016
1761507747475790800,3.833790771484375,-0.005028057295084,0.696007530510798,0.2711725641071796
1761507747485762800,3.8437626953125,-0.16422785464823245,0.6810033650591969,0.19180468408819287
1761507747495734800,3.85373486328125,-0.27923838166296483,0.6623709261078388,0.1270766662530601
1761507747505706800,3.863706787109375,-0.3671072192519903,0.6375631595224142,0.10399588785702361
1761507747515678700,3.8736787109375,-0.40272096894681453,0.6329319195251911,0.09282468816442414
1761507747525650700,3.883650634765625,-0.3666056994706392,0.627754443822056,0.1034355779599864
1761507747535623000,3.893622802734375,-0.27600305300354955,0.6162125476535409,0.1056075060384348
1761507747545594600,3.9035947265625,-0.13284136725962162,0.5610197258070111,0.1277707494644448
1761507747555566800,3.91356689453125,0.007212415596842765,0.46444735728055236,0.14650561674381604
1761507747565538600,3.92353857421875,0.09096738812625407,0.36729127058200534,0.17777939187241718
1761507747575510800,3.9335107421875,0.10330898330509662,0.30971447620838877,0.20530821745218708
1761507747585482800,3.943482666015625,0.06229483587145805,0.2859649865042418,0.2675314676584676
1761507747595455200,3.953455322265625,-0.014521277305483818,0.2986488923147321,0.3419978759041056
1761507747605427200,3.96342724609375,-0.07087737077772617,0.29767062186710536,0.3811245656233281
1761507747615399200,3.973399169921875,-0.036947044125199315,0.28351160200275477,0.3982107249807566
1761507747625371100,3.98337109375,0.07469020706415176,0.24907449487186967,0.4247856473691761
1761507747635343400,3.99334326171875,0.23820494500696657,0.16413520792871714,0.4746623522268608
1761507747645315000,4.003315185546875,0.3987146559149027,0.09719174253381788,0.5537627038834616
1761507747655287300,4.013287353515625,0.4981324770003557,0.06518902294300497,0.6110036904314533
1761507747665258200,4.02325830078125,0.49973698958754537,0.04986819275766611,0.6126793320260941
1761507747675230200,4.033230224609375,0.505232079872489,0.031927681593224407,0.6329845264952629
1761507747685201200,4.043201171875,0.40717677931189533,0.021116949243471024,0.6250912890274077
1761507747695173400,4.05317333984375,0.2646948925256729,0.047470922357589006,0.5784323406398296
1761507747705145000,4.06314501953125,0.15775661280751227,0.056835036095604294,0.49525969804301856
1761507747715117300,4.073117431640625,0.09873509951829909,0.0377847370583564,0.4390011101284995
1761507747725089300,4.08308935546875,0.12563713496923445,0.0036309769134968517,0.4069706622805446
1761507747735061200,4.093061279296875,0.2257861929386854,-0.030104411688819527,0.3857417405625805
1761507747745033200,4.103033203125,0.3639461248725652,-0.0643210810020566,0.37275202020592985
1761507747755005200,4.113005126953125,0.4689963988870382,-0.10878171562775969,0.37584319115430115
1761507747764977200,4.12297705078125,0.5486281540066004,-0.15063699006065726,0.39201289325393734
1761507747774949400,4.132949462890625,0.5659159734159708,-0.1929668232027441,0.42274822325743733
1761507747784921000,4.142921142578125,0.5386544570028782,-0.19789646162465213,0.420797965972498
1761507747794893300,4.152893310546875,0.46714404901862144,-0.21904789765961466,0.3765944479130208
1761507747804865000,4.162864990234375,0.36486207067370413,-0.26623708046637473,0.3192556270137429
1761507747814837200,4.172837158203125,0.275819513130188,-0.3454408194322139,0.27310307551203294
1761507747824809200,4.182809326171875,0.17981179274916648,-0.44320977733209727,0.22478152767447754
1761507747834781200,4.19278125,0.07518003640770912,-0.5585279089912771,0.1973068251684308
1761507747844753200,4.202753173828125,-0.03530862926840782,-0.6554976062722504,0.20282768921544775
1761507747854725000,4.21272509765625,-0.15322656816244123,-0.7572575335044414,0.2387026288634166
1761507747864697300,4.222697265625,-0.22991057939231394,-0.8339055235728621,0.27679403898445887
1761507747874669300,4.23266943359375,-0.3083259444594383,-0.8727152928300201,0.30243431087126954
1761507747884641300,4.242641357421875,-0.37275954592525956,-0.8848851847037672,0.30823293241374194
1761507747894613200,4.25261328125,-0.4014578171432018,-0.9025293432701379,0.3030720973181538
1761507747904585200,4.262585205078125,-0.41606969534158705,-0.9132827194094657,0.31246713591739533
1761507747914557200,4.27255712890625,-0.42759880509376524,-0.9244397079136222,0.30401843825755637
1761507747924529400,4.282529296875,-0.4575853625565767,-0.9170637723181396,0.2942896741919219
1761507747934501000,4.292501220703125,-0.46189971862435336,-0.8470181761894374,0.27937547031240534
1761507747944473300,4.302473388671875,-0.4240022419065237,-0.8143292279001325,0.2498888799946755
1761507747954445000,4.312445068359375,-0.3504752334028482,-0.7280108346235007,0.25062037260700015
1761507747964417300,4.322417236328125,-0.2774491601586342,-0.6602505729530006,0.29791221207063645
1761507747974389200,4.33238916015625,-0.22768004386126994,-0.5843905183918774,0.3685380557727068
1761507747984361200,4.342361328125,-0.22467326326072215,-0.4833312867749482,0.4292375122115016
1761507747994333200,4.352333251953125,-0.2440425651192665,-0.35557905934788286,0.4494548092015087
1761507748004305200,4.36230517578125,-0.23193068704307077,-0.21724362471662462,0.4395443136271089
1761507748014277000,4.372277099609375,-0.1400876851260662,-0.10295337480045855,0.4000480964757502
1761507748024248000,4.382248046875,0.06311492008268833,-0.01580276848338544,0.3630985315999016
1761507748034220300,4.39222021484375,0.24755963332951067,0.029527269387990236,0.3616848288770765
1761507748044194300,4.4021943359375,0.28896482590734957,0.07409662508517503,0.36663974787071346
1761507748054166300,4.412166259765625,0.06398235056698322,0.1625681778077036,0.3080231621205807
1761507748064138200,4.42213818359375,-0.324525968632102,0.2480972473375499,0.25099369943141936
1761507748074110200,4.432110107421875,-0.7827922991901636,0.33060864954665303,0.22577419197363777
1761507748084082200,4.442082275390625,-1.097277935323119,0.4730672285225242,0.3584054418802261
1761507748094054100,4.45205419921875,-1.2789654588162898,0.5897779835838824,0.6864151609748601
1761507748104026400,4.4620263671875,-1.375937640315294,0.5728446767006069,0.9141108407966793
1761507748113998000,4.471998046875,-1.2096762340128422,0.673420070323348,0.9517661062564701
1761507748123970300,4.48197021484375,-0.8595575589627027,0.6750587774410843,0.8827051372509449
1761507748133942000,4.49194189453125,-0.39834114642739293,0.5216007386103272,0.8494736065175383
1761507748143914200,4.501914306640625,0.10465338365137576,0.3776235717650503,0.81469988784343
1761507748153886200,4.51188623046875,0.5600462045997381,0.23962781741693615,0.785227125121653
1761507748163858200,4.521858154296875,0.8845470387905836,0.148407404377684,0.7430144155532121
1761507748173830100,4.531830078125,1.0693377889961004,0.0781388862133026,0.6909580651015043
1761507748183802000,4.541802001953125,1.1230892529278993,0.07656447650343179,0.5712353052752092
1761507748193773300,4.551773193359375,1.047553242689371,0.11948591886311768,0.42762876184061166
1761507748203745000,4.5617451171875,0.8778805666387081,0.13062478718869389,0.2843823386889882
1761507748213717200,4.57171728515625,0.6338637204825878,0.13374438051395118,0.1846232481515035
1761507748223689200,4.581689208984375,0.39037177498340603,0.12265300459191203,0.09625557592855766
1761507748233661200,4.5916611328125,0.16005729096531868,0.09857684021666645,0.045875177598744626
1761507748243633200,4.601633056640625,-0.050711365583539,0.07303462187685072,0.013565442451951093
1761507748253605000,4.611605224609375,-0.21811668122410774,0.042864451475441455,-0.005080426803138107
1761507748263577300,4.621577392578125,-0.3455833697080612,0.03346139396652579,-0.02131599721321836
1761507748273549300,4.63154931640625,-0.4391927967756986,0.06039060968533158,-0.03906166165899485
1761507748283521300,4.641521240234375,-0.5327238979101181,0.08308854450993239,-0.055894595174025744
1761507748293493200,4.6514931640625,-0.6192004043579101,0.13644815957993267,-0.09330728404959664
1761507748303465200,4.66146533203125,-0.7106453468680382,0.22346301068812607,-0.17651048618145285
1761507748313437200,4.671437255859375,-0.7906424281686544,0.33565248893275856,-0.2990562310066074
1761507748323409400,4.681409423828125,-0.8306371694266795,0.42885391972139475,-0.4270692282617092
1761507748333381000,4.691381103515625,-0.8675532338917255,0.5057379105027765,-0.5666901726588607
1761507748343353300,4.701353271484375,-0.8355237724244594,0.5853706154704094,-0.71754482405819
1761507748353325000,4.711324951171875,-0.7981225547909736,0.675755600598827,-0.8454486618503928
1761507748363297300,4.72129736328125,-0.6997089423120021,0.8208156673099846,-0.8497174982760101
1761507748373269200,4.731269287109375,-0.669906509244442,0.8421680327445268,-0.885358866630122
1761507748383241200,4.7412412109375,-0.6385147611588239,0.8828009988408535,-1.0206113866847009
1761507748393213200,4.751213134765625,-0.578856703531742,0.9478656647518277,-1.2404966119512915
1761507748403185200,4.76118505859375,-0.46564416584968565,0.9163838272299617,-1.388861273165792
1761507748413157000,4.7711572265625,-0.30391046610474587,0.7777038169447332,-1.5325772317916153
1761507748423129300,4.78112939453125,-0.06705459761917591,0.6072834643319249,-1.6261261608436703
1761507748433101000,4.79110107421875,0.2775175492197275,0.430232660728693,-1.5759546012252568
1761507748443073300,4.8010732421875,0.5725917979180812,0.2080361628450453,-1.3953598414048551
1761507748453045200,4.811045166015625,0.7916133190274238,0.04692380986884236,-1.1504705232631414
1761507748463017200,4.821017333984375,0.897528685438633,-0.038484628956019874,-0.9182889301989227
1761507748472989400,4.830989501953125,0.8949345772922038,-0.0768257577881217,-0.7051902232673019
1761507748482961200,4.840961181640625,0.7928659494370222,-0.09900660993605852,-0.5062923295151442
1761507748492933400,4.850933349609375,0.5930395426630973,-0.12583148849755524,-0.3234713084800169
1761507748502905000,4.860905029296875,0.3900140475869179,-0.09302899683117866,-0.1647176474591717
1761507748512877300,4.870877197265625,0.20430442897081375,-0.060358241785690186,-0.025705532842478715
1761507748522849300,4.880849365234375,0.09375205040872096,-0.06733721395283937,0.11265013629263267
1761507748532821200,4.8908212890625,0.021738369077444076,-0.0821698222298175,0.21100564364250748
1761507748542792400,4.90079248046875,0.0020657003581523894,-0.12193104699291288,0.2063192393919453
1761507748552764200,4.91076416015625,0.03517944993078709,-0.20423633217066525,0.19039280799627303
1761507748562736400,4.920736328125,0.12590718408226967,-0.2836727839138359,0.15877707842905073
1761507748572708000,4.9307080078125,0.22614918103218076,-0.3650849927093833,0.09834865748398006
1761507748582680300,4.940680419921875,0.305333192384243,-0.4232678632173687,0.023429623799747785
1761507748592652300,4.95065234375,0.35399347065687176,-0.4235135816067457,-0.04219502778127789
1761507748602624000,4.9606240234375,0.38718203903138637,-0.40453576328381896,-0.09514165073675103
1761507748612596000,4.970595947265625,0.4505389511764049,-0.36640666976720093,-0.1311513135471381
1761507748622568000,4.98056787109375,0.4976379714816808,-0.3425172601357102,-0.11773436248805373
1761507748632540000,4.990539794921875,0.4925169752061367,-0.32520803261213005,-0.08153893131460063
1761507748642512100,5.00051220703125,0.45093058084249493,-0.2939750552847981,-0.05810986920385621
1761507748652483800,5.01048388671875,0.3847895909368992,-0.28578217728324234,-0.05420339981722645
1761507748662456000,5.0204560546875,0.3227724029630422,-0.2932210951123386,-0.07671510962103494
1761507748672427800,5.030427734375,0.2846510543614626,-0.3166295893590897,-0.0924910996953491
1761507748682400000,5.04039990234375,0.2587672560423612,-0.3419119146537036,-0.09337992916069925
1761507748692372000,5.0503720703125,0.22069266919195651,-0.3941789852466434,-0.0794148244332522
1761507748702344000,5.060343994140625,0.17527707192897796,-0.44586350671127434,-0.035506195383833254
1761507748712316200,5.070316162109375,0.13096914364695547,-0.4920288994282484,0.00970035767176887
1761507748722287900,5.080287841796875,0.10174012655317782,-0.548392372489348,0.05072043023940641
1761507748732260000,5.090260009765625,0.08515490245521068,-0.5841583901364356,0.10231038245549424
1761507748742232000,5.100232177734375,0.08030337077081202,-0.6009663170743733,0.16877369965063407
1761507748752204000,5.1102041015625,0.13684066602885722,-0.6043009413897991,0.21483267285106702
1761507748762176000,5.120176025390625,0.20702654741108417,-0.6143588826108723,0.2483050083367154
1761507748772148000,5.13014794921875,0.3115384767651558,-0.6030115591663867,0.26190705190543084
1761507748782120000,5.140119873046875,0.40859775202572346,-0.5940152558274566,0.2521308685014956
1761507748792092200,5.150092041015625,0.4515671251803636,-0.6222802501946687,0.2961789220046252
1761507748802064000,5.16006396484375,0.41926644555628295,-0.6704813134577124,0.3508915591187775
1761507748812036000,5.1700361328125,0.2825152113765478,-0.692848847284168,0.37050259731132534
1761507748822007800,5.1800078125,0.040430794587731356,-0.6688583153657615,0.35328429947420953
1761507748831980000,5.18997998046875,-0.28178046736121176,-0.6072367756459862,0.2492125151030719
1761507748841951000,5.199950927734375,-0.5965092646002769,-0.5773915994152427,0.08229350340841338
1761507748851923000,5.2099228515625,-0.7739473139554262,-0.5198495840940625,-0.051871970328129825
1761507748861895200,5.219895263671875,-0.8232493972629308,-0.5059231308765709,-0.10885817839745432
1761507748871867000,5.229866943359375,-0.7795628157496451,-0.5558088592909276,-0.10972710671909153
1761507748881839000,5.239839111328125,-0.6384253293097019,-0.5934557953137904,-0.10533111851615831
1761507748891810800,5.249810791015625,-0.4718056110888719,-0.6288936769850552,-0.09075211967406793
1761507748901783000,5.259782958984375,-0.27154139741957184,-0.6881364318095147,-0.07883326168563216
1761507748911755000,5.269755126953125,-0.09318272608816623,-0.7770170767895876,-0.11400761531619355
1761507748921727000,5.27972705078125,-0.0045341362982988355,-0.8542373868532478,-0.22847822676794602
1761507748931699000,5.289698974609375,-0.013230652973055838,-0.8509588035739958,-0.3793355633147061
1761507748941671000,5.2996708984375,-0.13975450764894484,-0.8072418269224464,-0.5558787096567451
1761507748951643000,5.309642822265625,-0.3676934947073459,-0.700955142980814,-0.7039196918748318
1761507748961615000,5.319614990234375,-0.7133288868635892,-0.5373351910978555,-0.8123805049851536
1761507748971586800,5.3295869140625,-1.0914864924401044,-0.3053163873799145,-0.8671692030102014
1761507748981559000,5.33955908203125,-1.393165253970027,-0.010008037664741277,-0.8634072201281785
1761507748991531000,5.349531005859375,-1.556837812823057,0.26735841264650223,-0.8379073796253651
1761507749001503000,5.3595029296875,-1.546253874966502,0.481266682395339,-0.7849035191904753
1761507749011475200,5.36947509765625,-1.3597037138730286,0.604035130060464,-0.6950710533782839
1761507749021447000,5.379447021484375,-1.017206035220623,0.6585581628866494,-0.563099783484079
1761507749031419100,5.389419189453125,-0.5508697954535484,0.6988716147050261,-0.39384452912788837
1761507749041390800,5.399390869140625,-0.04513853388726711,0.6832385767653584,-0.19144271890800446
1761507749051363000,5.409363037109375,0.37149171794652935,0.6364972838565707,-0.034237054514139886
1761507749061335000,5.4193349609375,0.6229454361051321,0.5738586029835046,0.05489789402056485
1761507749071307000,5.42930712890625,0.7348539054512977,0.5374021188542246,0.0614701850829646
1761507749081279000,5.439279052734375,0.773188604542613,0.5295699639238417,0.03457483510114252
1761507749091251000,5.4492509765625,0.793368053740263,0.5319027907855809,0.006753164054639637
1761507749101223000,5.459222900390625,0.8134937269240617,0.5533012603841722,-0.024290501245670018
1761507749111195100,5.469195068359375,0.832264478367567,0.523978135266155,-0.06351097019556909
1761507749121166800,5.479166748046875,0.8676432502627373,0.4517513957060873,-0.10210132454838604
1761507749131139000,5.48913916015625,0.929595556306839,0.43179216513037677,-0.1517834932146594
1761507749141110000,5.499110107421875,0.9793208334624767,0.45475700726285573,-0.14716840063463896
1761507749151082000,5.50908203125,0.968266355484724,0.4444076088145375,-0.06981876510288566
1761507749161054000,5.519053955078125,0.8408645489305258,0.3922963133051991,-0.014449709906615316
1761507749171026000,5.52902587890625,0.6750362733483314,0.3723771224789321,-0.02273530769292265
1761507749180998100,5.538998046875,0.4432464560806751,0.34938758429661393,-0.06937909504398704
1761507749190969900,5.548969970703125,0.26338147183954713,0.3625929566979408,-0.11474497141372411
1761507749200942000,5.558942138671875,0.10056523755490779,0.4226920360907912,-0.12920765039976687
1761507749210913800,5.568913818359375,-0.03183598472177982,0.516328643426299,-0.14081654738988728
1761507749220886000,5.578885986328125,-0.09507599248886107,0.6118161393254995,-0.13566490024775266
1761507749230858000,5.58885791015625,-0.13566226989924907,0.7190197919815778,-0.09250387697853148
1761507749240830000,5.598829833984375,-0.13125322128534317,0.8255686339907348,-0.01780789776071906
1761507749250802000,5.608802001953125,-0.05354688127040863,0.906642843003571,0.07963577370755374
1761507749260774000,5.61877392578125,0.022867665368318555,0.9721690620116888,0.16233897216171025
1761507749270746000,5.62874609375,0.1684948644429445,1.0152047784008085,0.25873313457705077
1761507749280718000,5.638718017578125,0.33024434627890586,1.033277902968973,0.35286296878959983
1761507749290690000,5.64868994140625,0.4826519992738962,1.0497700419560074,0.44119398053027686
1761507749300662000,5.658662109375,0.5809966381698847,1.0700497366577386,0.48544539285209026
1761507749310634000,5.668634033203125,0.6128244395852088,1.0770553776361047,0.5008994940282777
1761507749320606000,5.67860595703125,0.5466396105378866,1.042591674759239,0.48765806393288075
1761507749330578200,5.688578125,0.4477203866243362,1.0499676103547215,0.438863674419187
1761507749340550000,5.6985498046875,0.346624403193593,1.066354023944959,0.3923385815443471
1761507749350522000,5.708522216796875,0.20698855348825454,1.0229589727241546,0.35695765422470865
1761507749360493800,5.718493896484375,0.06355272697806358,0.9318623321950436,0.2706182546926662
1761507749370466000,5.728466064453125,-0.06710252841413021,0.8152705273382366,0.17920757977832108
1761507749380437800,5.738437744140625,-0.1842249330163002,0.6582192132558673,0.15376860261727124
1761507749390410000,5.748409912109375,-0.26605565948486326,0.5113209713321178,0.17868066982738673
1761507749400382000,5.7583818359375,-0.3280307618826628,0.3936322380840778,0.23951383564844725
1761507749410354000,5.76835400390625,-0.34426118119359017,0.29905067804865537,0.3214097363077104
1761507749420325000,5.7783251953125,-0.30157939280867574,0.2169377005726099,0.3937908992445096
1761507749430296800,5.788296875,-0.18074176707565784,0.1541303120691329,0.44621714245453475
1761507749440269000,5.79826904296875,-0.01882102032601833,0.07953114428929985,0.4972546712525189
1761507749450240800,5.80824072265625,0.14568974291682243,-0.00782448308058083,0.5225329048939049
1761507749460213000,5.818212890625,0.26277590716183186,-0.11787336909994482,0.5427226562898606
1761507749470185000,5.82818505859375,0.3428635893553495,-0.19602584544718266,0.5165875866234302
1761507749480157000,5.838156982421875,0.41698973279595375,-0.23476035751104354,0.48526451985985036
1761507749490129000,5.84812890625,0.4592863212555647,-0.24841201237514612,0.4717865410622209
1761507749500100900,5.858100830078125,0.5019055657982826,-0.28455585035867986,0.4837072804804891
1761507749510072800,5.86807275390625,0.49751522188484665,-0.32792591326870024,0.4992078511469066
1761507749520045000,5.878045166015625,0.46072015345096584,-0.3620299159877002,0.5230393931113183
1761507749530017000,5.88801708984375,0.3800736683309078,-0.3745248020321131,0.5577558651728555
1761507749539989000,5.897989013671875,0.25115093581974507,-0.3774476306762546,0.5653105548687279
1761507749549961000,5.9079609375,0.0982861867070198,-0.3619927988477051,0.5498678518693894
1761507749559933000,5.917932861328125,-0.062145198267698286,-0.3542463494393974,0.5187967140402645
1761507749569905200,5.9279052734375,-0.14610299989283085,-0.33841625455766916,0.48166821240093555
1761507749579876900,5.937876953125,-0.1912485480427742,-0.36256504577770826,0.4398987530879676
1761507749589849000,5.94784912109375,-0.20883856526911257,-0.41755408868044613,0.37950664556529373
1761507749599820500,5.957820556640625,-0.25918518919348715,-0.47823060263507067,0.3122587538637221
1761507749609792800,5.967792724609375,-0.36558044807612894,-0.5433612464543431,0.21749321556352078
1761507749619764700,5.9777646484375,-0.44398470722734923,-0.6082910339392721,0.1138358024132438
1761507749629736700,5.98773681640625,-0.48784313817620273,-0.6617774171940982,0.045432840658724306
1761507749639708700,5.997708740234375,-0.48628480281829833,-0.7154956364434212,0.009285751272179186
1761507749649680600,6.0076806640625,-0.4396995772540569,-0.7474023483138531,-0.01945011200979352
1761507749659652600,6.017652587890625,-0.3482277467370033,-0.78269402644746,-0.031076252395659684
1761507749669624800,6.027624755859375,-0.26369477557241916,-0.8212151149563491,-0.03622044688370078
1761507749679596500,6.037596435546875,-0.18419161526858804,-0.8566917212028056,-0.028776560618542134
1761507749689568800,6.04756884765625,-0.13205576983988285,-0.8845156207390129,-0.06356383289396762
1761507749699540700,6.057540771484375,-0.09322364262044429,-0.92580515104793,-0.07789598083551973
1761507749709511700,6.06751171875,-0.06693009445667267,-0.946161345051974,-0.09361238620970398
1761507749719483600,6.077483642578125,0.000025718963146209716,-0.9357919997941702,-0.08831252623591572
1761507749729455600,6.08745556640625,0.12421850034296512,-0.9259838686157017,-0.029158618738688528
1761507749739427800,6.097427734375,0.2186795758038759,-0.9134930742245166,0.06120393536221236
1761507749749399600,6.107399658203125,0.2766547949105501,-0.8617071382120252,0.1759583687240258
1761507749759371800,6.117371826171875,0.2942868977129459,-0.777263598896563,0.28147373949959875
1761507749769343500,6.127343505859375,0.264521289524436,-0.6692944417607039,0.39311259812414645
1761507749779315700,6.137315673828125,0.18910802888274192,-0.5519915660250931,0.44647436861861495
1761507749789287700,6.14728759765625,0.11900690317451953,-0.41348727763295173,0.47275589755102987
1761507749799259600,6.157259765625,0.07308686352074145,-0.3045372927661985,0.4724122717451304
1761507749809232000,6.16723193359375,0.023808745610713958,-0.2369784719519317,0.4555230962645262
1761507749819203600,6.17720361328125,-0.027370237484574317,-0.15249277399517594,0.4065864852685481
1761507749829175800,6.18717578125,-0.06958031670451163,-0.07888561292737722,0.32525720551609993
1761507749839147800,6.197147705078125,-0.009692541974782943,0.030315789417177438,0.2029682484636083
1761507749849119700,6.20711962890625,0.1279179393827915,0.11994535306841134,0.13227987005249597
1761507749859091700,6.217091796875,0.24668811119198797,0.13348185712024568,0.18439663632139563
1761507749869063700,6.227063720703125,0.32233284250199795,0.15644801442697642,0.2323758004620671
1761507749879035600,6.23703564453125,0.3120727297723293,0.20868395922929048,0.22523586557954547
1761507749889007900,6.2470078125,0.17733517350256442,0.2277534744236618,0.25829112643059343
1761507749898979600,6.2569794921875,-0.11539981859326362,0.2747681043811142,0.30078343839170407
1761507749908951800,6.266951904296875,-0.44161096383333204,0.3326158246506005,0.33614743284285065
1761507749918923500,6.276923583984375,-0.727223556703329,0.38592100611962377,0.37193726975694297
1761507749928895700,6.286895751953125,-0.9560030862390995,0.4168815231811255,0.4279758947778493
1761507749938867700,6.29686767578125,-0.9913456177771091,0.5066995220765471,0.49831656486298886
1761507749948839700,6.306839599609375,-0.9094745592981577,0.5901319846533238,0.6088707335233688
1761507749958811600,6.316811767578125,-0.7241185764253139,0.6374433325350284,0.718234194561839
1761507749968783600,6.32678369140625,-0.524974891218543,0.6414312331274151,0.7992254014663398
1761507749978754800,6.3367548828125,-0.39822248848378655,0.6585666384540498,0.8275475328482687
1761507749988726500,6.3467265625,-0.3491512913227081,0.6405139721520244,0.7788920038159937
1761507749998698800,6.35669873046875,-0.37512685957849023,0.6290430223278701,0.677558485302329
1761507750008670700,6.366670654296875,-0.473657376435399,0.6421203113701194,0.597752104268223
1761507750018642700,6.376642578125,-0.6191799460917711,0.6484774983771145,0.5681908595453947
1761507750028614700,6.38661474609375,-0.7840197951585054,0.6230680395714938,0.5050260359063744
1761507750038586600,6.396586669921875,-0.9493541497439145,0.5417453356903046,0.33180428907200693
1761507750048558600,6.40655859375,-1.0650333698004484,0.41616234206110236,0.057791231708740814
1761507750058530800,6.41653076171875,-1.0518225905716418,0.2944062863089144,-0.22348014448601752
1761507750068502800,6.426502685546875,-0.9262743029296397,0.15974661758095024,-0.4862075363310054
1761507750078474800,6.436474853515625,-0.7822773354053497,-0.04199300240315497,-0.7112003504022956
1761507750088446700,6.44644677734375,-0.6765987003594637,-0.19951595258526503,-0.9292654475696385
1761507750098418700,6.456418701171875,-0.6230974117964506,-0.3016482202611863,-1.09310342611745
1761507750108391000,6.466390869140625,-0.6358300521194934,-0.3271258489321917,-1.1784100850682704
1761507750118362600,6.476362548828125,-0.6049924307852983,-0.22449768749810753,-1.2207011205699294
1761507750128334800,6.4863349609375,-0.5099351429969072,-0.036051483524963256,-1.1970912585321813
1761507750138306600,6.496306640625,-0.34687048690915107,0.17627543531656265,-1.1241795323826371
1761507750148278800,6.50627880859375,-0.09301613734960555,0.3788667036939412,-1.0508084450930357
1761507750158250800,6.516250732421875,0.1944768624395132,0.524358366755396,-0.9900906492799519
1761507750168222700,6.52622265625,0.4822317280352115,0.6061021455928683,-0.9253153217043727
1761507750178194700,6.536194580078125,0.7576683793276547,0.6579121931333094,-0.8102014804456382
1761507750188166700,6.546166748046875,0.9557213466882705,0.6840739316109568,-0.6920145884171128
1761507750198138600,6.556138671875,1.0701391685068606,0.7028201331350952,-0.5484998879844323
1761507750208110800,6.56611083984375,1.0920587393701076,0.7258813483141362,-0.4150534309711307
1761507750218082600,6.57608251953125,1.0239783058345318,0.775419140073657,-0.3675419574074447
1761507750228053800,6.5860537109375,0.9243652544379234,0.8118728477239608,-0.35042744873836634
1761507750238025700,6.596025634765625,0.770909553694725,0.8350337238851934,-0.3212600256387144
1761507750247997700,6.605997802734375,0.6129828450173139,0.8263475094087421,-0.2654685437792912
1761507750257969700,6.6159697265625,0.453545147255063,0.8379090601257979,-0.22839502373021095
1761507750267941600,6.625941650390625,0.33973347463607784,0.8413724984526634,-0.198019101623632
1761507750277913900,6.635913818359375,0.26217735674679277,0.7859546356786042,-0.1928871820952743
1761507750287885600,6.645885498046875,0.1823293285280466,0.6746496121183038,-0.20211400625444947
1761507750297857800,6.65585791015625,0.10898001467883586,0.533003883895278,-0.2000881629826501
1761507750307829500,6.66582958984375,0.034466333225369454,0.4132541995294392,-0.1404909869636409
1761507750317801700,6.6758017578125,-0.06332125630974769,0.31208924251571296,-0.06303073979741894
1761507750327773700,6.685773681640625,-0.15690321084856987,0.2345183654487133,0.01081678763120435
1761507750337745700,6.69574560546875,-0.24167525146603583,0.17819398228898645,0.04760799274072051
1761507750347718000,6.7057177734375,-0.24371640190482138,0.10884952016696334,0.05923228822937235
1761507750357689600,6.715689697265625,-0.15004560003876685,0.03450410795249045,0.09200193707207217
1761507750367661800,6.725661865234375,0.015740589967370034,-0.02754552098624408,0.10581095618866383
1761507750377633800,6.7356337890625,0.18893676396906375,-0.08923303861431776,0.05166630082135088
1761507750387605800,6.745605712890625,0.34806408060789107,-0.1634620579075068,-0.03187144419422839
1761507750397577700,6.75557763671875,0.4952244805991649,-0.23252711856625974,-0.07410368501362391
1761507750407549700,6.7655498046875,0.5775988124251366,-0.2833859297964722,-0.07628029840034432
1761507750417521700,6.775521728515625,0.5789402901619672,-0.3093536070067435,-0.11891942582046612
1761507750427494000,6.785493896484375,0.4801110826194286,-0.29811069378480315,-0.17159295832244678
1761507750437465600,6.795465576171875,0.3412695981621742,-0.2799011564206332,-0.19789969476135447
1761507750447437800,6.805437744140625,0.22681144433319567,-0.28948680395483967,-0.18853269494650884
1761507750457409500,6.815409423828125,0.17452303869128227,-0.2863222755093127,-0.18428670967351643
1761507750467381800,6.8253818359375,0.19975451058149338,-0.30050672207586465,-0.19611440051347015
1761507750477353700,6.835353759765625,0.26375439680516716,-0.36784218246303496,-0.1428947693028953
1761507750487325700,6.84532568359375,0.3265525060236454,-0.46138643533997237,-0.026589508036198094
1761507750497297700,6.855297607421875,0.30943536700606344,-0.5250757943097502,0.07207529359171166
1761507750507268600,6.8652685546875,0.23092180226147174,-0.5685081818662584,0.1547211723680608
1761507750517240800,6.87524072265625,0.14869944612681865,-0.5705050547719002,0.2134582609590143
1761507750527212500,6.885212646484375,0.042212417307496065,-0.5782846757974476,0.2405810812874697
1761507750537184800,6.895184814453125,-0.04605447968840599,-0.5986967647071928,0.23003742064237592
1761507750547156700,6.90515673828125,-0.060548868986964224,-0.6615700580537319,0.2186681410944089
1761507750557128700,6.915128662109375,-0.00722878220975399,-0.7329596161372959,0.2254138707612641
1761507750567100700,6.9251005859375,0.07043313414156437,-0.8115553792726248,0.25277833609217776
1761507750577072600,6.93507275390625,0.1613894163519144,-0.8741233329970389,0.27049901222717015
1761507750587044600,6.945044677734375,0.24780337895750998,-0.9086863315299153,0.30258805839456615
1761507750597016800,6.955016845703125,0.30930151149332524,-0.9390667836811393,0.3294931260528043
1761507750606989000,6.964989013671875,0.34111820699274537,-0.9511290504619478,0.37022820081673563
1761507750616961000,6.9749609375,0.3149959237426519,-0.9474974890265613,0.4015145157665014
1761507750626933000,6.98493310546875,0.21242051540911197,-0.9484415649436414,0.40941962633524087
1761507750636905200,6.9949052734375,0.10878770697712897,-0.9184260005820543,0.3998535237517208
1761507750646877000,7.004876953125,-0.005917115089297294,-0.8875088112056255,0.3517641772348434
1761507750656849200,7.01484912109375,-0.10583411786854266,-0.8680246507957577,0.3134979402698576
1761507750666821000,7.024821044921875,-0.17616788328886032,-0.8464644878294318,0.25005486594503745
1761507750676793000,7.03479296875,-0.2377460953235626,-0.8278587176892906,0.19263368225824087
1761507750686765300,7.044765380859375,-0.2702753230065107,-0.8269517589122056,0.1373246775529813
1761507750696737000,7.054737060546875,-0.33389994617700575,-0.8183484004136174,0.09771651532659306
1761507750706709200,7.064709228515625,-0.3880377790778875,-0.7935678871612996,0.054540285355085504
1761507750716681000,7.074680908203125,-0.4443605548024177,-0.7532089887659996,0.011620639943552669
1761507750726653200,7.084653076171875,-0.45342298218011856,-0.7025359093662351,-0.05108361926230136
1761507750736625200,7.094625244140625,-0.429852136978507,-0.6326411929503083,-0.11056462612231262
1761507750746596000,7.10459619140625,-0.37659751665294167,-0.5966587560735642,-0.15989861153857782
1761507750756568300,7.114568359375,-0.3132411890298128,-0.6039316696859895,-0.1849720067902468
1761507750766540000,7.1245400390625,-0.3327396702259779,-0.6247455443296581,-0.21166960571026427
1761507750776512300,7.13451220703125,-0.43316754513680933,-0.5665552211675793,-0.2698503573263995
1761507750786484000,7.14448388671875,-0.5481973613739013,-0.3943038537353277,-0.3437587115641683
1761507750796456200,7.154456298828125,-0.638333559373021,-0.18206227508969605,-0.34736813423298296
1761507750806428200,7.16442822265625,-0.7244891633033752,0.020271803656220434,-0.2880562962276861
1761507750816400100,7.174400146484375,-0.7316308517515658,0.19450572320781648,-0.22969412363003938
1761507750826372000,7.1843720703125,-0.6625964784920215,0.33755700737982985,-0.2163859667076729
1761507750836344000,7.194343994140625,-0.48532852500677104,0.4264049191340804,-0.2896961723892018
1761507750846316000,7.20431591796875,-0.23852526300251484,0.43075909575559196,-0.4887856431907043
1761507750856288300,7.214288330078125,0.05758885013759136,0.39569706165939567,-0.6648287675887345
1761507750866260000,7.224260009765625,0.3060036389917135,0.30552265054173766,-0.6742895466342568
1761507750876232200,7.234232177734375,0.478252887532115,0.24073431735411285,-0.5851780885729938
1761507750886204000,7.244203857421875,0.5319400540560484,0.2895668103884905,-0.49168220488242803
1761507750896176000,7.254176025390625,0.4450976369053125,0.40702896833904084,-0.4447486773371696
1761507750906148000,7.264148193359375,0.24848142434954643,0.5134573988389224,-0.4534166985698044
1761507750916120000,7.2741201171875,0.06597206307947635,0.5893180379219353,-0.4821015988495201
1761507750926092000,7.284092041015625,-0.07435235341191292,0.6151090433910489,-0.5036572317712009
1761507750936064000,7.29406396484375,-0.1691051052957773,0.6089025169011205,-0.4902412853591144
1761507750946036200,7.3040361328125,-0.1764946310251951,0.6163392427731305,-0.4571154434898868
1761507750956008200,7.31400830078125,-0.10301555331647395,0.6543350652989,-0.41403314801268276
1761507750965980200,7.323980224609375,0.013735095363855362,0.7078023054618388,-0.3375708532420918
1761507750975952100,7.3339521484375,0.16724164951145648,0.7647435784108937,-0.18890993076106533
1761507750985924000,7.343924072265625,0.29454642543196674,0.8213118533290922,-0.020778428870951757
1761507750995895000,7.35389501953125,0.4338473440945148,0.8838887940775603,0.08018761717034503
1761507751005867000,7.363866943359375,0.5860410620778799,0.9490076013285667,0.15552932867947966
1761507751015839000,7.3738388671875,0.698237700715661,0.9669510351024567,0.2438447409922257
1761507751025811200,7.383811279296875,0.76437284540236,0.9524749851781874,0.3048456280630082
1761507751035783200,7.393783203125,0.814265295818448,0.9709313369102776,0.33800518953874703
1761507751045755100,7.403755126953125,0.8092085969507694,1.005367859519273,0.34730982817448675
1761507751055727000,7.41372705078125,0.7749597058683634,1.0098634173728525,0.35808030157908793
1761507751065699000,7.423698974609375,0.703899964261055,1.0203658874910324,0.35793808009680356
1761507751075671300,7.43367138671875,0.6113654729485511,1.0274511695768684,0.342799291947484
1761507751085643000,7.44364306640625,0.5247609562069178,1.015458607031405,0.3288668108480051
1761507751095615200,7.453615234375,0.4234779257714748,0.9759330176550894,0.32497860777042803
1761507751105587000,7.4635869140625,0.32448972827494144,0.9042585051503031,0.33437728136517103
1761507751115559200,7.47355908203125,0.212440973675251,0.8532585318837315,0.3040804706430994
1761507751125531100,7.48353125,0.08018646639287472,0.8036967747267335,0.2765650342678651
1761507751135503000,7.493503173828125,-0.04363514358699321,0.7450590000580996,0.26764815284069626
1761507751145475000,7.50347509765625,-0.16157178718149662,0.6943466846264899,0.2516372945645824
1761507751155447000,7.513447021484375,-0.24996494090557098,0.6524719748407601,0.2288263095532544
1761507751165419000,7.5234189453125,-0.34656712004840373,0.5864137678477913,0.21343243239801377
1761507751175391200,7.53339111328125,-0.45228141092956065,0.533096457549557,0.201801579304412
1761507751185363000,7.543363037109375,-0.5534527976840734,0.4826972997203469,0.14741525153517723
1761507751195335200,7.553335205078125,-0.6259311739176512,0.42611295045018194,0.08041545284315943
1761507751205307000,7.563306884765625,-0.6867378170579671,0.33305816159062085,0.04969510121308267
1761507751215279000,7.573279052734375,-0.720903121510148,0.2609820825476199,0.04695270716976374
1761507751225251000,7.5832509765625,-0.6933095966637134,0.21314152316004037,0.05173705536946654
1761507751235223000,7.59322314453125,-0.5960925004929304,0.19498430050499735,0.05205583899505436
1761507751245194200,7.6031943359375,-0.4590881683349609,0.2077545694246888,0.08662135827858
1761507751255166000,7.613166015625,-0.2666501182466745,0.17523126002587378,0.17091277577225117
1761507751265138200,7.62313818359375,-0.08031856833994389,0.1260875821504742,0.26739907345045355
1761507751275110000,7.63310986328125,0.05292728806734085,0.08052877702452242,0.35165461591314523
1761507751285082000,7.64308203125,0.14085223975777625,0.0574318329449743,0.41675084600616247
1761507751295054000,7.65305419921875,0.1963192754358053,0.04450001678802073,0.45666751705929637
1761507751305026000,7.663026123046875,0.2559153737425804,0.03993833489567041,0.513632974601537
1761507751314998300,7.672998291015625,0.3011602906137705,0.020192600940167903,0.5692113251669332
1761507751324970000,7.682969970703125,0.3458808913499117,0.013901318776234984,0.6050547554317861
1761507751334942200,7.692942138671875,0.37432898719906804,0.004766702945157885,0.6425088722962886
1761507751344914200,7.7029140625,0.41020869435369967,-0.01863455784320831,0.6642644117042422
1761507751354886100,7.71288623046875,0.40562195108532906,-0.05438881198726594,0.6455819230660795
1761507751364858000,7.722858154296875,0.39751755508482456,-0.06804112443849444,0.6083236940998583
1761507751374830000,7.732830078125,0.39998073032796383,-0.09297339418642223,0.5668844531219452
1761507751384802000,7.742802001953125,0.38613223771750926,-0.14276070372760294,0.5306412098845467
1761507751394774300,7.752774169921875,0.3659393445163965,-0.20247626369558275,0.5011066339729353
1761507751404746000,7.76274609375,0.3191016054958105,-0.2724117505133152,0.4729550003197044
1761507751414718200,7.77271826171875,0.2745879255086183,-0.329155820389837,0.44349644878637046
1761507751424690000,7.78268994140625,0.2040232739418745,-0.36498847353234887,0.4178373626012355
1761507751434662100,7.792662109375,0.12568565028607845,-0.3884529357500374,0.41418486797567455
1761507751444634000,7.802634033203125,0.020141455274820325,-0.41986514210179443,0.4189906242895871
1761507751454606000,7.812606201171875,-0.105296357730031,-0.4313347036864608,0.4352729199182242
1761507751464578000,7.822578125,-0.2113695450514555,-0.4340334412511438,0.42617081811726093
1761507751474549000,7.832549072265625,-0.30879473101496696,-0.43889775935187936,0.4003028749544173
1761507751484521200,7.842521240234375,-0.3594149111837148,-0.441736051517725,0.36348296434022487
1761507751494493000,7.852492919921875,-0.35977146953642364,-0.4662953232347965,0.32774113128632304
1761507751504465200,7.862465087890625,-0.3443114500761032,-0.49759157505668694,0.282549588570185
1761507751514437000,7.87243701171875,-0.2980868745177984,-0.5176229210205375,0.2465542008803226
1761507751524409000,7.8824091796875,-0.24349720619618892,-0.5339067510191351,0.18679370579207316
1761507751534381000,7.892381103515625,-0.22350071235001087,-0.5502995943501592,0.13752002659514545
1761507751544353000,7.90235302734375,-0.2183914065122604,-0.5395488485593348,0.10708890370260923
1761507751554325000,7.912324951171875,-0.2356950080126524,-0.5217659391093998,0.09597242987193166
1761507751564297200,7.922297119140625,-0.2829945193260908,-0.4951628866050392,0.04075136831160635
1761507751574269200,7.932269287109375,-0.3450163834750652,-0.47836577332206065,-0.05060797827430069
1761507751584241200,7.9422412109375,-0.3815390647083521,-0.4726856818590313,-0.11337092484785244
1761507751594213000,7.952213134765625,-0.3921539822250604,-0.48706682004146273,-0.12289625702956691
1761507751604185600,7.962185546875,-0.34878654966354367,-0.491295762848109,-0.06703845020197331
1761507751614157300,7.9721572265625,-0.3041448593825102,-0.48144262348413464,0.004296930008940399
1761507751624129500,7.982129638671875,-0.20408523326218128,-0.44796033286005255,0.0815983607511036
1761507751634101500,7.9921015625,-0.0844049608707428,-0.3923564459946006,0.1573675586909987
1761507751644073500,8.002073486328126,0.10626081884801387,-0.3234752174701542,0.20778929367819798
1761507751654045700,8.012045654296875,0.3764683373153209,-0.2490949531380087,0.20923856090474874
1761507751664015600,8.022015625,0.3757335932999849,-0.23792554354369638,0.19981477113505824
1761507751673987300,8.0319873046875,0.5998024609267711,-0.21860132293589413,0.22336956025101243
1761507751683959600,8.04195947265625,0.7052484562605619,-0.28177447601184247,0.24623881478821857
1761507751693931500,8.051931640625,0.6711889502704144,-0.33887393519729375,0.214676020984631
1761507751703903500,8.061903564453125,0.5352046088099479,-0.3310512787476182,0.15793679168000815
1761507751713875500,8.07187548828125,0.29122751014232634,-0.25338344411216673,0.11818329356564208
1761507751723847400,8.081847412109376,0.0039759178936481475,-0.11319112956784665,0.1551480560106225
1761507751733819400,8.0918193359375,-0.2490180154442787,0.07555697996132076,0.22729352876171469
1761507751743791600,8.10179150390625,-0.4377420134454965,0.2076863995593041,0.2919431658647023
1761507751753763300,8.111763427734376,-0.4750175588726997,0.29509646053016186,0.3013168146160431
1761507751763735600,8.121735595703125,-0.36473990559875963,0.35617329891398547,0.2906797035338357
1761507751773707300,8.131707275390625,-0.1379752230167389,0.3334860316138714,0.35840156942270696
1761507751783679500,8.141679443359376,0.07397533679306506,0.2616184807550162,0.4600537984967231
1761507751793651500,8.1516513671875,0.20259704053103922,0.2473511782106012,0.5534909377373755
1761507751803623400,8.16162353515625,0.24585224488973617,0.297444192700088,0.5887328584451228
1761507751813594600,8.1715947265625,0.24887539210319518,0.39158918794915076,0.596353708712384
1761507751823566300,8.18156640625,0.203059981867671,0.4871108783788979,0.6170607619807124
1761507751833538600,8.19153857421875,0.12733634010255335,0.5411641748014837,0.6069242756307125
1761507751843510300,8.20151025390625,0.03521744385361671,0.5355394667875021,0.555694621794112
1761507751853482500,8.211482421875,-0.07960194450318812,0.48605121325813233,0.4709320431247353
1761507751863454500,8.221454345703124,-0.19335925658643244,0.4135230065334588,0.36635946962460875
1761507751873426400,8.231426513671876,-0.2743371656179428,0.3631871231988072,0.2690140343664214
1761507751883398700,8.241398681640625,-0.304609554284811,0.3108623310692608,0.20174586706180125
1761507751893370400,8.251370361328124,-0.3024737112998962,0.28571634550541636,0.1832893326666206
1761507751903342600,8.261342529296876,-0.2719529008299112,0.2630640033882111,0.1957028971031308
1761507751913314600,8.271314453125,-0.2351794597059488,0.2598221719227731,0.18944442123025654
1761507751923286500,8.28128662109375,-0.22001637736558913,0.24839469591416416,0.18356338210133835
1761507751933258500,8.291258544921876,-0.22815759824514387,0.2618796159092337,0.19467265900624914
1761507751943230500,8.30123046875,-0.2304354800492525,0.28908545661233365,0.17775151748480275
1761507751953202400,8.311202392578124,-0.20697803209424018,0.3474437567524612,0.12188490629624575
1761507751963174700,8.321174560546876,-0.1728968987941742,0.3970142086725682,0.06450855726501904
1761507751973146400,8.331146484375,-0.13431728503108023,0.4111749090373516,0.006584127630665898
1761507751983118600,8.34111865234375,-0.06922785000503062,0.430678358669579,-0.06990328331487253
1761507751993090300,8.35109033203125,-0.013092705807089804,0.42943982985056933,-0.1482254628063645
1761507752003062500,8.3610625,0.016611527583003043,0.43862434923797844,-0.25839137193467465
1761507752013034500,8.371034423828124,0.03388005777001381,0.4477142491444945,-0.3652475628599524
1761507752023006500,8.38100634765625,0.03412555696368217,0.44877245296053586,-0.4545817968264222
1761507752032979500,8.3909794921875,-0.023916297638416288,0.4419049783438444,-0.6123943045396357
1761507752042951700,8.40095166015625,-0.012447393640875815,0.4669081944361329,-0.682707173302397
1761507752052923400,8.41092333984375,-0.02794657606780529,0.49008404897078867,-0.7490454393457621
1761507752062895600,8.4208955078125,-0.056923664227128024,0.5078897547744214,-0.7777762245938181
1761507752072867300,8.430867431640625,-0.10058861843049526,0.5126785964861512,-0.7728603224363177
1761507752082839600,8.440839599609374,-0.11107786374092102,0.5177310575701296,-0.7536277256347239
1761507752092811500,8.4508115234375,-0.07931669782102108,0.5307658957101404,-0.7296465460665523
1761507752102783500,8.460783447265625,0.0008066402077674866,0.5638837369360029,-0.6709658821042627
1761507752112755500,8.47075537109375,0.11251461854577063,0.5827955773506314,-0.5863891448631883
1761507752122727400,8.4807275390625,0.2590928347349167,0.5618895674441009,-0.4979913880292326
1761507752132699400,8.490699462890625,0.3687912268161773,0.511341794924438,-0.4420811751609668
1761507752142671600,8.500671630859374,0.35421617349684237,0.35728586326576767,-0.4541277694486081
1761507752152642600,8.510642578125,0.25619302164018154,0.2055915461719036,-0.407049463137798
1761507752162614500,8.520614501953125,0.10424655641615391,0.0866449948824942,-0.36196762787383047
1761507752172586500,8.53058642578125,-0.0421498734652996,0.03546045882925391,-0.33714652688279745
1761507752182558500,8.540558349609375,-0.15346505309343336,0.011522460815683007,-0.31371224060766395
1761507752192530400,8.550530517578125,-0.2872381482452154,-0.022978505331650374,-0.274794006007351
1761507752202502400,8.56050244140625,-0.401864059856534,-0.10149207007624209,-0.21009815514246
1761507752212474600,8.570474609375,-0.4592196857601404,-0.18009397069141267,-0.14371349267410113
1761507752222446300,8.5804462890625,-0.4493897811412811,-0.21416998942494392,-0.11458461148655041
1761507752232418600,8.59041845703125,-0.3739607384085655,-0.2593139301396906,-0.04921616772287525
1761507752242390300,8.600390380859375,-0.2726069808244705,-0.3053412295602262,-0.003658627538825385
1761507752252362500,8.610362548828125,-0.1168517709672451,-0.33509266309291125,-0.008796113724866881
1761507752262334500,8.62033447265625,0.03143558722734451,-0.36166458980664606,-0.03020887671029195
1761507752272306400,8.630306396484375,0.16848434304893015,-0.39435426874831314,-0.026790677181084174
1761507752282278700,8.640278564453125,0.28362463392317294,-0.40108766865655776,-0.02854088641585549
1761507752292250400,8.65025048828125,0.35704116778969763,-0.3989318057969212,-0.02948487785125617
1761507752302222600,8.66022265625,0.4224292935013771,-0.38692952557504173,-0.06302677144177724
1761507752312194600,8.670194580078125,0.46456806105077264,-0.38417160516902804,-0.12007255964465438
1761507752322166500,8.68016650390625,0.49813773769736286,-0.4181377337872982,-0.1810567878415808
1761507752332138500,8.690138427734375,0.5223749378532171,-0.4575628584638238,-0.2479371979376301
1761507752342110500,8.7001103515625,0.5365606995940209,-0.5267377361726016,-0.27442413151534273
1761507752352082400,8.71008251953125,0.547327008280158,-0.5673448371753096,-0.23208487295778468
1761507752362054700,8.7200546875,0.5271650947391987,-0.5724058468919248,-0.17010609903186558
1761507752372026400,8.7300263671875,0.43660336480438705,-0.5852002273395657,-0.07650684629837051
1761507752381997600,8.73999755859375,0.2740717926800251,-0.5816128703720868,0.013261139442864806
1761507752391969500,8.749969482421875,0.1140063184082508,-0.5584454914048314,0.05911809639832936
1761507752401941500,8.75994140625,-0.015583353579044341,-0.5684538943957537,0.0991591336166486
1761507752411913500,8.76991357421875,-0.07685878327488899,-0.5981134849265217,0.13044785058605485
1761507752421885400,8.779885498046875,-0.07284428693652152,-0.665003247372806,0.14207325118640438
1761507752431857700,8.789857666015624,-0.08585048350393772,-0.7401168674807995,0.1438925116359722
1761507752441829400,8.799829345703126,-0.09241817145645619,-0.8063352334715426,0.17806080262968316
1761507752451801600,8.809801513671875,-0.09422200600802898,-0.8458524934109299,0.17974305662820114
1761507752461773300,8.819773193359374,-0.08880641070008277,-0.8529200206443667,0.133067120573204
1761507752471745500,8.82974560546875,-0.10825053136050701,-0.9156265791218727,0.1557713938070461
1761507752481717500,8.839717529296875,-0.15424538981616495,-0.9992457964424043,0.10290098702609539
1761507752491689500,8.849689453125,-0.19755203210115432,-0.9899548210058361,0.07605793348709121
1761507752501661400,8.859661376953126,-0.286472424569726,-1.0230081456281244,0.12785348671129904
1761507752511633400,8.86963330078125,-0.33638650229573247,-0.9783590026929974,0.18979396532028914
1761507752521605400,8.87960546875,-0.3695212946563959,-0.8845096293896436,0.2238420913998969
1761507752531577600,8.88957763671875,-0.3998603188186884,-0.763992686978355,0.28751254473980514
1761507752541549600,8.899549560546875,-0.4228817134439945,-0.6331532341256737,0.3577504485702142
1761507752551521500,8.909521484375,-0.48199090501666064,-0.4708076860927045,0.39012927146442233
1761507752561493500,8.919493408203126,-0.46331250803172586,-0.33314722811356184,0.37763964611701667
1761507752571465500,8.929465576171875,-0.38943127926290033,-0.24802761616744098,0.3132283295482397
1761507752581437700,8.939437744140625,-0.3242494897782802,-0.2682285465445369,0.2351840628158301
1761507752591409400,8.949409423828126,-0.31813246820271013,-0.30762634482271967,0.10569796993401832
1761507752601380600,8.959380615234375,-0.37587037142217156,-0.2748157429151237,-0.04712085767774842
1761507752611352300,8.969352294921874,-0.5140209510058165,-0.15156141142919657,-0.1779038950349204
1761507752621324500,8.979324462890625,-0.7024906819850206,0.008624401286616921,-0.24608112174216656
1761507752631296500,8.989296630859375,-0.8951017505526542,0.17092311450317502,-0.2493942831444554
1761507752641268500,8.9992685546875,-1.0444359874516724,0.29620157222785054,-0.19006803302131592
1761507752651240700,9.00924072265625,-1.0832581777989865,0.44366402390561993,-0.16947452313005923
1761507752661212400,9.01921240234375,-0.9859043035060167,0.5762619377981871,-0.1990264520352706
1761507752671184600,9.0291845703125,-0.724269383072853,0.6679895697072148,-0.2523753265155479
1761507752681156400,9.03915625,-0.3385147464960813,0.7001433882065117,-0.28187521470626814
1761507752691128600,9.049128662109375,0.09414368007481097,0.6652182783629745,-0.3072389529403299
1761507752701100500,9.0591005859375,0.5218289944082498,0.6116710317663848,-0.3073504870234057
1761507752711072500,9.069072509765626,0.8703992709726095,0.5410718203429132,-0.28070702944342046
1761507752721044500,9.07904443359375,1.0601444287151098,0.4634632416140288,-0.2566117037099786
1761507752731016400,9.089016357421874,1.0756307516604662,0.44414398944228883,-0.32525519622210414
1761507752740988400,9.098988525390626,0.9407786291003226,0.4912590840995311,-0.4454248230330646
1761507752750960600,9.108960693359375,0.7048918979078531,0.5910600592836738,-0.5070804842181503
1761507752760932400,9.118932373046874,0.3847837457180023,0.6798693925932049,-0.4674197972200811
1761507752770904600,9.128904541015626,0.057984571456909176,0.7583383875437081,-0.4390414421388879
1761507752780876300,9.138876220703125,-0.17035247500836848,0.8637561066310853,-0.43293348065260795
1761507752790848500,9.1488486328125,-0.3352484381765127,0.9080555593457073,-0.4394651474436745
1761507752800820200,9.1588203125,-0.4174427372604608,0.8857869558490812,-0.42546719989255066
1761507752810791400,9.16879150390625,-0.38961306557059283,0.8372181552521883,-0.3745536262677982
1761507752820763600,9.178763671875,-0.31888065622150896,0.8065590322900563,-0.27194780452968553
1761507752830735400,9.1887353515625,-0.21478782906234264,0.760986198638752,-0.13048618243560195
1761507752840707600,9.19870751953125,-0.09254559722840786,0.74742207592763,0.0009518025658093392
1761507752850679300,9.20867919921875,0.021534955459833145,0.7498856895621866,0.12678157403031362
1761507752860651500,9.218651611328125,0.1527712256103754,0.7472348097272217,0.20695625865384934
1761507752870623500,9.22862353515625,0.31750702978074546,0.7541993149776012,0.254430176686123
1761507752880595500,9.238595458984374,0.48176878669857975,0.7257297379489988,0.2537585975674912
1761507752890567400,9.2485673828125,0.6616238340675831,0.7084174416854977,0.20236244632387532
1761507752900539400,9.258539306640625,0.8163701591432094,0.69725585007146,0.17042639876110477
1761507752910511600,9.26851171875,0.9101730629563332,0.6451296492539346,0.14234249658184125
1761507752920483300,9.2784833984375,0.9495710073649882,0.6158401341445744,0.11571516815274953
1761507752930455600,9.28845556640625,0.9437895013540982,0.6079778763368725,0.07754379726382904
1761507752940427500,9.298427490234374,0.9461673364013433,0.6273458630211651,0.06416963503370061
1761507752950399500,9.3083994140625,0.9052800302177667,0.628301702441275,0.06970584278032184
1761507752960371500,9.318371337890625,0.7843424512416124,0.6375983769662678,0.08161736684567295
1761507752970343400,9.328343505859374,0.6075216570019721,0.6229087573565543,0.04096847252785228
1761507752980315400,9.3383154296875,0.40583413253128525,0.5970889641843736,-0.056976517792372026
1761507752990287600,9.34828759765625,0.1786702214986086,0.5576080176673829,-0.1534852373649366
1761507753000259300,9.35825927734375,0.018464461973309514,0.539691691096127,-0.21814046395849435
1761507753010231600,9.3682314453125,-0.14888123243451118,0.5512389210268854,-0.24415731407273558
1761507753020203300,9.378203369140625,-0.3229384071797132,0.5852274076074362,-0.2152137263242155
1761507753030174500,9.388174560546876,-0.49216333946287627,0.613706190855801,-0.17000252905953675
1761507753040146400,9.398146484375,-0.6083353114724159,0.659478200341016,-0.12015897755278274
1761507753050118400,9.408118408203125,-0.6467161877930164,0.7129463172867894,-0.06183571219341829
1761507753060090600,9.418090576171876,-0.6574696369975805,0.709453798995912,-0.0507497978977859
1761507753070062300,9.428062255859375,-0.6190466751009226,0.668530983107537,-0.053556069223862135
1761507753080034600,9.43803466796875,-0.5396417144745588,0.5859816600408405,-0.03154379684217274
1761507753090006300,9.44800634765625,-0.4441863672792911,0.46844154148325323,0.009776329534407704
1761507753099978500,9.457978515625,-0.37428514805734153,0.36305706707835195,0.07596026353258639
1761507753109950500,9.467950439453125,-0.35854806522130966,0.2996527355950326,0.13770190423438325
1761507753119922400,9.47792236328125,-0.2731903336703777,0.272550647527352,0.20201186105422675
1761507753129894400,9.487894287109375,-0.05142915846407413,0.23165187010169028,0.22770866716755553
1761507753139866400,9.497866455078125,0.16529519161880016,0.17430778850540518,0.2893136576113291
1761507753149838300,9.50783837890625,0.2974380552202463,0.09948664853796363,0.39623211838416755
1761507753159810600,9.517810546875,0.3475497013449669,0.01797309825979173,0.3953782780338079
1761507753169782500,9.527782470703125,0.4251999272584915,0.007446662744134664,0.2828993518559262
1761507753179754500,9.53775439453125,0.5157552274525166,0.041207843374833464,0.22253612336786463
1761507753189726500,9.5477265625,0.644971389952302,-0.02975231031551957,0.265181854058709
1761507753199698400,9.557698486328125,0.7502402751535177,-0.06170227680578828,0.29641516017960384
1761507753209670700,9.567670654296874,0.7580109091550111,-0.023958602410182356,0.37140506257638334
1761507753219642400,9.577642333984375,0.6866027925014495,0.03480447913855314,0.45508178223781287
1761507753229613600,9.587613525390625,0.5968108778953551,0.07898242436535656,0.53677320983354
1761507753239585300,9.597585205078126,0.5235808065116405,0.08976005816310643,0.5551216442117467
1761507753249557500,9.6075576171875,0.42460780658423897,0.03770224640667438,0.5929266203405336
1761507753259529500,9.617529541015625,0.2822615288764238,0.03887596636116505,0.571015488512069
1761507753269501400,9.62750146484375,0.10879062958657741,-0.005460165102034807,0.5410397447042167
1761507753279473700,9.6374736328125,-0.065482233735919,-0.0589737286247313,0.4686669112043455
1761507753289445400,9.6474453125,-0.26421792266368865,-0.1407723063893616,0.3036217122912407
1761507753299417600,9.65741748046875,-0.4318342507064342,-0.24058365683704613,0.12169851687867193
1761507753309389300,9.667389404296875,-0.5174094244003296,-0.30805764891207216,-0.005414207068458199
1761507753319361500,9.677361572265625,-0.568466826942563,-0.32739524045810103,-0.040433132675290105
1761507753329333500,9.68733349609375,-0.6256961961179971,-0.32982984719388186,-0.018811266116984186
1761507753339305500,9.697305419921875,-0.6582178250163793,-0.31181510174944993,-0.019736162409558892
1761507753349277400,9.70727734375,-0.6435580160230397,-0.29843934121727944,-0.0010246668726205826
1761507753359249400,9.71724951171875,-0.5528665222287178,-0.28500666286610066,0.029335911534354088
1761507753369221400,9.727221435546875,-0.3979723131150007,-0.236814294366166,0.08633032117644325
1761507753379193600,9.737193603515625,-0.20567162567079067,-0.2084816415902227,0.1854731795117259
1761507753389165300,9.747165283203126,-0.045588031220436094,-0.23029051862061023,0.27253641807259993
1761507753399137500,9.757137451171875,0.08122691535651683,-0.2546837861210108,0.3142803228192031
1761507753409109200,9.767109130859374,0.1981184338122606,-0.2668449832316488,0.28888785168100145
1761507753419081500,9.77708154296875,0.16750059270858764,-0.2826987512499094,0.20739570951703934
1761507753429053400,9.787053466796875,0.07826163581013679,-0.4218443332202732,0.08911434413809328
1761507753439024400,9.7970244140625,0.03416530445218086,-0.4418180307127535,-0.057335747592779804
1761507753448996600,9.80699658203125,-0.013922726890444754,-0.47852264438420533,-0.07508053982229902
1761507753458968300,9.81696826171875,0.0021375965505838392,-0.47293315381407736,-0.11545102819069288
1761507753468940500,9.8269404296875,-0.053393152013421055,-0.39125886001624166,-0.22450530454898251
1761507753478912300,9.836912353515626,-0.19256606038212776,-0.324817425859347,-0.2636131069046445
1761507753488884500,9.846884521484375,-0.3861778304249048,-0.27429091532342137,-0.3516176083710044
