time,seconds_elapsed,z,y,x
1761507743716353500,0.074353515625,0.09441927820444107,-0.10571511834859848,0.3202764689922333
1761507743726325200,0.0843251953125,0.09578654915094376,-0.07775644958019257,0.2794153094291687
1761507743736297500,0.09429736328125,0.0958167165517807,-0.04926338791847229,0.23290449380874634
1761507743746269400,0.10426953125,0.09165765345096588,-0.006358264479786158,0.18649199604988098
1761507743756241400,0.114241455078125,0.08189263939857483,0.021725567057728767,0.14565934240818024
1761507743766213400,0.12421337890625,0.06200042739510536,0.03903105482459068,0.1133304312825203
1761507743776185300,0.134185302734375,0.044728346168994904,0.0417390875518322,0.08589503914117813
1761507743786157300,0.1441572265625,0.029444729909300804,0.03550995513796806,0.07304821163415909
1761507743796129500,0.154129638671875,0.0218629390001297,0.0446368083357811,0.07298542559146881
1761507743806101200,0.164101318359375,0.011917629279196262,0.04327300190925598,0.08526552468538284
1761507743816073500,0.174073486328125,-0.0023941597901284695,0.041956670582294464,0.09097342193126678
1761507743826045200,0.184045166015625,-0.01908658817410469,0.03403136879205704,0.09926730394363403
1761507743836017400,0.194017333984375,-0.03286593407392502,0.025276992470026016,0.09464741498231888
1761507743845989400,0.2039892578125,-0.03979015350341797,0.01121630147099495,0.09127932041883469
1761507743855961300,0.21396142578125,-0.03675525262951851,0.005638474598526955,0.08796872198581696
1761507743865933300,0.223933349609375,-0.0321410596370697,0.025486748665571213,0.08251430839300156
1761507743875905300,0.2339052734375,-0.04163077846169472,0.08384333550930023,0.07020303606987
1761507743885877200,0.243877197265625,-0.05573568120598793,0.14489683508872986,0.04087337478995323
1761507743895849500,0.253849365234375,-0.061419777572155,0.1915740668773651,0.006788934115320444
1761507743905821400,0.263821533203125,-0.060783013701438904,0.1980588585138321,-0.027037205174565315
1761507743915793400,0.27379345703125,-0.0474245548248291,0.18098998069763184,-0.05421895906329155
1761507743925765400,0.283765380859375,-0.027574952691793442,0.15323717892169952,-0.06561728566884995
1761507743935737300,0.2937373046875,-0.006933440454304218,0.11451489478349686,-0.07270537316799164
1761507743945709600,0.30370947265625,0.010826114565134048,0.06486158818006516,-0.07043582946062088
1761507743955681300,0.313681396484375,0.020059598609805107,0.011359644122421741,-0.057775020599365234
1761507743965653500,0.323653564453125,0.018889404833316803,-0.019767649471759796,-0.042434148490428925
1761507743975625200,0.333625244140625,0.01360945962369442,-0.03549963980913162,-0.023147519677877426
1761507743985597400,0.343597412109375,0.007283387240022421,-0.045076899230480194,-0.011337199248373508
1761507743995569400,0.3535693359375,0.003972049802541733,-0.04397162050008774,-0.001929375808686018
1761507744005541400,0.363541259765625,0.00015307730063796043,-0.023086579516530037,0.003755141282454133
1761507744015513300,0.373513427734375,-0.00017296848818659782,-0.0038054604083299637,0.0004510007565841079
1761507744025485300,0.3834853515625,-0.0044763702899217606,0.00924189854413271,-0.009133982472121716
1761507744035457300,0.393457275390625,-0.0015875250101089478,0.019019827246665955,-0.016428153961896896
1761507744045429500,0.403429443359375,-0.0018410580232739449,0.02766497991979122,-0.01680552400648594
1761507744055401200,0.413401123046875,-0.003918400965631008,0.028302408754825592,-0.01555505022406578
1761507744065373400,0.42337353515625,-0.005860111676156521,0.026576947420835495,-0.007729084696620703
1761507744075345200,0.43334521484375,-0.008307289332151413,0.016520118340849876,0.007120827678591013
1761507744085317400,0.4433173828125,-0.008867351338267326,0.0181726086884737,0.023179689422249794
1761507744095289300,0.453289306640625,-0.015065476298332214,0.011254825629293919,0.029077306389808655
1761507744105261300,0.46326123046875,-0.012244923040270805,-0.0041622137650847435,0.022821275517344475
1761507744115233500,0.473233642578125,-0.009425777941942215,-0.02600373886525631,0.012804688885807991
1761507744125205200,0.483205322265625,-0.005842228885740042,-0.05832120031118393,-0.004487481899559498
1761507744135177500,0.493177490234375,-0.0063287122175097466,-0.07010722160339355,-0.020404377952218056
1761507744145149400,0.5031494140625,-0.014544831588864326,-0.060350194573402405,-0.025529097765684128
1761507744155121400,0.513121337890625,-0.027265343815088272,-0.038303911685943604,-0.022859182208776474
1761507744165093400,0.52309326171875,-0.040702588856220245,-0.019436482340097427,-0.018645262345671654
1761507744175065300,0.5330654296875,-0.04968227446079254,-0.011828897520899773,-0.009080599062144756
1761507744185037300,0.543037353515625,-0.0566088929772377,-0.014891798608005047,-0.004414474591612816
1761507744195009500,0.553009521484375,-0.06289349496364594,-0.028975360095500946,-0.0027418266981840134
1761507744204981200,0.562981201171875,-0.06509353220462799,-0.037814926356077194,-0.004624947905540466
1761507744214953500,0.572953369140625,-0.060300104320049286,-0.05309011787176132,-0.013938757590949535
1761507744224925200,0.58292529296875,-0.059168264269828796,-0.08034410327672958,-0.020164428278803825
1761507744234897400,0.5928974609375,-0.0630117803812027,-0.09902272373437881,-0.024113178253173828
1761507744244869400,0.602869384765625,-0.07144973427057266,-0.10111410170793533,-0.018201759085059166
1761507744254841300,0.61284130859375,-0.09078485518693924,-0.0810602605342865,-0.01410035602748394
1761507744264813300,0.622813232421875,-0.1136305183172226,-0.05078811198472977,-0.006704757921397686
1761507744274785300,0.632785400390625,-0.14249582588672638,-0.017526766285300255,-0.0022896151058375835
1761507744284757200,0.64275732421875,-0.172072634100914,0.0019215011270716786,-0.0044619557447731495
1761507744294729500,0.6527294921875,-0.19209454953670502,0.006240815855562687,-0.013475283980369568
1761507744304701400,0.662701416015625,-0.20300978422164917,0.0004479078925214708,-0.03156027942895889
1761507744314673400,0.67267333984375,-0.20582649111747742,-0.000640026293694973,-0.048387300223112106
1761507744324645400,0.682645263671875,-0.19659996032714844,-0.004903214517980814,-0.06839456409215927
1761507744334617300,0.692617431640625,-0.18926410377025604,-0.010859174653887749,-0.08908308297395706
1761507744344589600,0.702589599609375,-0.1773698925971985,-0.009918812662363052,-0.10006968677043915
1761507744354561300,0.712561279296875,-0.1612595170736313,-0.005948135629296303,-0.10354374349117279
1761507744364533500,0.722533447265625,-0.15525461733341217,-0.01857391558587551,-0.10606415569782257
1761507744374505200,0.732505126953125,-0.15483136475086212,-0.02590939775109291,-0.09521336853504181
1761507744384477400,0.7424775390625,-0.15499994158744812,-0.028169356286525726,-0.08023202419281006
1761507744394449400,0.752449462890625,-0.1489991843700409,-0.03665298968553543,-0.06347225606441498
1761507744404421400,0.76242138671875,-0.13720272481441498,-0.05564931780099869,-0.0524291954934597
1761507744414393300,0.772393310546875,-0.12463752180337906,-0.07783374190330505,-0.03623959422111511
1761507744424365300,0.782365234375,-0.11255422234535217,-0.08120131492614746,-0.026090290397405624
1761507744434337300,0.792337158203125,-0.10035252571105957,-0.06288821995258331,-0.015421891584992409
1761507744444309500,0.8023095703125,-0.08881837874650955,-0.014358501881361008,-0.00850832648575306
1761507744454281200,0.81228125,-0.07274018973112106,0.039229292422533035,-0.005293724127113819
1761507744464253400,0.82225341796875,-0.06186330318450928,0.0898842066526413,-0.008890323340892792
1761507744474225400,0.832225341796875,-0.044553861021995544,0.13013052940368652,-0.011966150254011154
1761507744484197400,0.842197265625,-0.024034207686781883,0.15370963513851166,-0.014388295821845531
1761507744494169600,0.852169677734375,0.005806435830891132,0.15677276253700256,-0.014050550758838654
1761507744504141300,0.862141357421875,0.0323733314871788,0.14651267230510712,-0.018678059801459312
1761507744514113500,0.872113525390625,0.05230013281106949,0.1162857934832573,-0.028691358864307404
1761507744524085200,0.882085205078125,0.06570834666490555,0.06995371729135513,-0.034528475254774094
1761507744534057500,0.892057373046875,0.07780873030424118,0.0260176844894886,-0.036380622535943985
1761507744544029400,0.902029541015625,0.08945739269256592,-0.00808142963796854,-0.036082882434129715
1761507744554001400,0.91200146484375,0.09531238675117493,-0.030308471992611885,-0.024229681119322777
1761507744563973400,0.921973388671875,0.100200355052948,-0.024760043248534203,0.0033252474386245012
1761507744573945300,0.9319453125,0.09428060799837112,0.006752342451363802,0.02721790224313736
1761507744583917300,0.941917236328125,0.09093088656663895,0.04125066474080086,0.05407561734318733
1761507744593888800,0.951888671875,0.09131570160388947,0.06490792334079742,0.062306925654411316
1761507744603860700,0.96186083984375,0.09956830739974976,0.06941159069538116,0.06401534378528595
1761507744613832700,0.971832763671875,0.11030013114213943,0.06739844381809235,0.06075431406497955
1761507744623805000,0.981804931640625,0.11935354769229889,0.05207088962197304,0.05090487748384476
1761507744633776600,0.991776611328125,0.12006038427352905,0.03142153471708298,0.044714439660310745
1761507744643748900,1.001748779296875,0.1193181648850441,0.017616773024201393,0.03993566334247589
1761507744653719600,1.011719482421875,0.10403682291507721,0.01271715946495533,0.03766310214996338
1761507744663691800,1.02169189453125,0.08339919149875641,0.029831698164343834,0.03211094066500664
1761507744673663700,1.031663818359375,0.06818143278360367,0.053808100521564484,0.017513174563646317
1761507744683635700,1.0416357421875,0.06025054305791855,0.08032307028770447,0.0002913108328357339
1761507744693607700,1.051607666015625,0.0658925250172615,0.10112620890140533,-0.021264169365167618
1761507744703579600,1.06157958984375,0.08318442851305008,0.10805442184209824,-0.037499599158763885
1761507744713552000,1.0715517578125,0.10323647409677505,0.09650686383247375,-0.041281141340732574
1761507744723523600,1.081523681640625,0.10575875639915466,0.06564482301473618,-0.04696885496377945
1761507744733495800,1.091495849609375,0.09382954239845276,0.03305192291736603,-0.05671532452106476
1761507744743467800,1.1014677734375,0.07819145917892456,0.026480840519070625,-0.05839471518993378
1761507744753439700,1.111439697265625,0.05878359451889992,0.028549715876579285,-0.06955670565366745
1761507744763411700,1.12141162109375,0.05295127257704735,0.043654367327690125,-0.08920524269342422
1761507744773383700,1.1313837890625,0.06125626713037491,0.0555647574365139,-0.09919717162847519
1761507744783355600,1.141355712890625,0.0844539999961853,0.08628272265195847,-0.0890159010887146
1761507744793327900,1.151327880859375,0.11025393754243851,0.12441109865903854,-0.07118217647075653
1761507744803299600,1.161299560546875,0.13326206803321838,0.13472259044647217,-0.051707539707422256
1761507744813271800,1.171271728515625,0.15393716096878052,0.11736147850751877,-0.032599177211523056
1761507744823243500,1.181243408203125,0.17067353427410126,0.07369761914014816,-0.02438891865313053
1761507744833215700,1.1912158203125,0.179498553276062,0.023356085643172264,-0.020655080676078796
1761507744843187700,1.201187744140625,0.18266132473945618,-0.0008589717326685786,-0.030468031764030457
1761507744853159700,1.21115966796875,0.1856933832168579,-0.011607389897108078,-0.042154762893915176
1761507744863131600,1.221131591796875,0.19591300189495087,0.0009235815377905965,-0.06064935028553009
1761507744873103600,1.231103515625,0.20991820096969604,0.029699768871068954,-0.06924924999475479
1761507744883075800,1.241075927734375,0.22355252504348755,0.07829340547323227,-0.06962715089321136
1761507744893047800,1.2510478515625,0.23070509731769562,0.11560116708278656,-0.05858558788895607
1761507744903019800,1.261019775390625,0.2431471198797226,0.13162194192409515,-0.054944250732660294
1761507744912991700,1.27099169921875,0.2592011094093323,0.13109908998012543,-0.04780486598610878
1761507744922963700,1.280963623046875,0.27397364377975464,0.11045320332050323,-0.04806399345397949
1761507744932935700,1.290935791015625,0.282332181930542,0.0749976709485054,-0.04550817236304283
1761507744942908000,1.300907958984375,0.28061550855636597,0.03818399831652641,-0.039206068962812424
1761507744952879600,1.310879638671875,0.2641068398952484,0.010362723842263222,-0.03980828821659088
1761507744962851800,1.320851806640625,0.23807232081890106,0.015203285031020641,-0.03849401697516441
1761507744972823600,1.330823486328125,0.21068699657917023,0.0446079783141613,-0.038468122482299805
1761507744982795800,1.340795654296875,0.18767781555652618,0.09695214033126831,-0.03677781671285629
1761507744992767700,1.350767822265625,0.17731648683547974,0.1496197134256363,-0.034134771674871445
1761507745002739700,1.36073974609375,0.19126452505588531,0.19739043712615967,-0.02195320837199688
1761507745012711700,1.370711669921875,0.22608402371406555,0.20685717463493347,-0.002659405115991831
1761507745022683600,1.38068359375,0.27468007802963257,0.13450148701667786,0.011300352402031422
1761507745032655600,1.390655517578125,0.3101368844509125,-0.009516042657196522,0.03241550922393799
1761507745042627800,1.4006279296875,0.3145849108695984,-0.1934584528207779,0.05241771414875984
1761507745052599600,1.410599609375,0.30456027388572693,-0.361944317817688,0.07391416281461716
1761507745062571800,1.42057177734375,0.2852582037448883,-0.47751352190971375,0.09385910630226135
1761507745072543700,1.430543701171875,0.27168938517570496,-0.516558825969696,0.11308911442756653
1761507745082515700,1.440515625,0.2594630718231201,-0.49395525455474854,0.12641344964504242
1761507745092488000,1.450488037109375,0.25304776430130005,-0.4025072157382965,0.1384400725364685
1761507745102459600,1.460459716796875,0.24477945268154144,-0.2601415514945984,0.15552105009555817
1761507745112431900,1.470431884765625,0.24881333112716675,-0.09892645478248596,0.1776212453842163
1761507745122403600,1.480403564453125,0.25789526104927063,0.0555235780775547,0.19625245034694672
1761507745132375800,1.490375732421875,0.2769780158996582,0.16923679411411285,0.21537791192531586
1761507745142347800,1.50034765625,0.30590102076530457,0.21179144084453583,0.21949702501296997
1761507745152319700,1.51031982421875,0.3362376093864441,0.18045063316822052,0.219425231218338
1761507745162291700,1.520291748046875,0.366017609834671,0.09373757243156433,0.21239368617534637
1761507745172263700,1.530263671875,0.37612372636795044,-0.02821412868797779,0.2047102153301239
1761507745182235600,1.540235595703125,0.376862496137619,-0.16686893999576569,0.19797854125499725
1761507745192208000,1.550207763671875,0.36518725752830505,-0.290241003036499,0.19704003632068634
1761507745202179600,1.5601796875,0.34209975600242615,-0.3639652729034424,0.1959766298532486
1761507745212151800,1.57015185546875,0.29745036363601685,-0.395700067281723,0.17663125693798065
1761507745222123500,1.58012353515625,0.24771368503570557,-0.3848375678062439,0.1325783133506775
1761507745232095700,1.590095703125,0.2011786848306656,-0.3338765799999237,0.06131943687796593
1761507745242067700,1.600067626953125,0.158576101064682,-0.26425889134407043,-0.026774203404784203
1761507745252039700,1.610039794921875,0.1300319880247116,-0.18232569098472595,-0.11956106871366501
1761507745262011600,1.62001171875,0.11594758927822113,-0.08750438690185547,-0.20410259068012238
1761507745271983600,1.629983642578125,0.12449606508016586,0.001975530292838812,-0.25495198369026184
1761507745281955800,1.639955810546875,0.1421954482793808,0.07725377380847931,-0.2751595079898834
1761507745291927800,1.649927734375,0.1694423109292984,0.11128191649913788,-0.2668202221393585
1761507745301899800,1.659899658203125,0.19160327315330505,0.10864991694688797,-0.22263570129871368
1761507745311871700,1.669871826171875,0.20810186862945557,0.07912707328796387,-0.1675398349761963
1761507745321843700,1.67984375,0.2243966907262802,0.04564208164811134,-0.09780441969633102
1761507745331815700,1.689815673828125,0.23782841861248016,0.01998339220881462,-0.025380266830325127
1761507745341788000,1.699787841796875,0.2556918263435364,0.00695094745606184,0.03667537868022919
1761507745351759600,1.709759521484375,0.26764190196990967,-0.015970580279827118,0.07852980494499207
1761507745361730800,1.719730712890625,0.277926504611969,-0.038041792809963226,0.0968179926276207
1761507745371703600,1.72970361328125,0.28285759687423706,-0.051830876618623734,0.10096658766269684
1761507745381674800,1.7396748046875,0.26763710379600525,-0.06078708544373512,0.08415884524583817
1761507745391646700,1.749646728515625,0.23740573227405548,-0.06118077039718628,0.05827740579843521
1761507745401618700,1.75961865234375,0.19987300038337708,-0.059766095131635666,0.017548883333802223
1761507745411591000,1.7695908203125,0.16436085104942322,-0.04878991097211838,-0.02559565380215645
1761507745421562600,1.779562744140625,0.14062649011611938,-0.02702203206717968,-0.0649087056517601
1761507745431534800,1.789534912109375,0.1262669563293457,0.0008101638522930443,-0.0872584879398346
1761507745441506600,1.799506591796875,0.1115226298570633,0.03207194805145264,-0.09502266347408295
1761507745451478800,1.809478759765625,0.08921797573566437,0.0701541155576706,-0.07657066732645035
1761507745461450800,1.81945068359375,0.06604847311973572,0.09273426234722137,-0.04830760136246681
1761507745471422700,1.829422607421875,0.05029827356338501,0.1030082032084465,-0.0049303025007247925
1761507745481394700,1.839394775390625,0.041008900851011276,0.11428456008434296,0.04155783727765083
1761507745491366700,1.84936669921875,0.04504351317882538,0.11612200736999512,0.08214905858039856
1761507745501338600,1.859338623046875,0.0530974417924881,0.11253712326288223,0.11799174547195435
1761507745511310800,1.869310791015625,0.053192250430583954,0.10299289226531982,0.13345591723918915
1761507745521282600,1.879282470703125,0.04823743924498558,0.07695409655570984,0.12344403564929962
1761507745531254800,1.8892548828125,0.042379628866910934,0.03639934957027435,0.09415286779403687
1761507745541226800,1.899226806640625,0.04336526617407799,-0.020383238792419434,0.0425485335290432
1761507745551198700,1.90919873046875,0.04655638709664345,-0.0807395875453949,-0.016243059188127518
1761507745561171000,1.9191708984375,0.05579622462391853,-0.10638369619846344,-0.07098912447690964
1761507745571142700,1.929142578125,0.07216567546129227,-0.09528690576553345,-0.09652188420295715
1761507745581115000,1.939114990234375,0.08706153929233551,-0.04068651422858238,-0.09828569740056992
1761507745591086600,1.949086669921875,0.09729401022195816,0.019692642614245415,-0.08635944128036499
1761507745601058800,1.959058837890625,0.09152960032224655,0.09043285250663757,-0.08088052272796631
1761507745611030800,1.96903076171875,0.07338271290063858,0.15661028027534485,-0.08213724941015244
1761507745621002800,1.979002685546875,0.04089907184243202,0.20027440786361694,-0.10896220058202744
1761507745630974700,1.988974609375,0.0026563373394310474,0.2449716031551361,-0.15373624861240387
1761507745640946700,1.99894677734375,-0.029267506673932076,0.2837403118610382,-0.21742521226406097
1761507745650918700,2.008918701171875,-0.0530688613653183,0.31125718355178833,-0.2785319685935974
1761507745660891000,2.018890869140625,-0.06784646958112717,0.3182953894138336,-0.3409532606601715
1761507745670862600,2.028862548828125,-0.06753404438495636,0.29660189151763916,-0.3844989240169525
1761507745680834800,2.038834716796875,-0.05984816700220108,0.2634141147136688,-0.4099600911140442
1761507745690806500,2.048806640625,-0.04714656248688698,0.23306430876255035,-0.41399410367012024
1761507745700778800,2.05877880859375,-0.03597699850797653,0.21141812205314636,-0.4019688665866852
1761507745710750700,2.068750732421875,-0.022943641990423203,0.21420733630657196,-0.37982913851737976
1761507745720722700,2.07872265625,-0.00712925847619772,0.23659013211727142,-0.3565104901790619
1761507745730694700,2.088694580078125,0.006208767183125019,0.25924140214920044,-0.3325478732585907
1761507745740666600,2.09866650390625,0.016392162069678307,0.26155757904052734,-0.3194597661495209
1761507745750638800,2.108638916015625,0.02971336990594864,0.24923865497112274,-0.30777591466903687
1761507745760610800,2.11861083984375,0.04210718721151352,0.22212395071983337,-0.2943892776966095
1761507745770582800,2.128582763671875,0.053904421627521515,0.18079587817192078,-0.27967017889022827
1761507745780554800,2.1385546875,0.06800266355276108,0.1156187355518341,-0.27433907985687256
1761507745790526700,2.148526611328125,0.092426598072052,0.04329673945903778,-0.26205989718437195
1761507745800498700,2.158498779296875,0.11813248693943024,-0.022282004356384277,-0.25018221139907837
1761507745810471000,2.168470947265625,0.1433723419904709,-0.08296176791191101,-0.2375415712594986
1761507745820442600,2.178442626953125,0.160962775349617,-0.12530842423439026,-0.22276315093040466
1761507745830414800,2.188414794921875,0.16526244580745697,-0.15058907866477966,-0.20603996515274048
1761507745840386600,2.198386474609375,0.15660583972930908,-0.15459313988685608,-0.18249548971652985
1761507745850358800,2.20835888671875,0.14468051493167877,-0.1453235000371933,-0.1562952995300293
1761507745860330800,2.218330810546875,0.12578219175338745,-0.1298321634531021,-0.13840365409851074
1761507745870302700,2.228302734375,0.11570104956626892,-0.11239171773195267,-0.10868663340806961
1761507745880274700,2.238274658203125,0.10996726900339127,-0.09746310859918594,-0.08911985158920288
1761507745890246700,2.24824658203125,0.1056680977344513,-0.09562233090400696,-0.07098780572414398
1761507745900218600,2.258218505859375,0.1002163365483284,-0.1069255843758583,-0.054989397525787354
1761507745910190800,2.26819091796875,0.08646438270807266,-0.11236931383609772,-0.03223167732357979
1761507745920162600,2.27816259765625,0.07169049978256226,-0.11092188954353333,-0.006029899697750807
1761507745930134800,2.288134765625,0.043988022953271866,-0.10488729923963547,0.02176099829375744
1761507745940106800,2.298106689453125,0.007801790256053209,-0.08969290554523468,0.04577525705099106
1761507745950077700,2.30807763671875,-0.02963148057460785,-0.07838938385248184,0.05870777741074562
1761507745960049700,2.318049560546875,-0.060408830642700195,-0.07566603273153305,0.05441981926560402
1761507745970021600,2.328021728515625,-0.07729583233594894,-0.09253565967082977,0.035007815808057785
1761507745979993900,2.337993896484375,-0.08201281726360321,-0.11065021902322769,0.014033554121851921
1761507745989965600,2.347965576171875,-0.08312282711267471,-0.11550649255514145,0.004815022461116314
1761507745999937800,2.357937744140625,-0.0927504226565361,-0.11411099135875702,0.004163879901170731
1761507746009909500,2.367909423828125,-0.11120985448360443,-0.08130564540624619,0.023186838254332542
1761507746019881700,2.3778818359375,-0.12738962471485138,-0.03699144348502159,0.05554930865764618
1761507746029853700,2.387853759765625,-0.13063490390777588,0.0015307164285331964,0.09070989489555359
1761507746039825700,2.39782568359375,-0.12644043564796448,0.021445568650960922,0.11558408290147781
1761507746049798000,2.4077978515625,-0.12161657214164734,0.0219029001891613,0.1362113654613495
1761507746059769600,2.41776953125,-0.11886686086654663,0.0069050416350364685,0.14089399576187134
1761507746069741800,2.427741943359375,-0.11949148774147034,-0.022761108353734016,0.13960427045822144
1761507746079713800,2.4377138671875,-0.11640089005231857,-0.0445747971534729,0.13441456854343414
1761507746089685800,2.447685791015625,-0.11870071291923523,-0.06779083609580994,0.13822263479232788
1761507746099657700,2.45765771484375,-0.12747131288051605,-0.09318913519382477,0.1338670253753662
1761507746109629700,2.467629638671875,-0.1525268256664276,-0.11454185843467712,0.13080891966819763
1761507746119601700,2.4776015625,-0.17380067706108093,-0.14167042076587677,0.12092460691928864
1761507746129574000,2.487573974609375,-0.1871035248041153,-0.185304656624794,0.10470914095640182
1761507746139545600,2.497545654296875,-0.18075640499591827,-0.22667473554611206,0.07360608875751495
1761507746149517800,2.507517822265625,-0.17190656065940857,-0.2797195613384247,0.0427645780146122
1761507746159489500,2.517489501953125,-0.17586882412433624,-0.3340722918510437,0.009477994404733181
1761507746169461800,2.527461669921875,-0.1876462996006012,-0.39103755354881287,-0.013436215929687023
1761507746179433700,2.537433837890625,-0.19953225553035736,-0.4235811233520508,-0.01501546986401081
1761507746189405700,2.54740576171875,-0.203216552734375,-0.39691898226737976,0.010432078503072262
1761507746199377700,2.557377685546875,-0.22387202084064484,-0.2994832396507263,0.040216606110334396
1761507746209349600,2.567349609375,-0.26799991726875305,-0.17446251213550568,0.056320641189813614
1761507746219321600,2.577321533203125,-0.3289783298969269,-0.021991219371557236,0.04053794965147972
1761507746229293800,2.5872939453125,-0.38526853919029236,0.12060331553220749,0.0034737945534288883
1761507746239265800,2.597265869140625,-0.411971777677536,0.21301233768463135,-0.043368544429540634
1761507746249237800,2.60723779296875,-0.40918222069740295,0.2488868534564972,-0.08462753146886826
1761507746259209700,2.617209716796875,-0.38929933309555054,0.2351025938987732,-0.0970061719417572
1761507746269181700,2.627181640625,-0.35597556829452515,0.20579789578914642,-0.09464237093925476
1761507746279154000,2.63715380859375,-0.319749116897583,0.15656830370426178,-0.0646706223487854
1761507746289125600,2.647125732421875,-0.29608818888664246,0.10046765208244324,-0.034726690500974655
1761507746299097900,2.657097900390625,-0.2962631583213806,0.047389253973960876,-0.01164826937019825
1761507746309069600,2.667069580078125,-0.3122616410255432,0.01341567188501358,0.010993782430887222
1761507746319041800,2.677041748046875,-0.3360697627067566,0.02172233723104,0.031521428376436234
1761507746329013800,2.687013671875,-0.3548589050769806,0.060450825840234756,0.04656456038355827
1761507746338985700,2.69698583984375,-0.36779335141181946,0.11425572633743286,0.05765929073095322
1761507746348957700,2.706957763671875,-0.38361239433288574,0.16080403327941895,0.05578112602233887
1761507746358929700,2.7169296875,-0.3906833529472351,0.17517578601837158,0.04804384335875511
1761507746368901600,2.726901611328125,-0.38999882340431213,0.16864220798015594,0.03511480987071991
1761507746378873900,2.736873779296875,-0.38001731038093567,0.1311182677745819,0.02423846162855625
1761507746388845600,2.746845458984375,-0.3618982136249542,0.07204475998878479,0.017395341768860817
1761507746398817800,2.75681787109375,-0.34206727147102356,-0.007884956896305084,0.013518579304218292
1761507746408789800,2.766789794921875,-0.3279152810573578,-0.08208897709846497,0.02523665502667427
1761507746418760700,2.7767607421875,-0.3210408687591553,-0.12480927258729935,0.04364043101668358
1761507746428732700,2.786732666015625,-0.31898996233940125,-0.12628066539764404,0.07973558455705643
1761507746438704600,2.79670458984375,-0.3337492048740387,-0.07758849859237671,0.12506446242332458
1761507746448676900,2.8066767578125,-0.35822761058807373,0.009729092009365559,0.18162287771701813
1761507746458648600,2.816648681640625,-0.37539568543434143,0.11651571840047836,0.2303699105978012
1761507746468620800,2.826620849609375,-0.3795192241668701,0.20924852788448334,0.26890328526496887
1761507746478592500,2.836592529296875,-0.3667256534099579,0.247022807598114,0.29389438033103943
1761507746488564700,2.846564697265625,-0.3533289134502411,0.21509402990341187,0.2864607274532318
1761507746498536700,2.85653662109375,-0.330769807100296,0.14066000282764435,0.26730433106422424
1761507746508508700,2.8665087890625,-0.29592442512512207,0.03582996875047684,0.24379846453666687
1761507746518481000,2.87648095703125,-0.25833603739738464,-0.0668327584862709,0.21549253165721893
1761507746528452600,2.88645263671875,-0.23091213405132294,-0.1436821073293686,0.19763369858264923
1761507746538424800,2.8964248046875,-0.2172386646270752,-0.17888988554477692,0.18753978610038757
1761507746548396800,2.906396728515625,-0.2287948876619339,-0.17769600450992584,0.16780026257038116
1761507746558368800,2.91636865234375,-0.2519489526748657,-0.13933050632476807,0.14867077767848969
1761507746568340700,2.9263408203125,-0.27302226424217224,-0.09665440768003464,0.11317988485097885
1761507746578312700,2.936312744140625,-0.2815414369106293,-0.04985786974430084,0.07460693269968033
1761507746588284700,2.94628466796875,-0.2852593660354614,-0.023657292127609253,0.025443870574235916
1761507746598257000,2.9562568359375,-0.2729342579841614,-0.01648326963186264,-0.013875838369131088
1761507746608228600,2.966228515625,-0.25218313932418823,-0.02485811337828636,-0.053725969046354294
1761507746618200800,2.976200927734375,-0.22864080965518951,-0.035780005156993866,-0.0815485417842865
1761507746628172500,2.986172607421875,-0.20149050652980804,-0.043921418488025665,-0.09375962615013123
1761507746638144800,2.996144775390625,-0.18822690844535828,-0.03355133906006813,-0.08424735069274902
1761507746648116700,3.00611669921875,-0.18282662332057953,-0.017268670722842216,-0.0839085578918457
1761507746658088700,3.016088623046875,-0.18089503049850464,-0.005373660940676928,-0.07176508009433746
1761507746668060700,3.026060791015625,-0.17855145037174225,0.021135177463293076,-0.05536719039082527
1761507746678032600,3.03603271484375,-0.17518015205860138,0.042968302965164185,-0.04400348290801048
1761507746688004600,3.046004638671875,-0.16472351551055908,0.06334788352251053,-0.03184002637863159
1761507746697976800,3.055976806640625,-0.14802630245685577,0.08432161062955856,-0.025745917111635208
1761507746707948800,3.06594873046875,-0.13284608721733093,0.08028951287269592,-0.021319763734936714
1761507746717920800,3.075920654296875,-0.11146996915340424,0.0521196611225605,-0.021210040897130966
1761507746727892700,3.085892822265625,-0.08658625185489655,0.005593175534158945,-0.016545942053198814
1761507746737864700,3.09586474609375,-0.0631224736571312,-0.060132309794425964,-0.0056501515209674835
1761507746747837000,3.1058369140625,-0.04273206740617752,-0.12301544100046158,0.003117566229775548
1761507746757808600,3.11580859375,-0.022546637803316116,-0.1741633117198944,0.018919698894023895
1761507746767780900,3.12578076171875,-0.005891031119972467,-0.2071734517812729,0.02966885454952717
1761507746777752600,3.135752685546875,0.015448346734046936,-0.21088457107543945,0.04373859986662865
1761507746787724800,3.145724853515625,0.03387744724750519,-0.17509128153324127,0.043538160622119904
1761507746797696800,3.15569677734375,0.03844689950346947,-0.11829352378845215,0.03521924465894699
1761507746807668700,3.165668701171875,0.02761267125606537,-0.06329148262739182,0.016494153067469597
1761507746817640700,3.175640625,0.006474364548921585,-0.004575976170599461,-0.008427707478404045
1761507746827612700,3.18561279296875,-0.008075818419456482,0.0380682572722435,-0.04073271155357361
1761507746837584600,3.195584716796875,-0.002212070394307375,0.0540861040353775,-0.07370077818632126
1761507746847556900,3.205556884765625,0.025235306471586227,0.055592987686395645,-0.09606047719717026
1761507746857528600,3.215528564453125,0.06434036791324615,0.053357530385255814,-0.10294581204652786
1761507746867500800,3.225500732421875,0.10055232048034668,0.050508078187704086,-0.10247731953859329
1761507746877472500,3.235472412109375,0.1286310851573944,0.06070638820528984,-0.09083478152751923
1761507746887444700,3.24544482421875,0.15464994311332703,0.08711685985326767,-0.0677756518125534
1761507746897416700,3.255416748046875,0.17444922029972076,0.11565343290567398,-0.05054980143904686
1761507746907387600,3.2653876953125,0.19360195100307465,0.13589873909950256,-0.02843908965587616
1761507746917359900,3.27535986328125,0.2096480280160904,0.147333562374115,-0.01730441302061081
1761507746927331600,3.28533154296875,0.22614119946956635,0.15234129130840302,-0.01107548363506794
1761507746937303800,3.2953037109375,0.24795621633529663,0.15380097925662994,-0.015546931885182858
1761507746947275500,3.305275634765625,0.27122756838798523,0.15654224157333374,-0.020308829843997955
1761507746957247700,3.315247802734375,0.3012336790561676,0.1587366759777069,-0.029496468603610992
1761507746967219700,3.3252197265625,0.3332204520702362,0.14752347767353058,-0.03353840857744217
1761507746977191700,3.335191650390625,0.3737249970436096,0.12916657328605652,-0.029244326055049896
1761507746987164000,3.345163818359375,0.4266740381717682,0.12755563855171204,-0.0002679065801203251
1761507746997135600,3.355135498046875,0.48478421568870544,0.13385187089443207,0.04422499239444733
1761507747007107800,3.36510791015625,0.540498673915863,0.13687390089035034,0.1064634844660759
1761507747017079800,3.375079833984375,0.5937568545341492,0.12469392269849777,0.1707569807767868
1761507747027051800,3.3850517578125,0.6315478086471558,0.08506010472774506,0.22570309042930603
1761507747037023700,3.395023681640625,0.648945152759552,0.018709037452936172,0.2613215446472168
1761507747046995700,3.40499560546875,0.6495416164398193,-0.0600324422121048,0.29356780648231506
1761507747056967700,3.4149677734375,0.6523565649986267,-0.12904132902622223,0.3151455223560333
1761507747066940000,3.42493994140625,0.6465620398521423,-0.18504777550697327,0.31754711270332336
1761507747076911600,3.43491162109375,0.6211733222007751,-0.22647298872470856,0.2970239818096161
1761507747086883800,3.4448837890625,0.5728849768638611,-0.2595452070236206,0.24900707602500916
1761507747096855600,3.45485546875,0.515586256980896,-0.2663666009902954,0.1892303079366684
1761507747106827800,3.464827880859375,0.47009965777397156,-0.2176245152950287,0.14480756223201752
1761507747116799700,3.4747998046875,0.4263090491294861,-0.12150036543607712,0.1262434720993042
1761507747126771700,3.484771728515625,0.37918776273727417,0.014555204659700394,0.13475769758224487
1761507747136743700,3.49474365234375,0.3222126364707947,0.1474331021308899,0.15483634173870087
1761507747146715600,3.504715576171875,0.2787346839904785,0.24823977053165436,0.19122371077537537
1761507747156687600,3.5146875,0.2599676549434662,0.3254557251930237,0.23063582181930542
1761507747166659800,3.524659912109375,0.25864171981811523,0.39387160539627075,0.28161558508872986
1761507747176631800,3.5346318359375,0.26478081941604614,0.43097102642059326,0.31248533725738525
1761507747186603800,3.544603759765625,0.28289955854415894,0.41129302978515625,0.3253745436668396
1761507747196575700,3.55457568359375,0.3166860044002533,0.34452733397483826,0.3197651505470276
1761507747206547700,3.564547607421875,0.35640639066696167,0.23179835081100464,0.3055908977985382
1761507747216520000,3.57452001953125,0.3843884766101837,0.10233569145202637,0.27459916472435
1761507747226491600,3.58449169921875,0.3938550651073456,-0.03384561464190483,0.23666658997535706
1761507747236463900,3.5944638671875,0.3800484538078308,-0.15531904995441437,0.1947479099035263
1761507747246435600,3.604435546875,0.3397027552127838,-0.25144314765930176,0.14755626022815704
1761507747256407800,3.61440771484375,0.2670424282550812,-0.3000626266002655,0.09187542647123337
1761507747266379800,3.6243798828125,0.1743261069059372,-0.29976508021354675,0.020513029769062996
1761507747276351700,3.634351806640625,0.07151184976100922,-0.2638915181159973,-0.06711242347955704
1761507747286323700,3.64432373046875,-0.02682085894048214,-0.19178159534931183,-0.16409987211227417
1761507747296294700,3.654294677734375,-0.09476954489946365,-0.10228339582681656,-0.2615843713283539
1761507747306267000,3.664266845703125,-0.13198992609977722,-0.02044801600277424,-0.337789922952652
1761507747316238600,3.674238525390625,-0.14197251200675964,0.049494851380586624,-0.3853507936000824
1761507747326210800,3.6842109375,-0.12241692841053009,0.08638212829828262,-0.40210452675819397
1761507747336182800,3.694182861328125,-0.08523280918598175,0.08580102771520615,-0.3925376534461975
1761507747346154800,3.70415478515625,-0.04059993848204613,0.0566658079624176,-0.3450518250465393
1761507747356126700,3.714126708984375,0.00575105007737875,0.01104719191789627,-0.27635928988456726
1761507747366098700,3.7240986328125,0.04340343177318573,-0.03838350623846054,-0.19657675921916962
1761507747376070700,3.734070556640625,0.061539292335510254,-0.08061911165714264,-0.11742361634969711
1761507747386043000,3.74404296875,0.0699939876794815,-0.11126869916915894,-0.048571523278951645
1761507747396014600,3.7540146484375,0.058561041951179504,-0.11913647502660751,0.010725092142820358
1761507747405986800,3.76398681640625,0.03459693118929863,-0.08698772639036179,0.05470441281795502
1761507747415958500,3.77395849609375,0.004084563348442316,-0.053292613476514816,0.07135582715272903
1761507747425930800,3.7839306640625,-0.01699804700911045,-0.040946830064058304,0.048127610236406326
1761507747435902700,3.79390283203125,-0.02933327667415142,-0.054315365850925446,-0.002177102956920862
1761507747445874700,3.803874755859375,-0.0190755482763052,-0.0781359151005745,-0.06463833153247833
1761507747455847000,3.813846923828125,0.003769847098737955,-0.09282378107309341,-0.11784136295318604
1761507747465818600,3.823818603515625,0.020274939015507698,-0.10078250616788864,-0.15401025116443634
1761507747475790800,3.833790771484375,0.029692409560084343,-0.10779514163732529,-0.16277071833610535
1761507747485762800,3.8437626953125,0.02004735916852951,-0.10946393758058548,-0.15557770431041718
1761507747495734800,3.85373486328125,0.006487874314188957,-0.11320435255765915,-0.1295785903930664
1761507747505706800,3.863706787109375,-0.007060050964355469,-0.11598160117864609,-0.09360670298337936
1761507747515678700,3.8736787109375,-0.015376304276287556,-0.10314835608005524,-0.061125192791223526
1761507747525650700,3.883650634765625,-0.018848910927772522,-0.08820302784442902,-0.03329605981707573
1761507747535623000,3.893622802734375,-0.01365734450519085,-0.06901681423187256,-0.014299997128546238
1761507747545594600,3.9035947265625,-0.016535840928554535,-0.06440958380699158,-0.0162266306579113
1761507747555566800,3.91356689453125,-0.025933070108294487,-0.07459910213947296,-0.043215904384851456
1761507747565538600,3.92353857421875,-0.04076517000794411,-0.08720458298921585,-0.08897396922111511
1761507747575510800,3.9335107421875,-0.0538862980902195,-0.08372489362955093,-0.14132612943649292
1761507747585482800,3.943482666015625,-0.05578570067882538,-0.06447859108448029,-0.18009750545024872
1761507747595455200,3.953455322265625,-0.05181945115327835,-0.029142171144485474,-0.18753278255462646
1761507747605427200,3.96342724609375,-0.03606769070029259,0.0342550091445446,-0.1660822331905365
1761507747615399200,3.973399169921875,-0.02704543247818947,0.09300194680690765,-0.14461156725883484
1761507747625371100,3.98337109375,-0.023227447643876076,0.1160971149802208,-0.12140868604183197
1761507747635343400,3.99334326171875,-0.017448121681809425,0.10432594269514084,-0.11464771628379822
1761507747645315000,4.003315185546875,-0.005473070777952671,0.06449353694915771,-0.12488147616386414
1761507747655287300,4.013287353515625,0.009825724177062511,0.009507251903414726,-0.14505277574062347
1761507747665258200,4.02325830078125,0.02725428342819214,-0.03608277440071106,-0.16901588439941406
1761507747675230200,4.033230224609375,0.044847920536994934,-0.05589402839541435,-0.17977319657802582
1761507747685201200,4.043201171875,0.0619669146835804,-0.047358397394418716,-0.17584452033042908
1761507747695173400,4.05317333984375,0.07370905578136444,-0.021287648007273674,-0.15961842238903046
1761507747705145000,4.06314501953125,0.07941047102212906,0.015454857610166073,-0.13201838731765747
1761507747715117300,4.073117431640625,0.08176550269126892,0.030417561531066895,-0.10435108095407486
1761507747725089300,4.08308935546875,0.077790766954422,0.029271868988871574,-0.0756639614701271
1761507747735061200,4.093061279296875,0.07832793146371841,0.0069026462733745575,-0.059839457273483276
1761507747745033200,4.103033203125,0.07329516857862473,-0.0333658792078495,-0.05233598127961159
1761507747755005200,4.113005126953125,0.06613419204950333,-0.08268868923187256,-0.057252708822488785
1761507747764977200,4.12297705078125,0.05902370810508728,-0.1350669115781784,-0.0688067302107811
1761507747774949400,4.132949462890625,0.053751979023218155,-0.17277993261814117,-0.07622949779033661
1761507747784921000,4.142921142578125,0.04993385076522827,-0.18065954744815826,-0.09037560969591141
1761507747794893300,4.152893310546875,0.045395560562610626,-0.17798973619937897,-0.10017897188663483
1761507747804865000,4.162864990234375,0.03350761905312538,-0.1642039269208908,-0.10761826485395432
1761507747814837200,4.172837158203125,0.01520984061062336,-0.14215534925460815,-0.11675610393285751
1761507747824809200,4.182809326171875,-0.011300325393676758,-0.10985555499792099,-0.12488801032304764
1761507747834781200,4.19278125,-0.03507330268621445,-0.08527857065200806,-0.12046609818935394
1761507747844753200,4.202753173828125,-0.0658719539642334,-0.06737840175628662,-0.11267395317554474
1761507747854725000,4.21272509765625,-0.08718922734260559,-0.06592005491256714,-0.09586727619171143
1761507747864697300,4.222697265625,-0.10216376930475235,-0.062019988894462585,-0.06839912384748459
1761507747874669300,4.23266943359375,-0.11304011940956116,-0.058182910084724426,-0.035755958408117294
1761507747884641300,4.242641357421875,-0.12177179753780365,-0.05022298917174339,-0.00986276101320982
1761507747894613200,4.25261328125,-0.1314510554075241,-0.04827648401260376,0.012473969720304012
1761507747904585200,4.262585205078125,-0.14506669342517853,-0.04132583364844322,0.026340456679463387
1761507747914557200,4.27255712890625,-0.15435579419136047,-0.009612377732992172,0.03829298913478851
1761507747924529400,4.282529296875,-0.18060314655303955,0.03149930387735367,0.056447818875312805
1761507747934501000,4.292501220703125,-0.21764293313026428,0.05337131395936012,0.07212451845407486
1761507747944473300,4.302473388671875,-0.2525135278701782,0.05491042137145996,0.09024859964847565
1761507747954445000,4.312445068359375,-0.2800365090370178,0.046219728887081146,0.09579835832118988
1761507747964417300,4.322417236328125,-0.2995881736278534,0.031367212533950806,0.09806735068559647
1761507747974389200,4.33238916015625,-0.3058074414730072,0.0337962843477726,0.10469222813844681
1761507747984361200,4.342361328125,-0.31346550583839417,0.05886422097682953,0.1176292896270752
1761507747994333200,4.352333251953125,-0.31125134229660034,0.11243290454149246,0.1360035091638565
1761507748004305200,4.36230517578125,-0.32108068466186523,0.16092900931835175,0.1492965817451477
1761507748014277000,4.372277099609375,-0.3342167139053345,0.14460968971252441,0.1345684975385666
1761507748024248000,4.382248046875,-0.350849986076355,0.06469054520130157,0.0887138769030571
1761507748034220300,4.39222021484375,-0.37022873759269714,-0.052888546139001846,0.019567830488085747
1761507748044194300,4.4021943359375,-0.3972237706184387,-0.15840205550193787,-0.07130752503871918
1761507748054166300,4.412166259765625,-0.42910686135292053,-0.2200571596622467,-0.15784187614917755
1761507748064138200,4.42213818359375,-0.45463407039642334,-0.2136314958333969,-0.2321348339319229
1761507748074110200,4.432110107421875,-0.4782603085041046,-0.12918825447559357,-0.2787971496582031
1761507748084082200,4.442082275390625,-0.4684479534626007,-0.0603172704577446,-0.2824566066265106
1761507748094054100,4.45205419921875,-0.4082871377468109,0.01284349337220192,-0.22024035453796387
1761507748104026400,4.4620263671875,-0.32903626561164856,0.15776675939559937,-0.109486885368824
1761507748113998000,4.471998046875,-0.252008318901062,0.29989859461784363,0.0040495311841368675
1761507748123970300,4.48197021484375,-0.1785673052072525,0.42190003395080566,0.10696229338645935
1761507748133942000,4.49194189453125,-0.11334916949272156,0.4877275228500366,0.18121281266212463
1761507748143914200,4.501914306640625,-0.05744720250368118,0.47259342670440674,0.22238489985466003
1761507748153886200,4.51188623046875,-0.020097168162465096,0.38397088646888733,0.2323235422372818
1761507748163858200,4.521858154296875,-0.0038799610920250416,0.2658882439136505,0.21483254432678223
1761507748173830100,4.531830078125,0.0008886954747140408,0.12270711362361908,0.1774550825357437
1761507748183802000,4.541802001953125,-0.0025959848426282406,-0.0030682962387800217,0.1298905909061432
1761507748193773300,4.551773193359375,-0.01277698390185833,-0.07876518368721008,0.06817395985126495
1761507748203745000,4.5617451171875,-0.022674541920423508,-0.10224534571170807,0.010532115586102009
1761507748213717200,4.57171728515625,-0.037579454481601715,-0.08671911805868149,-0.03204357251524925
1761507748223689200,4.581689208984375,-0.06229593604803085,-0.060762569308280945,-0.07315653562545776
1761507748233661200,4.5916611328125,-0.09062637388706207,-0.0298701673746109,-0.11122402548789978
1761507748243633200,4.601633056640625,-0.11094260960817337,0.014409801922738552,-0.13349637389183044
1761507748253605000,4.611605224609375,-0.12961217761039734,0.05426081269979477,-0.1434248983860016
1761507748263577300,4.621577392578125,-0.1408790647983551,0.07312215119600296,-0.13969530165195465
1761507748273549300,4.63154931640625,-0.14285272359848022,0.07163131237030029,-0.1266021430492401
1761507748283521300,4.641521240234375,-0.14183832705020905,0.05171709135174751,-0.0942879393696785
1761507748293493200,4.6514931640625,-0.1287909746170044,0.02246892638504505,-0.05621911585330963
1761507748303465200,4.66146533203125,-0.11384113132953644,0.0007559384102933109,-0.012385963462293148
1761507748313437200,4.671437255859375,-0.09001755714416504,-0.00881200097501278,0.03551178798079491
1761507748323409400,4.681409423828125,-0.06800005584955215,-0.008130263537168503,0.08277419209480286
1761507748333381000,4.691381103515625,-0.044727224856615067,-0.0018337510991841555,0.1185673400759697
1761507748343353300,4.701353271484375,-0.025654152035713196,-0.004831699654459953,0.1533450186252594
1761507748353325000,4.711324951171875,0.001563086174428463,-0.03735155984759331,0.189497709274292
1761507748363297300,4.72129736328125,0.05698121711611748,-0.1452312022447586,0.2390628457069397
1761507748373269200,4.731269287109375,0.12571340799331665,-0.22572603821754456,0.30865657329559326
1761507748383241200,4.7412412109375,0.16978731751441956,-0.27419722080230713,0.384781152009964
1761507748393213200,4.751213134765625,0.19111205637454987,-0.3010869026184082,0.4547589123249054
1761507748403185200,4.76118505859375,0.1936771273612976,-0.2653953731060028,0.5068857669830322
1761507748413157000,4.7711572265625,0.16568250954151154,-0.16067641973495483,0.5265963673591614
1761507748423129300,4.78112939453125,0.10415839403867722,-0.04456816613674164,0.4920450448989868
1761507748433101000,4.79110107421875,0.024858776479959488,0.034818001091480255,0.39651426672935486
1761507748443073300,4.8010732421875,-0.05913199856877327,0.08432260900735855,0.271074116230011
1761507748453045200,4.811045166015625,-0.12877924740314484,0.10437328368425369,0.12564502656459808
1761507748463017200,4.821017333984375,-0.18985214829444885,0.12522876262664795,-0.01945456489920616
1761507748472989400,4.830989501953125,-0.24434363842010498,0.13191063702106476,-0.1604207456111908
1761507748482961200,4.840961181640625,-0.27487367391586304,0.13761451840400696,-0.26855769753456116
1761507748492933400,4.850933349609375,-0.28365305066108704,0.14299944043159485,-0.3379162847995758
1761507748502905000,4.860905029296875,-0.26837047934532166,0.13496822118759155,-0.3560503125190735
1761507748512877300,4.870877197265625,-0.2248741239309311,0.1124623715877533,-0.3242713510990143
1761507748522849300,4.880849365234375,-0.17308489978313446,0.07813058793544769,-0.2516649663448334
1761507748532821200,4.8908212890625,-0.12020224332809448,0.033798277378082275,-0.15710383653640747
1761507748542792400,4.90079248046875,-0.07457684725522995,-0.016847625374794006,-0.05667134001851082
1761507748552764200,4.91076416015625,-0.034544214606285095,-0.06371898949146271,0.02563897706568241
1761507748562736400,4.920736328125,-0.018905483186244965,-0.11775955557823181,0.08609302341938019
1761507748572708000,4.9307080078125,-0.021211247891187668,-0.16711990535259247,0.12280043214559555
1761507748582680300,4.940680419921875,-0.03666853904724121,-0.18346700072288513,0.1299542933702469
1761507748592652300,4.95065234375,-0.06834524869918823,-0.17276322841644287,0.11457798629999161
1761507748602624000,4.9606240234375,-0.10318691283464432,-0.13209141790866852,0.08362656831741333
1761507748612596000,4.970595947265625,-0.1241007149219513,-0.07870090007781982,0.03784283623099327
1761507748622568000,4.98056787109375,-0.140004962682724,-0.03983565792441368,-0.0039929891936481
1761507748632540000,4.990539794921875,-0.14309796690940857,-0.018579905852675438,-0.041393887251615524
1761507748642512100,5.00051220703125,-0.13496950268745422,-0.008937031030654907,-0.06315179169178009
1761507748652483800,5.01048388671875,-0.12554004788398743,-0.003744133748114109,-0.06633773446083069
1761507748662456000,5.0204560546875,-0.10794849693775177,-0.010255226865410805,-0.05295860394835472
1761507748672427800,5.030427734375,-0.0932885929942131,-0.03007500246167183,-0.039074480533599854
1761507748682400000,5.04039990234375,-0.07935702055692673,-0.059119805693626404,-0.01632188819348812
1761507748692372000,5.0503720703125,-0.06240281090140343,-0.07700346410274506,-0.000005499226972460747
1761507748702344000,5.060343994140625,-0.041726190596818924,-0.08362648636102676,0.009979999624192715
1761507748712316200,5.070316162109375,-0.024155717343091965,-0.08217506110668182,0.014818964526057243
1761507748722287900,5.080287841796875,-0.005402456969022751,-0.06313172727823257,0.01761995628476143
1761507748732260000,5.090260009765625,0.00880151242017746,-0.03568386286497116,0.026731960475444794
1761507748742232000,5.100232177734375,0.032395943999290466,-0.0063323285430669785,0.036624107509851456
1761507748752204000,5.1102041015625,0.06047338619828224,0.015200394205749035,0.04851032793521881
1761507748762176000,5.120176025390625,0.08392336219549179,0.03005344420671463,0.05979141965508461
1761507748772148000,5.13014794921875,0.11581151932477951,0.01765589602291584,0.061566151678562164
1761507748782120000,5.140119873046875,0.14527496695518494,-0.02851596474647522,0.04867488890886307
1761507748792092200,5.150092041015625,0.18530893325805664,-0.10119576007127762,0.021029148250818253
1761507748802064000,5.16006396484375,0.23223213851451874,-0.17877346277236938,-0.013437929563224316
1761507748812036000,5.1700361328125,0.2724402844905853,-0.24523478746414185,-0.04470743611454964
1761507748822007800,5.1800078125,0.3003251850605011,-0.27809959650039673,-0.05857330560684204
1761507748831980000,5.18997998046875,0.2992854714393616,-0.24700292944908142,-0.04383563995361328
1761507748841951000,5.199950927734375,0.2842143774032593,-0.1752461940050125,-0.007882514968514442
1761507748851923000,5.2099228515625,0.28508761525154114,-0.07474622875452042,0.04312501102685928
1761507748861895200,5.219895263671875,0.2925850749015808,0.024028178304433823,0.09366092830896378
1761507748871867000,5.229866943359375,0.30262041091918945,0.0848127007484436,0.13864997029304504
1761507748881839000,5.239839111328125,0.3202928602695465,0.11043064296245575,0.1773626208305359
1761507748891810800,5.249810791015625,0.35251709818840027,0.10365022718906403,0.20545151829719543
1761507748901783000,5.259782958984375,0.4003860056400299,0.06301609426736832,0.21753424406051636
1761507748911755000,5.269755126953125,0.4556788206100464,-0.02891143411397934,0.21164998412132263
1761507748921727000,5.27972705078125,0.49216172099113464,-0.157475546002388,0.18801257014274597
1761507748931699000,5.289698974609375,0.49086955189704895,-0.2997514605522156,0.14811015129089355
1761507748941671000,5.2996708984375,0.46115195751190186,-0.4465881288051605,0.1028713509440422
1761507748951643000,5.309642822265625,0.4071696996688843,-0.5892355442047119,0.07091820985078812
1761507748961615000,5.319614990234375,0.3439468443393707,-0.6879761219024658,0.06980666518211365
1761507748971586800,5.3295869140625,0.2677202522754669,-0.6984660625457764,0.0902690663933754
1761507748981559000,5.33955908203125,0.19428445398807526,-0.6176598072052002,0.13024605810642242
1761507748991531000,5.349531005859375,0.13296489417552948,-0.443172425031662,0.17308087646961212
1761507749001503000,5.3595029296875,0.08954763412475586,-0.2051064372062683,0.19515778124332428
1761507749011475200,5.36947509765625,0.053951822221279144,0.05007045343518257,0.18784527480602264
1761507749021447000,5.379447021484375,0.03434624895453453,0.2779042720794678,0.16211973130702972
1761507749031419100,5.389419189453125,0.028712600469589233,0.43234550952911377,0.1164419949054718
1761507749041390800,5.399390869140625,0.044223036617040634,0.4889496862888336,0.06436219811439514
1761507749051363000,5.409363037109375,0.07000216841697693,0.46121925115585327,0.018641317263245583
1761507749061335000,5.4193349609375,0.09924482554197311,0.3709127604961395,-0.005954223684966564
1761507749071307000,5.42930712890625,0.13492584228515625,0.26912036538124084,-0.007616568822413683
1761507749081279000,5.439279052734375,0.1634528487920761,0.1725410670042038,0.02080061100423336
1761507749091251000,5.4492509765625,0.18455468118190765,0.0924382358789444,0.05720868706703186
1761507749101223000,5.459222900390625,0.20284129679203033,0.03558206185698509,0.09403057396411896
1761507749111195100,5.469195068359375,0.20860597491264343,0.006517389323562384,0.11881501227617264
1761507749121166800,5.479166748046875,0.1982574313879013,-0.011745501309633255,0.12357133626937866
1761507749131139000,5.48913916015625,0.16663451492786407,-0.014124236069619656,0.10029717534780502
1761507749141110000,5.499110107421875,0.13939833641052246,-0.027335181832313538,0.04778502508997917
1761507749151082000,5.50908203125,0.12348168343305588,-0.05294413864612579,-0.013002157211303711
1761507749161054000,5.519053955078125,0.1218680739402771,-0.06933581829071045,-0.07524170726537704
1761507749171026000,5.52902587890625,0.11968401819467545,-0.08495818823575974,-0.12902477383613586
1761507749180998100,5.538998046875,0.09777746349573135,-0.0860002264380455,-0.15565289556980133
1761507749190969900,5.548969970703125,0.057894498109817505,-0.08252958953380585,-0.15371039509773254
1761507749200942000,5.558942138671875,0.011567434296011925,-0.08548726886510849,-0.13629545271396637
1761507749210913800,5.568913818359375,-0.03796656057238579,-0.07800005376338959,-0.11677075177431107
1761507749220886000,5.578885986328125,-0.07888469845056534,-0.051029618829488754,-0.09395958483219147
1761507749230858000,5.58885791015625,-0.11409062147140503,-0.014528334140777588,-0.08181104809045792
1761507749240830000,5.598829833984375,-0.13987599313259125,0.03862912207841873,-0.079435795545578
1761507749250802000,5.608802001953125,-0.15813782811164856,0.10199424624443054,-0.08293545991182327
1761507749260774000,5.61877392578125,-0.17046403884887695,0.1682516634464264,-0.09271072596311569
1761507749270746000,5.62874609375,-0.17211546003818512,0.2175544947385788,-0.10778501629829407
1761507749280718000,5.638718017578125,-0.17021967470645905,0.23080112040042877,-0.12015682458877563
1761507749290690000,5.64868994140625,-0.1576295793056488,0.21048200130462646,-0.1356276571750641
1761507749300662000,5.658662109375,-0.14671365916728973,0.16337434947490692,-0.14363029599189758
1761507749310634000,5.668634033203125,-0.13171154260635376,0.10225053876638412,-0.15808193385601044
1761507749320606000,5.67860595703125,-0.10948868095874786,0.06371979415416718,-0.18132472038269043
1761507749330578200,5.688578125,-0.08961883932352066,0.03407614678144455,-0.20745059847831726
1761507749340550000,5.6985498046875,-0.060248617082834244,0.014047982171177864,-0.2361699789762497
1761507749350522000,5.708522216796875,-0.02815299853682518,0.02099670097231865,-0.2575133442878723
1761507749360493800,5.718493896484375,-0.010458888486027718,0.0282580703496933,-0.28434959053993225
1761507749370466000,5.728466064453125,-0.00884288176894188,0.0370480976998806,-0.30284708738327026
1761507749380437800,5.738437744140625,-0.01756693236529827,0.032759882509708405,-0.3057492971420288
1761507749390410000,5.748409912109375,-0.028306130319833755,0.024652689695358276,-0.29290488362312317
1761507749400382000,5.7583818359375,-0.03362199664115906,0.009423032402992249,-0.2623478174209595
1761507749410354000,5.76835400390625,-0.039386674761772156,0.0007666939636692405,-0.22132262587547302
1761507749420325000,5.7783251953125,-0.03424639254808426,0.003264971077442169,-0.17477254569530487
1761507749430296800,5.788296875,-0.024033967405557632,0.01765243336558342,-0.14097462594509125
1761507749440269000,5.79826904296875,-0.013307284563779831,0.02825198322534561,-0.12632451951503754
1761507749450240800,5.80824072265625,-0.011366106569766998,0.026219192892313004,-0.12376148998737335
1761507749460213000,5.818212890625,-0.01092572882771492,0.023111488670110703,-0.13002347946166992
1761507749470185000,5.82818505859375,-0.01972348242998123,0.02701168693602085,-0.14987067878246307
1761507749480157000,5.838156982421875,-0.032206326723098755,0.0439254529774189,-0.16807028651237488
1761507749490129000,5.84812890625,-0.04133191704750061,0.05902557820081711,-0.186813086271286
1761507749500100900,5.858100830078125,-0.04959844797849655,0.07071555405855179,-0.20655862987041473
1761507749510072800,5.86807275390625,-0.053529541939496994,0.06486459076404572,-0.22474989295005798
1761507749520045000,5.878045166015625,-0.05175910145044327,0.04300234094262123,-0.24208521842956543
1761507749530017000,5.88801708984375,-0.043193042278289795,0.009129595942795277,-0.25474295020103455
1761507749539989000,5.897989013671875,-0.026645036414265633,-0.01915580779314041,-0.25427326560020447
1761507749549961000,5.9079609375,-0.00624761963263154,-0.030863331630825996,-0.24164694547653198
1761507749559933000,5.917932861328125,0.0157216414809227,-0.027253972366452217,-0.2138770967721939
1761507749569905200,5.9279052734375,0.044690974056720734,-0.029097411781549454,-0.17291128635406494
1761507749579876900,5.937876953125,0.0644892007112503,-0.04691527411341667,-0.12209988385438919
1761507749589849000,5.94784912109375,0.0816439539194107,-0.07871074974536896,-0.07198824733495712
1761507749599820500,5.957820556640625,0.08681007474660873,-0.11387092620134354,-0.027129344642162323
1761507749609792800,5.967792724609375,0.08620021492242813,-0.12914042174816132,0.014959520660340786
1761507749619764700,5.9777646484375,0.0788462683558464,-0.11731833219528198,0.05014743655920029
1761507749629736700,5.98773681640625,0.06841333955526352,-0.09666179120540619,0.07509379833936691
1761507749639708700,5.997708740234375,0.06284721195697784,-0.0580625981092453,0.09430854767560959
1761507749649680600,6.0076806640625,0.05823994055390358,-0.026483634486794472,0.10755696892738342
1761507749659652600,6.017652587890625,0.05176922678947449,-0.011869268491864204,0.11479908972978592
1761507749669624800,6.027624755859375,0.04649670049548149,-0.009075612761080265,0.12546293437480927
1761507749679596500,6.037596435546875,0.04101242125034332,-0.0194757841527462,0.13348615169525146
1761507749689568800,6.04756884765625,0.029997054487466812,-0.02922348491847515,0.14509806036949158
1761507749699540700,6.057540771484375,0.006262813229113817,-0.027841702103614807,0.16044048964977264
1761507749709511700,6.06751171875,-0.02964645065367222,-0.013261960819363594,0.1753523349761963
1761507749719483600,6.077483642578125,-0.08193234354257584,0.012269522994756699,0.17936863005161285
1761507749729455600,6.08745556640625,-0.13984598219394684,0.0360289141535759,0.16932079195976257
1761507749739427800,6.097427734375,-0.1917717158794403,0.04935251548886299,0.1411982923746109
1761507749749399600,6.107399658203125,-0.23637913167476654,0.059790242463350296,0.09758210927248001
1761507749759371800,6.117371826171875,-0.2727624177932739,0.06786750257015228,0.059622351080179214
1761507749769343500,6.127343505859375,-0.29779160022735596,0.0861692801117897,0.02727479487657547
1761507749779315700,6.137315673828125,-0.31954246759414673,0.12795740365982056,0.007503550034016371
1761507749789287700,6.14728759765625,-0.3331048786640167,0.16136756539344788,-0.0012041880981996655
1761507749799259600,6.157259765625,-0.33502793312072754,0.18981961905956268,0.002617243677377701
1761507749809232000,6.16723193359375,-0.33537787199020386,0.20042192935943604,0.01747714914381504
1761507749819203600,6.17720361328125,-0.33755844831466675,0.20997831225395203,0.049750812351703644
1761507749829175800,6.18717578125,-0.35436752438545227,0.2508876621723175,0.08360438048839569
1761507749839147800,6.197147705078125,-0.3786098062992096,0.2575819790363312,0.10108641535043716
1761507749849119700,6.20711962890625,-0.3905588686466217,0.19399049878120422,0.07790492475032806
1761507749859091700,6.217091796875,-0.3934057056903839,0.11630001664161682,0.0321202352643013
1761507749869063700,6.227063720703125,-0.4009957015514374,0.029122503474354744,-0.035258807241916656
1761507749879035600,6.23703564453125,-0.41861703991889954,-0.054931554943323135,-0.11337870359420776
1761507749889007900,6.2470078125,-0.4380871653556824,-0.11916833370923996,-0.19001063704490662
1761507749898979600,6.2569794921875,-0.45068275928497314,-0.13834482431411743,-0.23722779750823975
1761507749908951800,6.266951904296875,-0.4614259600639343,-0.09542664885520935,-0.24899737536907196
1761507749918923500,6.276923583984375,-0.4776153564453125,-0.01049051433801651,-0.24369025230407715
1761507749928895700,6.286895751953125,-0.4922667443752289,0.1176176518201828,-0.22836323082447052
1761507749938867700,6.29686767578125,-0.4979809820652008,0.2327539026737213,-0.21622788906097412
1761507749948839700,6.306839599609375,-0.47876787185668945,0.32147523760795593,-0.2061462253332138
1761507749958811600,6.316811767578125,-0.43921804428100586,0.3706734776496887,-0.19092455506324768
1761507749968783600,6.32678369140625,-0.39005690813064575,0.3652629852294922,-0.173344224691391
1761507749978754800,6.3367548828125,-0.34706950187683105,0.31145188212394714,-0.16047994792461395
1761507749988726500,6.3467265625,-0.30768081545829773,0.23232486844062805,-0.14931491017341614
1761507749998698800,6.35669873046875,-0.27094322443008423,0.13307307660579681,-0.14157354831695557
1761507750008670700,6.366670654296875,-0.227825328707695,0.03910103812813759,-0.13417501747608185
1761507750018642700,6.376642578125,-0.1611112654209137,-0.048042651265859604,-0.11016609519720078
1761507750028614700,6.38661474609375,-0.0748148187994957,-0.12028389424085617,-0.060510408133268356
1761507750038586600,6.396586669921875,0.012600823305547237,-0.15844309329986572,0.007248808164149523
1761507750048558600,6.40655859375,0.0779406800866127,-0.16086150705814362,0.08819718658924103
1761507750058530800,6.41653076171875,0.12300761044025421,-0.1556914895772934,0.16003145277500153
1761507750068502800,6.426502685546875,0.14897370338439941,-0.17125552892684937,0.22068654000759125
1761507750078474800,6.436474853515625,0.15089866518974304,-0.20832353830337524,0.26050353050231934
1761507750088446700,6.44644677734375,0.11668716371059418,-0.24976497888565063,0.28272390365600586
1761507750098418700,6.456418701171875,0.05394967645406723,-0.2894520163536072,0.293220192193985
1761507750108391000,6.466390869140625,-0.02947145141661167,-0.31082868576049805,0.3034895956516266
1761507750118362600,6.476362548828125,-0.09968691319227219,-0.28972917795181274,0.3166201412677765
1761507750128334800,6.4863349609375,-0.1578064113855362,-0.2197013646364212,0.33933666348457336
1761507750138306600,6.496306640625,-0.19801296293735504,-0.1265462040901184,0.34958916902542114
1761507750148278800,6.50627880859375,-0.2256467193365097,-0.031595975160598755,0.3454977571964264
1761507750158250800,6.516250732421875,-0.2547931969165802,0.05210841819643974,0.3241036832332611
1761507750168222700,6.52622265625,-0.2775634825229645,0.09204650670289993,0.28222545981407166
1761507750178194700,6.536194580078125,-0.2966194152832031,0.09017534554004669,0.23237279057502747
1761507750188166700,6.546166748046875,-0.3072552978992462,0.0524362213909626,0.1790698766708374
1761507750198138600,6.556138671875,-0.31038713455200195,-0.004528264980763197,0.12833860516548157
1761507750208110800,6.56611083984375,-0.30685603618621826,-0.06474579870700836,0.08385901898145676
1761507750218082600,6.57608251953125,-0.30292725563049316,-0.11016184836626053,0.04446523264050484
1761507750228053800,6.5860537109375,-0.30032989382743835,-0.13414575159549713,0.009300322271883488
1761507750238025700,6.596025634765625,-0.2981998920440674,-0.14687398076057434,-0.022165868431329727
1761507750247997700,6.605997802734375,-0.2913912534713745,-0.1480122208595276,-0.054640453308820724
1761507750257969700,6.6159697265625,-0.2758347690105438,-0.12392283231019974,-0.07849535346031189
1761507750267941600,6.625941650390625,-0.259271502494812,-0.08157777041196823,-0.10410697013139725
1761507750277913900,6.635913818359375,-0.24548430740833282,-0.03270167112350464,-0.13520890474319458
1761507750287885600,6.645885498046875,-0.2390061765909195,0.01080266386270523,-0.17569801211357117
1761507750297857800,6.65585791015625,-0.23608873784542084,0.06291712075471878,-0.227396160364151
1761507750307829500,6.66582958984375,-0.23191343247890472,0.09126008301973343,-0.2700256407260895
1761507750317801700,6.6758017578125,-0.20790459215641022,0.10178206861019135,-0.281110018491745
1761507750327773700,6.685773681640625,-0.1775227189064026,0.10837791860103607,-0.25563928484916687
1761507750337745700,6.69574560546875,-0.15024785697460175,0.11212238669395447,-0.19867709279060364
1761507750347718000,6.7057177734375,-0.12266763299703598,0.1086786538362503,-0.12951719760894775
1761507750357689600,6.715689697265625,-0.08915045112371445,0.09324590861797333,-0.05827159062027931
1761507750367661800,6.725661865234375,-0.047009922564029694,0.061930857598781586,0.0029869722202420235
1761507750377633800,6.7356337890625,-0.01938217133283615,0.04002169892191887,0.05456703528761864
1761507750387605800,6.745605712890625,-0.0062975287437438965,0.0023683325853198767,0.06567081809043884
1761507750397577700,6.75557763671875,-0.007882519625127316,-0.05789922922849655,0.05055313929915428
1761507750407549700,6.7655498046875,-0.011048485524952412,-0.11119760572910309,0.0212306696921587
1761507750417521700,6.775521728515625,-0.017509792000055313,-0.13419701159000397,-0.005217674188315868
1761507750427494000,6.785493896484375,-0.0355556383728981,-0.14082029461860657,-0.0364120788872242
1761507750437465600,6.795465576171875,-0.0518101304769516,-0.11601804941892624,-0.05977343022823334
1761507750447437800,6.805437744140625,-0.06139617785811424,-0.06388586759567261,-0.06598605215549469
1761507750457409500,6.815409423828125,-0.06538262963294983,0.0042669158428907394,-0.06226559728384018
1761507750467381800,6.8253818359375,-0.07400301843881607,0.053823284804821014,-0.05680665001273155
1761507750477353700,6.835353759765625,-0.0823725089430809,0.057501330971717834,-0.05955146253108978
1761507750487325700,6.84532568359375,-0.08618908375501633,0.025624623522162437,-0.059321366250514984
1761507750497297700,6.855297607421875,-0.08467302471399307,-0.016198692843317986,-0.06340167671442032
1761507750507268600,6.8652685546875,-0.07347869873046875,-0.05002909526228905,-0.05918535962700844
1761507750517240800,6.87524072265625,-0.04927128553390503,-0.0588049441576004,-0.04472197964787483
1761507750527212500,6.885212646484375,-0.022341134026646614,-0.04362998902797699,-0.018343636766076088
1761507750537184800,6.895184814453125,-0.00047194352373480797,-0.0016772454837337136,0.009971522726118565
1761507750547156700,6.90515673828125,0.019867416471242905,0.04601837322115898,0.02682293951511383
1761507750557128700,6.915128662109375,0.038407839834690094,0.0919627845287323,0.04751918464899063
1761507750567100700,6.9251005859375,0.049483127892017365,0.11851610243320465,0.05071471258997917
1761507750577072600,6.93507275390625,0.059884797781705856,0.1356835663318634,0.05069863051176071
1761507750587044600,6.945044677734375,0.06983915716409683,0.14241205155849457,0.061249010264873505
1761507750597016800,6.955016845703125,0.0762171596288681,0.11856823414564133,0.06217632070183754
1761507750606989000,6.964989013671875,0.0874897912144661,0.06979350745677948,0.06575614213943481
1761507750616961000,6.9749609375,0.09901625663042068,0.013785626739263535,0.06271222978830338
1761507750626933000,6.98493310546875,0.10974080115556717,-0.01933104917407036,0.05879578739404678
1761507750636905200,6.9949052734375,0.12073192745447159,-0.016191251575946808,0.06037278473377228
1761507750646877000,7.004876953125,0.1358690708875656,0.005695403553545475,0.061255354434251785
1761507750656849200,7.01484912109375,0.14401847124099731,0.03900553658604622,0.06731579452753067
1761507750666821000,7.024821044921875,0.15931805968284607,0.06768377870321274,0.07321522384881973
1761507750676793000,7.03479296875,0.16848774254322052,0.07680656760931015,0.08472864329814911
1761507750686765300,7.044765380859375,0.17724475264549255,0.07193484902381897,0.09569527953863144
1761507750696737000,7.054737060546875,0.17766490578651428,0.055151037871837616,0.10609231889247894
1761507750706709200,7.064709228515625,0.179962158203125,0.03434136509895325,0.11609887331724167
1761507750716681000,7.074680908203125,0.18830659985542297,0.03267529234290123,0.1201433390378952
1761507750726653200,7.084653076171875,0.1941402554512024,0.05541282892227173,0.11870096623897552
1761507750736625200,7.094625244140625,0.21149113774299622,0.0828559398651123,0.1152106523513794
1761507750746596000,7.10459619140625,0.23509205877780914,0.09238313138484955,0.10549358278512955
1761507750756568300,7.114568359375,0.2563594579696655,0.051001302897930145,0.09050163626670837
1761507750766540000,7.1245400390625,0.26277104020118713,-0.022904615849256516,0.06890446692705154
1761507750776512300,7.13451220703125,0.25878483057022095,-0.09836415946483612,0.05479907989501953
1761507750786484000,7.14448388671875,0.25591394305229187,-0.15432783961296082,0.0536363422870636
1761507750796456200,7.154456298828125,0.2656945288181305,-0.1907825469970703,0.0674717053771019
1761507750806428200,7.16442822265625,0.287323921918869,-0.2105748951435089,0.10938107222318649
1761507750816400100,7.174400146484375,0.31729403138160706,-0.19904935359954834,0.17150229215621948
1761507750826372000,7.1843720703125,0.34326171875,-0.15658818185329437,0.24255064129829407
1761507750836344000,7.194343994140625,0.35702937841415405,-0.07762746512889862,0.29506492614746094
1761507750846316000,7.20431591796875,0.3409588038921356,0.030828174203634262,0.3080955147743225
1761507750856288300,7.214288330078125,0.29158318042755127,0.09209981560707092,0.2588823735713959
1761507750866260000,7.224260009765625,0.24629265069961548,0.1061226949095726,0.1749456375837326
1761507750876232200,7.234232177734375,0.2135750949382782,0.09152566641569138,0.07550685852766037
1761507750886204000,7.244203857421875,0.19754712283611298,0.049469828605651855,-0.003087288234382868
1761507750896176000,7.254176025390625,0.1946994960308075,-0.0032671825028955936,-0.057130999863147736
1761507750906148000,7.264148193359375,0.19636450707912445,-0.033959317952394485,-0.07409027963876724
1761507750916120000,7.2741201171875,0.1982354074716568,-0.05114319548010826,-0.06684713065624237
1761507750926092000,7.284092041015625,0.18907120823860168,-0.0685080736875534,-0.054116688668727875
1761507750936064000,7.29406396484375,0.16619178652763367,-0.0696512833237648,-0.03740392252802849
1761507750946036200,7.3040361328125,0.14105874300003052,-0.052687209099531174,-0.024017009884119034
1761507750956008200,7.31400830078125,0.106646828353405,-0.014482717961072922,-0.015409263782203197
1761507750965980200,7.323980224609375,0.07823888957500458,0.029310835525393486,-0.012353818863630295
1761507750975952100,7.3339521484375,0.06322101503610611,0.061621565371751785,-0.024051425978541374
1761507750985924000,7.343924072265625,0.06690603494644165,0.08702865242958069,-0.028494644910097122
1761507750995895000,7.35389501953125,0.07353194057941437,0.11154555529356003,-0.02679862082004547
1761507751005867000,7.363866943359375,0.09130240976810455,0.11063235253095627,-0.028864433988928795
1761507751015839000,7.3738388671875,0.10964356362819672,0.08447933942079544,-0.02456848882138729
1761507751025811200,7.383811279296875,0.12519535422325134,0.04222002997994423,-0.016050368547439575
1761507751035783200,7.393783203125,0.1386965811252594,0.00856706127524376,-0.01608869805932045
1761507751045755100,7.403755126953125,0.14749141037464142,-0.018902912735939026,-0.015255661681294441
1761507751055727000,7.41372705078125,0.16246865689754486,-0.04285721108317375,-0.02274969406425953
1761507751065699000,7.423698974609375,0.17099529504776,-0.06800170987844467,-0.020998666062951088
1761507751075671300,7.43367138671875,0.1793813556432724,-0.08968526870012283,-0.015471131540834904
1761507751085643000,7.44364306640625,0.18095529079437256,-0.11727029085159302,-0.01590336300432682
1761507751095615200,7.453615234375,0.183914452791214,-0.14713157713413239,-0.024857360869646072
1761507751105587000,7.4635869140625,0.1800139844417572,-0.17282095551490784,-0.03622426092624664
1761507751115559200,7.47355908203125,0.1778707355260849,-0.19012272357940674,-0.05277564376592636
1761507751125531100,7.48353125,0.1689712554216385,-0.19568313658237457,-0.07781654596328735
1761507751135503000,7.493503173828125,0.16076350212097168,-0.18688073754310608,-0.09975464642047882
1761507751145475000,7.50347509765625,0.15197321772575378,-0.1725585162639618,-0.11829504370689392
1761507751155447000,7.513447021484375,0.15290901064872742,-0.16175156831741333,-0.14017704129219055
1761507751165419000,7.5234189453125,0.15645554661750793,-0.1490890383720398,-0.15185686945915222
1761507751175391200,7.53339111328125,0.15507656335830688,-0.1411413699388504,-0.14553958177566528
1761507751185363000,7.543363037109375,0.1577381193637848,-0.13725528120994568,-0.13518628478050232
1761507751195335200,7.553335205078125,0.14665479958057404,-0.1303512006998062,-0.12158966064453125
1761507751205307000,7.563306884765625,0.12546323239803314,-0.1174018457531929,-0.10339893400669098
1761507751215279000,7.573279052734375,0.10760514438152313,-0.0919213518500328,-0.08586941659450531
1761507751225251000,7.5832509765625,0.08403617143630981,-0.041131410747766495,-0.07058101147413254
1761507751235223000,7.59322314453125,0.060390178114175797,0.014848092570900917,-0.05546017363667488
1761507751245194200,7.6031943359375,0.039618056267499924,0.07707098126411438,-0.05191390961408615
1761507751255166000,7.613166015625,0.027039235457777977,0.11201516538858414,-0.06357914954423904
1761507751265138200,7.62313818359375,0.022440221160650253,0.1144772544503212,-0.08157572150230408
1761507751275110000,7.63310986328125,0.016541555523872375,0.10520067811012268,-0.10457353293895721
1761507751285082000,7.64308203125,0.016374574974179268,0.10846197605133057,-0.12473180145025253
1761507751295054000,7.65305419921875,0.011758090928196907,0.1128554567694664,-0.13994260132312775
1761507751305026000,7.663026123046875,0.010550880804657936,0.12084680795669556,-0.15015769004821777
1761507751314998300,7.672998291015625,0.018461572006344795,0.12236550450325012,-0.1474810689687729
1761507751324970000,7.682969970703125,0.02913525514304638,0.12080329656600952,-0.1409400850534439
1761507751334942200,7.692942138671875,0.04489261284470558,0.10594791918992996,-0.13137222826480865
1761507751344914200,7.7029140625,0.059416428208351135,0.07591758668422699,-0.11733230948448181
1761507751354886100,7.71288623046875,0.07002115994691849,0.05037033557891846,-0.10261226445436478
1761507751364858000,7.722858154296875,0.07863009721040726,0.02227878011763096,-0.08447454124689102
1761507751374830000,7.732830078125,0.08290432393550873,-0.0000043833861127495766,-0.06901565939188004
1761507751384802000,7.742802001953125,0.08170802891254425,-0.015213429927825928,-0.06317242234945297
1761507751394774300,7.752774169921875,0.06872226297855377,-0.031641606241464615,-0.06254309415817261
1761507751404746000,7.76274609375,0.048715271055698395,-0.044045012444257736,-0.07514810562133789
1761507751414718200,7.77271826171875,0.029790429398417473,-0.043935954570770264,-0.08885170519351959
1761507751424690000,7.78268994140625,0.009088880382478237,-0.03235546499490738,-0.10398538410663605
1761507751434662100,7.792662109375,-0.006144737359136343,-0.014502590522170067,-0.12260749936103821
1761507751444634000,7.802634033203125,-0.02101236581802368,-0.00249786046333611,-0.14182806015014648
1761507751454606000,7.812606201171875,-0.022138919681310654,0.023073380813002586,-0.1515793651342392
1761507751464578000,7.822578125,-0.014004030264914036,0.04356560483574867,-0.15148243308067322
1761507751474549000,7.832549072265625,-0.007480077911168337,0.06274985522031784,-0.13393905758857727
1761507751484521200,7.842521240234375,-0.002715949434787035,0.06587906926870346,-0.09715814888477325
1761507751494493000,7.852492919921875,-0.00486064562574029,0.06840386986732483,-0.05034516379237175
1761507751504465200,7.862465087890625,-0.011542517691850662,0.05087920278310776,-0.0072368416003882885
1761507751514437000,7.87243701171875,-0.015088850632309914,0.018989287316799164,0.0344105139374733
1761507751524409000,7.8824091796875,-0.02740251086652279,-0.005470782518386841,0.061240795999765396
1761507751534381000,7.892381103515625,-0.04064636304974556,-0.027082091197371483,0.06984120607376099
1761507751544353000,7.90235302734375,-0.05239889398217201,-0.05792948603630066,0.06292497366666794
1761507751554325000,7.912324951171875,-0.06203444302082062,-0.076003298163414,0.042125772684812546
1761507751564297200,7.922297119140625,-0.06984949111938477,-0.06744150072336197,0.03446732088923454
1761507751574269200,7.932269287109375,-0.08823684602975845,-0.03752945736050606,0.030816184356808662
1761507751584241200,7.9422412109375,-0.12144406139850616,-0.0038175673689693213,0.039923664182424545
1761507751594213000,7.952213134765625,-0.15571722388267517,0.022281622514128685,0.04823440685868263
1761507751604185600,7.962185546875,-0.18312807381153107,0.039914678782224655,0.06165248155593872
1761507751614157300,7.9721572265625,-0.2063806802034378,0.06481728702783585,0.08178851753473282
1761507751624129500,7.982129638671875,-0.22803084552288055,0.0879681408405304,0.10016565769910812
1761507751634101500,7.9921015625,-0.23520635068416595,0.11956385523080826,0.12442482262849808
1761507751644073500,8.002073486328126,-0.23745085299015045,0.15018196403980255,0.13750147819519043
1761507751654045700,8.012045654296875,-0.234343022108078,0.12367650866508484,0.13040518760681152
1761507751664015600,8.022015625,-0.23564638197422028,0.02782934345304966,0.08628620207309723
1761507751673987300,8.0319873046875,-0.2517395615577698,-0.07852054387331009,0.028850261121988297
1761507751683959600,8.04195947265625,-0.2855031192302704,-0.16611936688423157,-0.040168218314647675
1761507751693931500,8.051931640625,-0.333297461271286,-0.229469433426857,-0.11211177706718445
1761507751703903500,8.061903564453125,-0.38233157992362976,-0.24945911765098572,-0.17863807082176208
1761507751713875500,8.07187548828125,-0.40875372290611267,-0.2106296718120575,-0.2153577357530594
1761507751723847400,8.081847412109376,-0.4039698839187622,-0.11787282675504684,-0.22115729749202728
1761507751733819400,8.0918193359375,-0.3843611478805542,0.02161896973848343,-0.1852564811706543
1761507751743791600,8.10179150390625,-0.3675597906112671,0.17034612596035004,-0.14674291014671326
1761507751753763300,8.111763427734376,-0.3584204614162445,0.2687300741672516,-0.11344056576490402
1761507751763735600,8.121735595703125,-0.3433520495891571,0.3014739155769348,-0.08862123638391495
1761507751773707300,8.131707275390625,-0.32646122574806213,0.2707916498184204,-0.07030660659074783
1761507751783679500,8.141679443359376,-0.30985429883003235,0.1921232044696808,-0.05642940104007721
1761507751793651500,8.1516513671875,-0.29006892442703247,0.09461939334869385,-0.04132790490984917
1761507751803623400,8.16162353515625,-0.26023831963539124,0.020739315077662468,-0.02918682061135769
1761507751813594600,8.1715947265625,-0.21950364112854004,-0.029049303382635117,-0.025370243936777115
1761507751823566300,8.18156640625,-0.17636176943778992,-0.05638611689209938,-0.029048869386315346
1761507751833538600,8.19153857421875,-0.13272500038146973,-0.05994483456015587,-0.036316879093647
1761507751843510300,8.20151025390625,-0.10956455767154694,-0.057160232216119766,-0.04636178910732269
1761507751853482500,8.211482421875,-0.10190334171056747,-0.046909403055906296,-0.04862457513809204
1761507751863454500,8.221454345703124,-0.11144278198480606,-0.03099248744547367,-0.04632014408707619
1761507751873426400,8.231426513671876,-0.12114284187555313,-0.006670285016298294,-0.04297224432229996
1761507751883398700,8.241398681640625,-0.13221918046474457,0.007153118494898081,-0.033813368529081345
1761507751893370400,8.251370361328124,-0.138251394033432,0.014009217731654644,-0.02101863920688629
1761507751903342600,8.261342529296876,-0.14376574754714966,0.008244538679718971,-0.018690504133701324
1761507751913314600,8.271314453125,-0.14386101067066193,0.009866109117865562,-0.012913758866488934
1761507751923286500,8.28128662109375,-0.13706807792186737,0.006836496759206057,0.0018137878505513072
1761507751933258500,8.291258544921876,-0.12944957613945007,0.0058133103884756565,0.018152548000216484
1761507751943230500,8.30123046875,-0.11231959611177444,0.013547129929065704,0.04575328156352043
1761507751953202400,8.311202392578124,-0.0966859832406044,0.029635101556777954,0.06839557737112045
1761507751963174700,8.321174560546876,-0.08154484629631042,0.029449746012687683,0.09030673652887344
1761507751973146400,8.331146484375,-0.06680603325366974,0.02399715967476368,0.10373900830745697
1761507751983118600,8.34111865234375,-0.05681704729795456,0.0072701117023825645,0.12195609509944916
1761507751993090300,8.35109033203125,-0.052546847611665726,-0.007944212295114994,0.1320004016160965
1761507752003062500,8.3610625,-0.06134140491485596,-0.022382274270057678,0.13569341599941254
1761507752013034500,8.371034423828124,-0.07243720442056656,-0.03040602058172226,0.1285259872674942
1761507752023006500,8.38100634765625,-0.08825185149908066,-0.025627242401242256,0.11912743002176285
1761507752032979500,8.3909794921875,-0.10666237771511078,-0.01006394624710083,0.11284902691841125
1761507752042951700,8.40095166015625,-0.11674350500106812,0.009950242005288601,0.09908900409936905
1761507752052923400,8.41092333984375,-0.1344624161720276,0.03492600843310356,0.08512654155492783
1761507752062895600,8.4208955078125,-0.15197083353996277,0.055154845118522644,0.06906235218048096
1761507752072867300,8.430867431640625,-0.16290482878684998,0.08447691798210144,0.05557401850819588
1761507752082839600,8.440839599609374,-0.1687438040971756,0.11257486045360565,0.049062591046094894
1761507752092811500,8.4508115234375,-0.17208190262317657,0.13767385482788086,0.04496390372514725
1761507752102783500,8.460783447265625,-0.17246752977371216,0.15221445262432098,0.04099126532673836
1761507752112755500,8.47075537109375,-0.1638769954442978,0.14289578795433044,0.039380770176649094
1761507752122727400,8.4807275390625,-0.14576643705368042,0.12010178714990616,0.03275349363684654
1761507752132699400,8.490699462890625,-0.12380068749189377,0.08315931260585785,0.010728290304541588
1761507752142671600,8.500671630859374,-0.11998011916875839,0.05019523575901985,-0.029429782181978226
1761507752152642600,8.510642578125,-0.12646760046482086,0.018269801512360573,-0.07813295722007751
1761507752162614500,8.520614501953125,-0.13469091057777405,-0.00973014160990715,-0.12792980670928955
1761507752172586500,8.53058642578125,-0.1329914778470993,0.004431187640875578,-0.16210128366947174
1761507752182558500,8.540558349609375,-0.12736262381076813,0.03303380310535431,-0.19058857858181
1761507752192530400,8.550530517578125,-0.11998391151428223,0.048940274864435196,-0.20629973709583282
1761507752202502400,8.56050244140625,-0.10255591571331024,0.07557614147663116,-0.19689930975437164
1761507752212474600,8.570474609375,-0.08447052538394928,0.09281636029481888,-0.16759727895259857
1761507752222446300,8.5804462890625,-0.06965082883834839,0.08967223763465881,-0.1217363178730011
1761507752232418600,8.59041845703125,-0.050649743527173996,0.07086507230997086,-0.05825520306825638
1761507752242390300,8.600390380859375,-0.026148661971092224,0.043051812797784805,-0.0016523799858987331
1761507752252362500,8.610362548828125,-0.012035302817821503,0.011154006235301495,0.04840907081961632
1761507752262334500,8.62033447265625,-0.0036340956576168537,-0.025801880285143852,0.08124451339244843
1761507752272306400,8.630306396484375,0.003686237148940563,-0.063932865858078,0.09878040105104446
1761507752282278700,8.640278564453125,0.014547407627105713,-0.08806297183036804,0.09820515662431717
1761507752292250400,8.65025048828125,0.025283940136432648,-0.09461568295955658,0.08998265117406845
1761507752302222600,8.66022265625,0.03390805423259735,-0.09230778366327286,0.07738669961690903
1761507752312194600,8.670194580078125,0.039015673100948334,-0.06934209167957306,0.06090455874800682
1761507752322166500,8.68016650390625,0.03135109692811966,-0.03929418325424194,0.045636653900146484
1761507752332138500,8.690138427734375,0.007740105967968702,-0.01285859290510416,0.03304006904363632
1761507752342110500,8.7001103515625,-0.029218176379799843,-0.004405719228088856,0.010324636474251747
1761507752352082400,8.71008251953125,-0.06329263746738434,-0.01291927695274353,-0.010280937887728214
1761507752362054700,8.7200546875,-0.07823830097913742,-0.026791416108608246,-0.042684946209192276
1761507752372026400,8.7300263671875,-0.08183439821004868,-0.04174399375915527,-0.07179125398397446
1761507752381997600,8.73999755859375,-0.07134553790092468,-0.04557015746831894,-0.08783520013093948
1761507752391969500,8.749969482421875,-0.05092353746294975,-0.032862383872270584,-0.08836481720209122
1761507752401941500,8.75994140625,-0.029351400211453438,-0.004287462215870619,-0.07919182628393173
1761507752411913500,8.76991357421875,-0.010034129023551941,0.023383039981126785,-0.06751910597085953
1761507752421885400,8.779885498046875,0.00319459056481719,0.016924342140555382,-0.05425869673490524
1761507752431857700,8.789857666015624,0.01808898150920868,0.013862988911569118,-0.03611317276954651
1761507752441829400,8.799829345703126,0.03239947557449341,0.004242053721100092,-0.010073846206068993
1761507752451801600,8.809801513671875,0.0331382192671299,0.013432636857032776,0.012193458154797554
1761507752461773300,8.819773193359374,0.037033092230558395,0.02850266546010971,0.02415318228304386
1761507752471745500,8.82974560546875,0.022459568455815315,0.05441660434007645,0.01664726622402668
1761507752481717500,8.839717529296875,-0.006897254381328821,0.08189110457897186,-0.0013876600423827767
1761507752491689500,8.849689453125,-0.03301474079489708,0.11835569143295288,-0.025476565584540367
1761507752501661400,8.859661376953126,-0.04942886531352997,0.160136416554451,-0.05023064464330673
1761507752511633400,8.86963330078125,-0.05170788615942001,0.19298063218593597,-0.06609520316123962
1761507752521605400,8.87960546875,-0.04645666852593422,0.1948552280664444,-0.07178797572851181
1761507752531577600,8.88957763671875,-0.01904325559735298,0.17265106737613678,-0.05893219634890556
1761507752541549600,8.899549560546875,0.028095759451389313,0.1361955851316452,-0.02599981613457203
1761507752551521500,8.909521484375,0.09439413249492645,0.11996554583311081,0.0393596850335598
1761507752561493500,8.919493408203126,0.16489547491073608,0.11403682082891464,0.11022693663835526
1761507752571465500,8.929465576171875,0.23182204365730286,0.0659656971693039,0.1763329803943634
1761507752581437700,8.939437744140625,0.26941752433776855,-0.02425798587501049,0.21609564125537872
1761507752591409400,8.949409423828126,0.2707601487636566,-0.13911521434783936,0.22455798089504242
1761507752601380600,8.959380615234375,0.2532951533794403,-0.23234263062477112,0.21925190091133118
1761507752611352300,8.969352294921874,0.23339588940143585,-0.28590694069862366,0.19412049651145935
1761507752621324500,8.979324462890625,0.23260866105556488,-0.2839607000350952,0.16669686138629913
1761507752631296500,8.989296630859375,0.2516716718673706,-0.25925543904304504,0.15463249385356903
1761507752641268500,8.9992685546875,0.28248152136802673,-0.20804552733898163,0.17575696110725403
1761507752651240700,9.00924072265625,0.3249204754829407,-0.11423289030790329,0.22909638285636902
1761507752661212400,9.01921240234375,0.36303776502609253,0.005449308548122644,0.31073904037475586
1761507752671184600,9.0291845703125,0.3905518352985382,0.12034973502159119,0.3957267999649048
1761507752681156400,9.03915625,0.4051251709461212,0.2064870148897171,0.4636874794960022
1761507752691128600,9.049128662109375,0.41230931878089905,0.24429938197135925,0.4944419264793396
1761507752701100500,9.0591005859375,0.410031259059906,0.20025895535945892,0.4758285582065582
1761507752711072500,9.069072509765626,0.4041944444179535,0.08590297400951385,0.4113098978996277
1761507752721044500,9.07904443359375,0.3948099911212921,-0.0543057918548584,0.323863685131073
1761507752731016400,9.089016357421874,0.3720545470714569,-0.16857872903347015,0.2227935791015625
1761507752740988400,9.098988525390626,0.3355788290500641,-0.25484544038772583,0.11690203100442886
1761507752750960600,9.108960693359375,0.30384424328804016,-0.31078431010246277,0.02688363939523697
1761507752760932400,9.118932373046874,0.28314775228500366,-0.3132799565792084,-0.03263960778713226
1761507752770904600,9.128904541015626,0.27332866191864014,-0.26146283745765686,-0.07216305285692215
1761507752780876300,9.138876220703125,0.26073458790779114,-0.18558484315872192,-0.08564583957195282
1761507752790848500,9.1488486328125,0.24332764744758606,-0.08667860180139542,-0.08317781984806061
1761507752800820200,9.1588203125,0.22114990651607513,0.01702169142663479,-0.07707198709249496
1761507752810791400,9.16879150390625,0.19917002320289612,0.10439486801624298,-0.0637294128537178
1761507752820763600,9.178763671875,0.17526710033416748,0.1507599651813507,-0.04879147559404373
1761507752830735400,9.1887353515625,0.16417622566223145,0.17232124507427216,-0.030381925404071808
1761507752840707600,9.19870751953125,0.1632169634103775,0.17931470274925232,-0.0024962308816611767
1761507752850679300,9.20867919921875,0.17537464201450348,0.18566417694091797,0.03557480499148369
1761507752860651500,9.218651611328125,0.18802572786808014,0.18804557621479034,0.0798671618103981
1761507752870623500,9.22862353515625,0.18931245803833008,0.15939274430274963,0.13481825590133667
1761507752880595500,9.238595458984374,0.18617604672908783,0.13250359892845154,0.18091703951358795
1761507752890567400,9.2485673828125,0.17793500423431396,0.095504991710186,0.2215215116739273
1761507752900539400,9.258539306640625,0.16944670677185059,0.060789622366428375,0.23981556296348572
1761507752910511600,9.26851171875,0.15688204765319824,0.02313433773815632,0.23673595488071442
1761507752920483300,9.2784833984375,0.13945512473583221,-0.012677721679210663,0.2189159393310547
1761507752930455600,9.28845556640625,0.11464426666498184,-0.04077370464801788,0.20161111652851105
1761507752940427500,9.298427490234374,0.08814528584480286,-0.08030646294355392,0.17674198746681213
1761507752950399500,9.3083994140625,0.06288130581378937,-0.14923524856567383,0.14473958313465118
1761507752960371500,9.318371337890625,0.04512521252036095,-0.20962348580360413,0.11317871510982513
1761507752970343400,9.328343505859374,0.023277606815099716,-0.2536628246307373,0.07172316312789917
1761507752980315400,9.3383154296875,-0.009284865111112595,-0.2851475179195404,0.02984202280640602
1761507752990287600,9.34828759765625,-0.04915183037519455,-0.2911219298839569,-0.011163713410496712
1761507753000259300,9.35825927734375,-0.10027573257684708,-0.2667614817619324,-0.05690004304051399
1761507753010231600,9.3682314453125,-0.15118975937366486,-0.23121361434459686,-0.11024856567382812
1761507753020203300,9.378203369140625,-0.19181761145591736,-0.17510826885700226,-0.1652449667453766
1761507753030174500,9.388174560546876,-0.21526512503623962,-0.10060562938451767,-0.21672552824020386
1761507753040146400,9.398146484375,-0.22634415328502655,-0.030325334519147873,-0.2501244843006134
1761507753050118400,9.408118408203125,-0.22314876317977905,0.03388325124979019,-0.26709866523742676
1761507753060090600,9.418090576171876,-0.21327801048755646,0.10163886845111847,-0.27509158849716187
1761507753070062300,9.428062255859375,-0.21517521142959595,0.13804052770137787,-0.2761310338973999
1761507753080034600,9.43803466796875,-0.22935521602630615,0.15010038018226624,-0.27811959385871887
1761507753090006300,9.44800634765625,-0.24685470759868622,0.12739625573158264,-0.27277249097824097
1761507753099978500,9.457978515625,-0.269384503364563,0.08755511045455933,-0.26045218110084534
1761507753109950500,9.467950439453125,-0.297850638628006,0.06437837332487106,-0.21557311713695526
1761507753119922400,9.47792236328125,-0.3260401785373688,0.0657925084233284,-0.1707388013601303
1761507753129894400,9.487894287109375,-0.3536280393600464,0.057236358523368835,-0.12283019721508026
1761507753139866400,9.497866455078125,-0.36154985427856445,0.02526005171239376,-0.07911201566457748
1761507753149838300,9.50783837890625,-0.3563300669193268,-0.03170141577720642,-0.01329330075532198
1761507753159810600,9.517810546875,-0.36779871582984924,-0.052967023104429245,0.06275805830955505
1761507753169782500,9.527782470703125,-0.39266324043273926,-0.07243119925260544,0.12129081040620804
1761507753179754500,9.53775439453125,-0.4204480051994324,-0.12652240693569183,0.1590946465730667
1761507753189726500,9.5477265625,-0.4318908154964447,-0.208795964717865,0.16895687580108643
1761507753199698400,9.557698486328125,-0.4246339797973633,-0.2744449973106384,0.15409056842327118
1761507753209670700,9.567670654296874,-0.3942248225212097,-0.31113141775131226,0.12430239468812943
1761507753219642400,9.577642333984375,-0.3522486090660095,-0.31046536564826965,0.08124973624944687
1761507753229613600,9.587613525390625,-0.2970132827758789,-0.2966167628765106,0.031361501663923264
1761507753239585300,9.597585205078126,-0.22854766249656677,-0.25585389137268066,-0.02083938755095005
1761507753249557500,9.6075576171875,-0.16216138005256653,-0.22495609521865845,-0.08824637532234192
1761507753259529500,9.617529541015625,-0.09129839390516281,-0.20754781365394592,-0.15883691608905792
1761507753269501400,9.62750146484375,-0.014303863048553467,-0.16869747638702393,-0.2198384404182434
1761507753279473700,9.6374736328125,0.04824712872505188,-0.11596690118312836,-0.26953327655792236
1761507753289445400,9.6474453125,0.0758557990193367,-0.06240520998835564,-0.3014596402645111
1761507753299417600,9.65741748046875,0.0642622634768486,-0.0027812994085252285,-0.30498644709587097
1761507753309389300,9.667389404296875,0.020525110885500908,0.05044768005609512,-0.28555798530578613
1761507753319361500,9.677361572265625,-0.03234928846359253,0.08266420662403107,-0.24777863919734955
1761507753329333500,9.68733349609375,-0.07812945544719696,0.11326931416988373,-0.20509657263755798
1761507753339305500,9.697305419921875,-0.10896886140108109,0.14968270063400269,-0.1742294728755951
1761507753349277400,9.70727734375,-0.12721852958202362,0.2112354040145874,-0.16474200785160065
1761507753359249400,9.71724951171875,-0.13243113458156586,0.3023088574409485,-0.17212295532226562
1761507753369221400,9.727221435546875,-0.12880779802799225,0.38618969917297363,-0.20109431445598602
1761507753379193600,9.737193603515625,-0.11000961810350418,0.4281398057937622,-0.24564073979854584
1761507753389165300,9.747165283203126,-0.08537610620260239,0.43333515524864197,-0.3026547431945801
1761507753399137500,9.757137451171875,-0.06035703420639038,0.3927645683288574,-0.3461707830429077
1761507753409109200,9.767109130859374,-0.03812289237976074,0.3359347879886627,-0.35625895857810974
1761507753419081500,9.77708154296875,-0.06552895158529282,0.22892975807189941,-0.2928360402584076
1761507753429053400,9.787053466796875,-0.11171779781579971,0.09133169800043106,-0.22005636990070343
1761507753439024400,9.7970244140625,-0.13846072554588318,-0.06659028679132462,-0.145034059882164
1761507753448996600,9.80699658203125,-0.15347355604171753,-0.17110735177993774,-0.08705517649650574
1761507753458968300,9.81696826171875,-0.17044134438037872,-0.19952887296676636,-0.0636979267001152
1761507753468940500,9.8269404296875,-0.20567232370376587,-0.181858092546463,-0.07434819638729095
1761507753478912300,9.836912353515626,-0.27030113339424133,-0.10663923621177673,-0.05546931177377701
1761507753488884500,9.846884521484375,-0.3314031660556793,0.015931012108922005,-0.011886557564139366
