time,seconds_elapsed,z,y,x
1761506700284491500,0.084491455078125,0.30637714847922326,-0.11647212399989366,-0.22540223512239752
1761506700294462500,0.09446240234375,0.2300865204811096,-0.08928900658525527,-0.2727918358720839
1761506700304434400,0.104434326171875,0.15080372492969035,-0.03660502575449645,-0.27814967311080546
1761506700314406400,0.114406494140625,0.07519348041117191,-0.020801015162095426,-0.27169340964350847
1761506700324378400,0.12437841796875,0.09371990170478821,-0.011342355008423328,-0.2117254092844203
1761506700334350600,0.1343505859375,0.13270575818121433,-0.009528218258544802,-0.12677167369080708
1761506700344322600,0.144322509765625,0.13968845667541027,-0.017478227414935828,-0.034431663770787414
1761506700354293500,0.15429345703125,0.12202595873475074,-0.04657930728010833,0.016799798430409282
1761506700364265500,0.164265380859375,0.051630233994126314,-0.044980859107524154,0.03912584946900606
1761506700374237400,0.174237548828125,-0.09505611874461173,0.00018872750513255595,0.046469467397197144
1761506700384209400,0.18420947265625,-0.20593056886792183,0.02516184072010219,0.08959139619846827
1761506700394181400,0.194181396484375,-0.2553746909946203,0.05726093335747719,0.12419630677746608
1761506700404153600,0.204153564453125,-0.2509972065627575,0.058189300248771905,0.13050991950421592
1761506700414125600,0.21412548828125,-0.20078502267301082,0.02550363989509642,0.14112692851331085
1761506700424096500,0.224096435546875,-0.1119365263968706,0.00737440122552216,0.1339278290557675
1761506700434068500,0.234068359375,-0.07915069360435009,0.02354096152000129,0.11211122537665068
1761506700444040400,0.24404052734375,-0.08336217381954193,0.04552548737823963,0.1293545115245506
1761506700454012400,0.254012451171875,-0.04708849891126156,0.06425334952808916,0.19705153523311017
1761506700463984400,0.263984375,0.04249649494588375,0.049634310936555265,0.26640940482597797
1761506700473956600,0.27395654296875,0.09742460144162178,0.018989143434539436,0.3054158474327065
1761506700483927600,0.283927490234375,0.10214695378839969,-0.016272797147929667,0.32471725342050195
1761506700493899500,0.2938994140625,0.08418108898699284,-0.027699469438940284,0.3261865953207016
1761506700503871500,0.30387158203125,0.04112286850512027,-0.023717121804505584,0.3200246751574799
1761506700513843500,0.313843505859375,0.005108721315860748,-0.015209917156770824,0.30917339160162954
1761506700523815400,0.3238154296875,0.025556466060876845,-0.037985008870810265,0.2965303292581811
1761506700533787400,0.333787353515625,0.05067512522637844,-0.05823737717419862,0.2860327179782092
1761506700543759600,0.343759521484375,0.061686348584294316,-0.09133037621974945,0.26168067753734064
1761506700553730600,0.35373046875,0.005404489392042159,-0.11827705453000963,0.21196902704825624
1761506700563702500,0.36370263671875,-0.07756020954251289,-0.1130949757169932,0.15608215852295979
1761506700573674500,0.373674560546875,-0.15391981112360953,-0.10342932174913584,0.1298985918059945
1761506700583646700,0.383646728515625,-0.17087153044641018,-0.1098815666284412,0.10698971764445304
1761506700593619000,0.393618896484375,-0.15147767866849898,-0.11491101216301321,0.08784737467588856
1761506700603590700,0.403590576171875,-0.11126724883317947,-0.12647979633845388,0.10210877720247953
1761506700613563000,0.41356298828125,-0.05195815077424049,-0.14965002484992146,0.07008377728119958
1761506700623533800,0.423533935546875,-0.045072482913732524,-0.15754669638387858,0.025926057425094767
1761506700633505800,0.433505859375,-0.07639058124125003,-0.14271284599788486,-0.01865865909635904
1761506700643478000,0.44347802734375,-0.0747282009869814,-0.11761457203328608,-0.032606969094276426
1761506700653449700,0.45344970703125,-0.06320142932236195,-0.10662322241961955,-0.043508886858820914
1761506700663422000,0.463421875,-0.04288227939307689,-0.08467391400523483,-0.05655070272888988
1761506700673393700,0.4733935546875,-0.03394786230921745,-0.08133395592756569,-0.05148993960744701
1761506700683364900,0.48336474609375,-0.01962941409945488,-0.08875753005705773,-0.05913064991922583
1761506700693336800,0.4933369140625,-0.03989829514622688,-0.08521956518925726,-0.0756750077172648
1761506700703308800,0.503308837890625,-0.08098375425040721,-0.061782940826565026,-0.10484034845768474
1761506700713281000,0.513281005859375,-0.09287292948663234,-0.041060982250049706,-0.12274724961346946
1761506700723252700,0.523252685546875,-0.15170856481492517,-0.019368717336654663,-0.1717877319758758
1761506700733225000,0.533224853515625,-0.19649638556838034,0.02104125365875661,-0.21829715235754846
1761506700743196700,0.54319677734375,-0.23658114319741724,0.03737235686518252,-0.23696380410576237
1761506700753168000,0.55316796875,-0.23882044655680654,0.06907682416178286,-0.24383131525507196
1761506700763139800,0.563139892578125,-0.22794950845241546,0.0895923734460026,-0.23613069601617753
1761506700773111800,0.57311181640625,-0.1680517968505621,0.10004632824733853,-0.22237788233254105
1761506700783084000,0.583083984375,-0.07207680969536304,0.09365187796987592,-0.229389003203623
1761506700793055700,0.5930556640625,0.0054202714830636975,0.09767433841899037,-0.24480965876793487
1761506700803028000,0.603028076171875,0.10416004717648028,0.09519633093290031,-0.23943956483583895
1761506700812998700,0.61299853515625,0.1955658267199993,0.10404643073417245,-0.1922520807958208
1761506700822971000,0.622970947265625,0.24282032984793184,0.1196547726240009,-0.14272957793697713
1761506700832942800,0.63294287109375,0.2873644049733877,0.11159925726652145,-0.09287896650177425
1761506700842914800,0.642914794921875,0.31412030995190143,0.1056662139557302,-0.05046703086707275
1761506700852887000,0.652886962890625,0.31215397831499575,0.12341449048370122,-0.007548451751330867
1761506700862858800,0.662858642578125,0.3097241208195686,0.12033150284178554,0.024738605772773734
1761506700872831000,0.6728310546875,0.30086919871270656,0.1145079112548381,0.040071432356582955
1761506700882801700,0.6828017578125,0.27544541912078857,0.11270765689983964,0.011692282690946012
1761506700892774000,0.69277392578125,0.19541502007246017,0.10301087714135647,-0.022394090756529476
1761506700902745600,0.70274560546875,0.0699701928049326,0.12273717574402689,-0.05237163607911206
1761506700912717800,0.7127177734375,-0.05980594166517257,0.15356997477263212,-0.07191566431690007
1761506700922689800,0.722689697265625,-0.15186697024703025,0.16544117596074936,-0.06357438625402283
1761506700932661800,0.732661865234375,-0.2058534119784832,0.16255407621711493,-0.05446795077123679
1761506700942634000,0.742634033203125,-0.21672727269232273,0.14534626324139535,-0.028533751138881777
1761506700952604700,0.752604736328125,-0.16716449262201785,0.1079865466620773,0.007081868569331709
1761506700962577000,0.762576904296875,-0.11122399421334266,0.07418612999953329,0.008491550420876593
1761506700972548600,0.772548583984375,-0.01984159554541111,0.03092866061851382,0.0262386761713773
1761506700982520800,0.782520751953125,0.04222293870151043,-0.0014277677807956932,0.014859515691857086
1761506700992492800,0.792492919921875,0.07494856573939324,-0.042104792214557527,-0.013872790226427605
1761506701002464800,0.80246484375,0.0824918207257986,-0.06889131152704357,-0.040485392585489895
1761506701012437000,0.81243701171875,0.08319558508098125,-0.08519801094457506,-0.05041534634560812
1761506701022407700,0.82240771484375,0.08276596149206161,-0.0986412106897682,-0.040286481613060456
1761506701032380000,0.8323798828125,0.0891577083557844,-0.10119162582494318,-0.017216502030607077
1761506701042351600,0.8423515625,0.08114099063873291,-0.10060681167431175,-0.007243253693100996
1761506701052323800,0.85232373046875,0.08250994090437888,-0.10448241099864244,-0.0028302184572443364
1761506701062295800,0.8622958984375,0.05151683674752712,-0.09839198516905308,-0.01162756972454954
1761506701072267800,0.872267822265625,0.024645780956745147,-0.10018749028369783,-0.011792875254899263
1761506701082239000,0.882239013671875,0.005659925457835197,-0.10513137642666696,-0.005704401637089904
1761506701092210700,0.892210693359375,-0.018952537751197814,-0.11411606239303945,-0.009598570947861299
1761506701102183000,0.902182861328125,-0.041859950608015055,-0.11014759715348481,-0.04385910223571118
1761506701112154600,0.912154541015625,-0.046377135771512985,-0.09533595859929919,-0.09460488611208275
1761506701122126800,0.922126953125,-0.04330605776309967,-0.0941418534439057,-0.12110972980582155
1761506701132098800,0.932098876953125,-0.047180853369832035,-0.0758725487165153,-0.14407545785428955
1761506701142070800,0.94207080078125,-0.043380292043089866,-0.06577383709363639,-0.12294371290048584
1761506701152042000,0.9520419921875,-0.0334796602755785,-0.055863779910653825,-0.07153081145146861
1761506701162013700,0.962013671875,-0.01469546482861042,-0.03366824165023863,-0.014048394530150107
1761506701171986000,0.97198583984375,0.0011199439406394957,-0.02630085468739271,0.04759954000620637
1761506701181957600,0.98195751953125,0.0561971035182476,-0.014568112121894955,0.08321526702898555
1761506701191929900,0.991929931640625,0.11722995662987232,-0.013930398740246892,0.09505687679643743
1761506701201901800,1.00190185546875,0.14537994631528853,-0.004893909521400929,0.10783775844168848
1761506701211872800,1.011872802734375,0.11476736590862273,0.0036331688705831763,0.11585719783878884
1761506701221845000,1.021844970703125,0.08361001110076904,0.03714446639344096,0.13268782066572457
1761506701231816700,1.031816650390625,0.07692249616086483,0.04397518919631838,0.1527587131886743
1761506701241789000,1.041788818359375,0.08489537473618984,0.02166325801461935,0.16609980426626278
1761506701251760600,1.0517607421875,0.09964227749109268,0.01805273936726153,0.16328260968737304
1761506701261732900,1.06173291015625,0.06857026287913322,0.02395122282132506,0.16234618735378606
1761506701271704800,1.071704833984375,0.03009060235917568,0.024917218309268355,0.16516170143224299
1761506701281675800,1.08167578125,-0.037619828820228574,0.06368658249080181,0.14329671030044555
1761506701291648000,1.09164794921875,-0.09828267957568168,0.08871069524064659,0.13915792999528348
1761506701301619700,1.10161962890625,-0.14928396801650523,0.08702288828417658,0.12031681672930716
1761506701311592000,1.111592041015625,-0.16008943966925143,0.06424984239675104,0.09756707865223288
1761506701321563600,1.121563720703125,-0.14353344166576862,0.050328065354377026,0.04905104028903879
1761506701331536000,1.131535888671875,-0.12108254040479659,0.020042086553573608,0.014468809616018551
1761506701341507800,1.1415078125,-0.06299158596396445,0.008075462166965008,-0.02540112480211537
1761506701351478800,1.151478759765625,0.027860066828131674,-0.014289952767640352,-0.06609544286397286
1761506701361451000,1.161450927734375,0.08857903168499469,-0.04951061149165034,-0.08351676159305498
1761506701371422700,1.171422607421875,0.10868775373399257,-0.06941825801059603,-0.11455961404261178
1761506701381395000,1.18139501953125,0.0783048904299736,-0.0666663289539516,-0.1347466072259005
1761506701391366700,1.19136669921875,0.02367839722931385,-0.06809665401801467,-0.14180246228785254
1761506701401339000,1.2013388671875,-0.006467734709382057,-0.05349573560506105,-0.11995748189762234
1761506701411309800,1.211309814453125,-0.014442951372265814,-0.05017740483731031,-0.0982234236691147
1761506701421281800,1.22128173828125,0.021795067700743673,-0.06822393365949392,-0.06445559866849798
1761506701431254000,1.23125390625,0.060736500513553615,-0.07376783152222632,-0.0530319357519038
1761506701441225700,1.241225830078125,0.08099836729764938,-0.0751549019664526,-0.06417676802738569
1761506701451198000,1.251197998046875,0.044261166530847544,-0.07260550974458456,-0.07657680626204237
1761506701461169700,1.261169677734375,0.02145195335149765,-0.05878244383633136,-0.06831342487412038
1761506701471142000,1.271141845703125,0.02724164266884327,-0.04241334670707583,-0.0376461779710371
1761506701481112800,1.28111279296875,0.04536591290235519,-0.017881839779764413,0.010626095356204313
1761506701491084800,1.291084716796875,0.07251637015640736,-0.020363573592901228,0.04646706994413398
1761506701501057000,1.30105712890625,0.09761690914332866,-0.03903963249027729,0.05414892968363128
1761506701511028700,1.31102880859375,0.08534604111313819,-0.04243059010282159,0.03953326579269487
1761506701521001000,1.3210009765625,0.014497896429896354,-0.030163229203969237,0.009966788913967321
1761506701530972700,1.33097265625,-0.0818126062899828,-0.00006824293062090873,-0.0119849409280112
1761506701540944000,1.34094384765625,-0.10632979243099688,0.012448562684655188,-0.014281183797650737
1761506701550915800,1.350915771484375,-0.06956804174482822,-0.010392068546265364,-0.01736303778676083
1761506701560887800,1.3608876953125,-0.015596213060617446,-0.05060571325197816,-0.02893704156001331
1761506701570860000,1.370860107421875,0.02905190696120262,-0.08626140239238739,-0.0691757681913441
1761506701580831200,1.380831298828125,0.06004793372750282,-0.09932502823546528,-0.1305509365011938
1761506701590803500,1.390803466796875,0.0839040256112814,-0.10626900215446948,-0.15835618613585828
1761506701600775400,1.400775390625,0.09884966580867767,-0.10742767067030072,-0.156538323058933
1761506701610746400,1.410746337890625,0.060628363963961596,-0.07812047377377748,-0.1689113728219643
1761506701620718600,1.420718505859375,-0.02238309672176838,-0.04948211604952812,-0.14583294164664112
1761506701630690300,1.430690185546875,-0.06218143862485885,-0.0310918883562088,-0.11858297867402434
1761506701640662500,1.44066259765625,-0.0655471156656742,-0.025575609152764082,-0.11230533230979926
1761506701650634200,1.45063427734375,-0.06593991437554358,-0.03294686857312917,-0.10439969201809726
1761506701660606500,1.4606064453125,-0.026807342904806134,-0.015821692379564045,-0.10056954840384423
1761506701670578400,1.470578369140625,0.04750175588726997,-0.018245412395149468,-0.07566720343672205
1761506701680549400,1.48054931640625,0.17000702257156372,-0.03674889120459556,-0.0473360347983893
1761506701690521600,1.490521484375,0.24954583871066569,-0.05249225765094161,-0.015423103249724953
1761506701700493300,1.500493408203125,0.2636807470470667,-0.053272594373673196,0.033865211827331224
1761506701710465500,1.510465576171875,0.2060708541214466,-0.0350721901640296,0.06735577252283692
1761506701720437200,1.520437255859375,0.10846446637213229,0.010102291819453239,0.08620601894333958
1761506701730409500,1.530409423828125,-0.002013093388080597,0.0557191107429564,0.0928117099518422
1761506701740380200,1.540380126953125,-0.09010580286085605,0.07785298194400966,0.10983143474324605
1761506701750352400,1.550352294921875,-0.13225158467292786,0.1102243887167424,0.14170452747186646
1761506701760324400,1.560324462890625,-0.1316267307728529,0.11734883376918732,0.17437577570769935
1761506701770296300,1.57029638671875,-0.12384849798679351,0.12170892867483198,0.18848611585842445
1761506701780268500,1.5802685546875,-0.11805120988488196,0.11498561176918447,0.1901175529851578
1761506701790240300,1.590240234375,-0.11242635574042796,0.09722447575964033,0.15050421226015315
1761506701800212500,1.60021240234375,-0.12135142047405242,0.08122443113848567,0.1202247088659089
1761506701810183200,1.61018310546875,-0.10898410633206367,0.07667633938007057,0.08323517730585299
1761506701820155400,1.6201552734375,-0.05611059427857399,0.04793678630366921,0.0573820298533421
1761506701830127400,1.63012744140625,0.022857143974304196,-0.0035727439202368257,0.023579873324860817
1761506701840099300,1.640099365234375,0.07129998010396957,-0.048201574719697236,-0.013544679366779746
1761506701850071600,1.650071533203125,0.08681494462192058,-0.10009382065087556,-0.06572655931923073
1761506701860043300,1.660043212890625,0.06679857703149318,-0.12959741690233348,-0.1105536024047993
1761506701870014500,1.670014404296875,0.01606967579126358,-0.12499912932664155,-0.1415568626294844
1761506701879986200,1.679986083984375,-0.05018938753604889,-0.12230915959030389,-0.16863469303874298
1761506701889958400,1.68995849609375,-0.06901274594962596,-0.13626301227137447,-0.17646368789765982
1761506701899930400,1.699930419921875,-0.04843348377943039,-0.1426847158819437,-0.17295063827540724
1761506701909902300,1.70990234375,0.004922843354940414,-0.18283757031112907,-0.14915287071643396
1761506701919874300,1.719874267578125,0.08266250111758708,-0.21586861003637312,-0.12191449771691112
1761506701929846300,1.72984619140625,0.1199234334975481,-0.23117884576246142,-0.11317263492993078
1761506701939817500,1.7398173828125,0.08376783201098442,-0.20991028615385293,-0.11174831948154605
1761506701949789200,1.7497890625,0.010913608202338217,-0.15087868986204267,-0.1102475412634667
1761506701959761400,1.759761474609375,-0.048635728353261944,-0.10011457117795944,-0.07038201587568037
1761506701969733400,1.7697333984375,-0.07290683077871798,-0.07166296819746494,-0.0028476114083954597
1761506701979705300,1.779705322265625,-0.06867723038494586,-0.03737710610553622,0.046763203346496446
1761506701989677300,1.78967724609375,-0.030733576437830923,-0.020105799439549446,0.09100562864425592
1761506701999648300,1.799648193359375,0.015520809736847876,0.018339228158444167,0.11620869642389006
1761506702009620500,1.809620361328125,0.057096682706475256,0.04826441082283854,0.14051649586423298
1761506702019592200,1.81959228515625,0.04255494713485241,0.08913520426303148,0.138007152524963
1761506702029564400,1.829564453125,0.020066636472940443,0.1262362699061632,0.13753824723842553
1761506702039536400,1.839536376953125,0.012494155392050742,0.14814517324492335,0.1344843121610582
1761506702049508400,1.84950830078125,0.047588265126943585,0.15373670964166522,0.14506258746180684
1761506702059480300,1.859480224609375,0.07466624166667461,0.14386720366477965,0.13745520859747193
1761506702069451300,1.869451171875,0.10814590194225311,0.11588745597973465,0.10992784432242624
1761506702079423500,1.879423583984375,0.1230693303078413,0.0954446796707809,0.08097473069373518
1761506702089395200,1.889395263671875,0.07365852592885494,0.08199073933586477,0.03518927948834607
1761506702099367400,1.899367431640625,-0.022281974434852598,0.09495879584997892,-0.017802833426534197
1761506702109339400,1.90933935546875,-0.09486965626180172,0.09331132090389728,-0.04669967312361113
1761506702119311400,1.919311279296875,-0.11481997287869453,0.08276698440536856,-0.06684511958695948
1761506702129282600,1.929282470703125,-0.06715864251554012,0.04169321573898196,-0.06570797791634686
1761506702139254300,1.939254150390625,-0.00019756839871406555,-0.020195377419143914,-0.06995062958793714
1761506702149226500,1.9492265625,0.057122401669621466,-0.07024258000552654,-0.08107433687699958
1761506702159198200,1.9591982421875,0.09532441429197788,-0.10188114245906471,-0.10845777176986447
1761506702169170400,1.96917041015625,0.10781155542135239,-0.1270781275577843,-0.12474548335913568
1761506702179142400,1.979142333984375,0.07586684962809086,-0.13509396849200128,-0.15352383407596498
1761506702189114400,1.9891142578125,0.02607026080191135,-0.12517886980772017,-0.15166616871161384
1761506702199085600,1.99908544921875,-0.015412673187255858,-0.11978081015646456,-0.1316174880204722
1761506702209057300,2.009057373046875,-0.03840075006484985,-0.10778320610970259,-0.07914972548997029
1761506702219029500,2.019029541015625,-0.05990706395208835,-0.09393573641255497,-0.07634052698786836
1761506702229001200,2.029001220703125,-0.0005155483067035675,-0.1197695581100881,-0.059374290515948086
1761506702238973400,2.038973388671875,0.033790625920891756,-0.11026055600866674,-0.05910716857893858
1761506702248945400,2.0489453125,0.042564299485087394,-0.09263692877367138,-0.02679484189954819
1761506702258916400,2.058916259765625,0.040222704795002936,-0.06354571271538734,0.009479373006493551
1761506702268888600,2.068888671875,0.03500760049521923,-0.037908728764206166,0.013057392465113662
1761506702278860300,2.0788603515625,-0.029366964259743687,0.0006982113972306251,0.017507875917817
1761506702288832500,2.08883251953125,-0.08089373787939548,0.02729424963891506,0.02284722993506584
1761506702298804200,2.09880419921875,-0.0883306098818779,0.042117432500422,0.013310006386158056
1761506702308776400,2.1087763671875,-0.04625087904334068,0.05203209279328584,0.028877424893842544
1761506702318748400,2.11874853515625,0.048346974539756775,0.028587065928429363,0.04296660580881871
1761506702328719400,2.12871923828125,0.1314262397646904,0.013089783197641373,0.04842716820307541
1761506702338691600,2.138691650390625,0.20027882671654224,0.006910656171292066,0.034337425599095875
1761506702348663300,2.148663330078125,0.18490531649589537,0.012076514501869678,-0.008320904278417583
1761506702358635500,2.158635498046875,0.09160860863924027,0.043815614720433944,-0.058598566036252304
1761506702368607200,2.168607177734375,-0.06461597229540347,0.0835274473838508,-0.08801036495156586
1761506702378579500,2.178579345703125,-0.1461187819838524,0.08414134149849414,-0.04974363936281297
1761506702388551400,2.188551513671875,-0.10829495502412319,0.06723053870797156,0.004358416688500438
1761506702398522400,2.1985224609375,-0.019754501783847807,0.01725508618354797,0.05606496503856033
1761506702408494600,2.20849462890625,0.05316928012967109,-0.028461101461201906,0.06796475300034507
1761506702418466300,2.21846630859375,0.10266834731400012,-0.04899097153171897,0.050491220026835794
1761506702428438500,2.2284384765625,0.10577858828902244,-0.06139657185748219,0.026948934199428183
1761506702438410200,2.23841015625,0.05395487754940986,-0.0363420639693737,0.004497507782070897
1761506702448382500,2.248382568359375,-0.0186263745367527,-0.012016601008176803,-0.009902298568212427
1761506702458353400,2.258353515625,-0.06386310810148715,-0.0038157588958740232,-0.006810431216808501
1761506702468325400,2.268325439453125,-0.059008069285750385,-0.012240326761454343,0.013871672556642442
1761506702478297600,2.278297607421875,-0.02412146482169628,-0.0331974823333323,0.03291850556174759
1761506702488269300,2.288269287109375,-0.003006196078658104,-0.056377866912633176,0.04037600936030503
1761506702498241500,2.298241455078125,0.019311434191465377,-0.05252718283385038,0.04010008306233212
1761506702508213200,2.308213134765625,0.001052139401435852,-0.04339081343710422,0.028106634600879622
1761506702518185500,2.318185546875,-0.02429799043238163,-0.027656653210520743,0.0031968917785910886
1761506702528156200,2.32815625,-0.033007366588711735,-0.006648790364712476,-0.012819578820979222
1761506702538128400,2.33812841796875,0.006249708044528961,-0.019703356118500232,0.01250112398895435
1761506702548100400,2.348100341796875,0.09657996731102467,-0.05080620426014065,0.025966793577570934
1761506702558072300,2.358072265625,0.14457798228263855,-0.08096285759285092,0.032683260617323684
1761506702568044500,2.36804443359375,0.1492547419220209,-0.07033566511645913,0.031241039619490037
1761506702578016800,2.378016845703125,0.09096738812625407,-0.03985007209032774,0.012056560842518228
1761506702587987700,2.38798779296875,-0.00795242030918598,0.0010540390975773335,-0.030024649567052253
1761506702597959700,2.397959716796875,-0.11192483595907687,0.024755524941533803,-0.05080686641384381
1761506702607932000,2.407931884765625,-0.16241525226831435,0.04699892093166708,-0.04690510516837239
1761506702617903600,2.417903564453125,-0.14338088145256042,0.03563566926568747,-0.03778636047657346
1761506702627875800,2.427875732421875,-0.10685586213171482,0.03375467782467603,-0.027169125421904024
1761506702637847600,2.43784765625,-0.04645078552961349,0.03428425465673208,-0.01817834764146246
1761506702647818800,2.44781884765625,0.03931143516898155,0.016186434038728475,-0.022300898331031202
1761506702657790700,2.457790771484375,0.11119359907507896,0.001464227333664894,-0.03187522988677956
1761506702667762700,2.4677626953125,0.15071078594923018,-0.010712678802758455,-0.02879057544416282
1761506702677735000,2.47773486328125,0.12440963900089264,-0.002791384284198284,-0.032284596138959745
1761506702687706600,2.48770654296875,0.08143792775869368,0.004458879105001688,-0.02095010021000635
1761506702697678800,2.497678955078125,0.02256196042001247,0.02894011714980006,-0.021347588794725016
1761506702707650600,2.507650634765625,-0.06748948190510272,0.059008069285750385,-0.030851553961425086
1761506702717621800,2.517621826171875,-0.05764145710766315,0.054016252347826955,-0.012674996418249793
1761506702727593700,2.52759375,0.017477204501628874,0.031073475916683673,0.009143575455667451
1761506702737565700,2.537565673828125,0.09500584986209869,0.006938274830579757,0.04234525447350461
1761506702747538000,2.547537841796875,0.15066110158860682,-0.028041268613934515,0.05166799958809279
1761506702757509600,2.557509521484375,0.1841109512478113,-0.04018777961209416,0.0414505432566395
1761506702767481900,2.56748193359375,0.17283610851764677,-0.04463920606300235,0.011708279411098919
1761506702777452800,2.577452880859375,0.10570552305281161,-0.020590514216572046,-0.0034097536445595322
1761506702787424800,2.5874248046875,0.02705342662036419,-0.008684095584601164,-0.0009447106713196262
1761506702797396700,2.597396728515625,-0.021444939088821408,0.0003384381741285324,-0.0008985380086116492
1761506702807368700,2.60736865234375,-0.08850538192689418,0.00549596706777811,0.020434761965856887
1761506702817341000,2.6173408203125,-0.1270955170840025,0.004170709813386202,0.018544390775146892
1761506702827312600,2.627312744140625,-0.12972761915326117,-0.018041998777538537,0.022402559474064037
1761506702837284900,2.637284912109375,-0.088421795296669,-0.02978080575764179,0.00886047506481409
1761506702847255800,2.647255859375,-0.043210780695080754,-0.043864276167750356,0.006542548944684676
1761506702857227800,2.657227783203125,-0.025630700340867042,-0.04861512395665049,0.0026336455723736433
1761506702867199700,2.66719970703125,-0.02450023500621319,-0.05463511489853263,-0.02210153983402997
1761506702877171700,2.677171630859375,-0.04512450536191463,-0.05856003325730562,-0.022752834216458722
1761506702887144000,2.68714404296875,-0.05383680412769317,-0.05826952587813139,-0.022201588975288903
1761506702897115600,2.69711572265625,-0.05180675960481167,-0.06042407356351614,-0.008631205486739053
1761506702907088000,2.707087890625,-0.05881400801837444,-0.06482172400057315,0.010595094004808925
1761506702917058800,2.717058837890625,-0.054204468396306035,-0.053822191080451005,0.014672010887786744
1761506702927030800,2.72703076171875,-0.040349546045064924,-0.05034647779390215,0.00349324894323945
1761506702937002800,2.737002685546875,-0.004191021949052811,-0.044376025082170964,-0.006194365694676526
1761506702946974700,2.746974609375,0.03168225546479225,-0.02759717810824513,0.0013178274331847204
1761506702956947000,2.756947021484375,0.03914250834286213,-0.02366772970482707,-0.00705869547300972
1761506702966918700,2.766918701171875,0.05600304225087165,-0.014889233835041522,-0.018383539940917397
1761506702976889900,2.776889892578125,0.12452654337882994,-0.02617211374118924,-0.02089862575109582
1761506702986861800,2.78686181640625,0.18646715898513794,-0.051676265092939135,-0.00645265815454768
1761506702996833800,2.796833740234375,0.22438217135965824,-0.05000672444552183,0.019578805006935724
1761506703006805800,2.8068056640625,0.18495266276896,-0.014346505260467528,0.03880929889969993
1761506703016777700,2.81677783203125,0.05974690495431423,0.04376549196839332,0.037655254043347665
1761506703026750000,2.82675,-0.07549976988136768,0.0892940480865538,0.010521284416504203
1761506703036721700,2.8367216796875,-0.153454531699419,0.11328881778866053,-0.01851656661988236
1761506703046692900,2.84669287109375,-0.17705986369252205,0.10332491152659058,-0.022356925667473115
1761506703056664800,2.856664794921875,-0.12050912443101405,0.0748598645426333,-0.004512714484357275
1761506703066636800,2.86663671875,-0.033228315863013266,0.053104544330388304,0.040835758659429844
1761506703076608800,2.87660888671875,0.07985270439386367,0.03622296763435006,0.0657848608111497
1761506703086580700,2.886580810546875,0.1462795255035162,0.006812310363352298,0.06957973218262195
1761506703096553000,2.896552978515625,0.14693769715130328,-0.015368687915056942,0.031754028359637594
1761506703106523600,2.906523681640625,0.05834872859418392,-0.0009529168106615543,-0.014254456762573682
1761506703116496000,2.916495849609375,-0.04776362169384956,0.026049948666244743,-0.033933977631048766
1761506703126467600,2.926467529296875,-0.08349719837605953,0.05117153044119477,0.001657457483978942
1761506703136439800,2.936439697265625,-0.0734340695232153,0.037287674256414174,0.039248142408113924
1761506703146411800,2.946411865234375,-0.025374095231294632,0.01072553828433156,0.05859954328378662
1761506703156383700,2.9563837890625,0.02094692643880844,-0.0325156375490129,0.05366032418278046
1761506703166356000,2.96635595703125,0.04557634078264236,-0.04741057047247886,0.020681126525916624
1761506703176326700,2.97632666015625,0.01052314758002758,-0.05381999912336469,-0.014034192474861628
1761506703186299000,2.986298828125,-0.021375380983948707,-0.03738865041285753,-0.027461801925278268
1761506703196270600,2.9962705078125,-0.0033849662631750105,-0.03873845758661627,-0.01820545027751941
1761506703206242800,3.006242919921875,0.04330196610987186,-0.06356792454719543,-0.001528593240189366
1761506703216214800,3.01621484375,0.051613282859325406,-0.0734706021413207,0.01807065404986497
1761506703226186800,3.026186767578125,0.05955868890583515,-0.07686302105858922,0.031675697859842325
1761506703236157700,3.03615771484375,0.02026245130598545,-0.05637392138987779,0.029739418867905622
1761506703246129700,3.046129638671875,-0.03538578615784645,-0.03197890032380819,0.0197904909792589
1761506703256102000,3.056101806640625,-0.06075345164835453,-0.01745017036423087,0.005368801590730436
1761506703266073600,3.066073486328125,-0.08962357230186462,-0.0021453414656221865,0.01007024814679753
1761506703276045800,3.0760458984375,-0.08485445820391177,0.0032375206165015697,0.03150471607395448
1761506703286017500,3.086017578125,-0.07723463084995746,0.010374240628629922,0.04003228308970574
1761506703295989800,3.09598974609375,-0.05526128397285938,0.01566416373029351,0.04442181415238883
1761506703305960700,3.105960693359375,-0.025794950991868973,0.018320815718919036,0.03206059639104642
1761506703315932700,3.1159326171875,-0.010855740535259246,0.03064706719815731,0.023248298716358837
1761506703325905000,3.12590478515625,0.0163607676923275,0.025709464665502307,0.01858425699465442
1761506703335876600,3.135876708984375,0.03726970020830631,0.04083192273452878,0.01949877802368719
1761506703345848800,3.145848876953125,0.0423199693351984,0.04650996837094426,0.025486743559222667
1761506703355820500,3.155820556640625,0.051854690399765965,0.05745177975445986,0.02865211682154331
1761506703365791700,3.165791748046875,0.07985095082819461,0.05613222158849239,0.04415811714832671
1761506703375763700,3.175763671875,0.09173486536741256,0.05921981234028935,0.04577684549053665
1761506703385735700,3.185735595703125,0.09539981761574745,0.050236441548168656,0.02980412726772483
1761506703395708000,3.1957080078125,0.09474749118685721,0.04315086720138788,0.00776160131166689
1761506703405679600,3.2056796875,0.10042436777949333,0.02342646829485893,-0.010916389247891492
1761506703415651800,3.21565185546875,0.09404197326600551,0.021757804430276154,-0.025244856528169473
1761506703425623600,3.22562353515625,0.059842766544222825,0.029683336732536553,-0.032825415884237735
1761506703435594800,3.2355947265625,0.02684767491519451,0.031127690321952103,-0.04060158457737416
1761506703445566700,3.245566650390625,-0.016029343780875206,0.02499766313433647,-0.04078401477246079
1761506703455538700,3.25553857421875,-0.01469020413160324,0.02156242798864841,-0.048214443334424865
1761506703465511000,3.265510986328125,0.008660276317596435,-0.01494227919653058,-0.0507414273616625
1761506703475482600,3.275482666015625,0.010194646278023719,-0.03316255715042352,-0.06404982631262392
1761506703485454800,3.285454833984375,-0.009789572608470916,-0.03410845969840884,-0.09356746022258884
1761506703495425800,3.29542578125,-0.03007715835571289,-0.033790406725183124,-0.10196388883907348
1761506703505397800,3.305397705078125,-0.04063011655211449,-0.04233545916527509,-0.10325593794360756
1761506703515369700,3.31536962890625,-0.08580839792788028,-0.027165874018892644,-0.09965000413982197
1761506703525341700,3.325341796875,-0.10919862586557864,-0.01836428953446448,-0.055630359313846564
1761506703535314000,3.33531396484375,-0.0754945091843605,-0.02608786952383816,-0.031136033458611927
1761506703545285600,3.34528564453125,-0.022345687320828436,-0.03648410278856754,-0.016463670944375917
1761506703555257900,3.3552578125,0.0099906481385231,-0.04620389809645712,-0.022388320886157453
1761506703565228800,3.365228759765625,0.037078561550378794,-0.033854192676395174,-0.03506958721498959
1761506703575200800,3.37520068359375,0.04562836323082447,-0.03749561791867018,-0.031820567956939334
1761506703585172700,3.3851728515625,0.060819502621889114,-0.04249949062056839,-0.020592208416736684
1761506703595144700,3.395144775390625,0.0645884997665882,-0.03049699120298028,-0.004739047753252089
1761506703605116700,3.40511669921875,0.033576106387376785,-0.014794541288912295,0.0089006289786892
1761506703615088600,3.415088623046875,-0.007570142993330955,0.007941095197573304,0.019572646977496333
1761506703625059600,3.4250595703125,-0.03402794180810451,0.02960954084396362,0.03451524126785807
1761506703635031800,3.43503173828125,-0.07508475933969021,0.03998780006058514,0.03659836311826948
1761506703645003500,3.44500341796875,-0.1028261682242155,0.04845153089277446,0.018372646370856092
1761506703654975700,3.454975830078125,-0.10203180297613143,0.06295585706345737,0.022476885085599495
1761506703664947700,3.46494775390625,-0.04884615623354911,0.04539521206207573,0.04023624926316552
1761506703674919700,3.474919677734375,0.008044774767756462,0.017584025876969098,0.062226784737082194
1761506703684891600,3.4848916015625,0.03866261587142944,0.015714359547570347,0.07510885716790798
1761506703694862600,3.494862548828125,0.059978960144519804,0.018677301006391644,0.07270144439972936
1761506703704834800,3.504834716796875,0.05105331088900566,0.01986125009395182,0.05218468953911215
1761506703714806500,3.514806640625,0.0375619611531496,0.03053352382108569,0.030895443335501475
1761506703724778800,3.52477880859375,0.007270867785811424,0.04335661890655756,0.010083180693606846
1761506703734750700,3.534750732421875,-0.009962591087818145,0.04450111276656389,0.0025797827935544774
1761506703744722700,3.54472265625,-0.0004313771545886993,0.03155862908512354,0.0022794070409145207
1761506703754693600,3.554693603515625,0.07250877137184143,-0.00868124604038894,0.0037802309247665106
1761506703764665600,3.56466552734375,0.11799860291481018,-0.03677322192825377,0.00022495872913859784
1761506703774637800,3.574637939453125,0.13614333141446114,-0.04168517856299877,-0.013406050639157183
1761506703784609500,3.584609619140625,0.14087912776470182,-0.01541734936237335,-0.024706374870450236
1761506703794581800,3.594581787109375,0.12156243287622928,0.008208148635923862,-0.025826688703848046
1761506703804553700,3.6045537109375,0.06503273640275001,0.03256985195428133,-0.014271284599788487
1761506703814525700,3.614525634765625,0.0065332011610269546,0.03571129178516567,0.00554766528897453
1761506703824496600,3.62449658203125,-0.025576339805126188,0.013655381191149353,0.017572075144271365
1761506703834468600,3.634468505859375,-0.06634498804509639,0.016652151854336262,0.027102763921115547
1761506703844440600,3.644440673828125,-0.09838380186259746,0.03942643985077739,0.045193182117375545
1761506703854412500,3.65441259765625,-0.11910627189576625,0.0448758643630892,0.056246029827045275
1761506703864384800,3.664384765625,-0.10780044950544833,0.052734249713271855,0.03551922611205373
1761506703874356700,3.674356689453125,-0.05080956526100635,0.04922200380861759,0.031200056871841658
1761506703884327700,3.68432763671875,0.002755436187982559,0.012799860340356826,0.040422780244634485
1761506703894299600,3.694299560546875,0.05663900206685066,-0.010358020146191119,0.047478717504977244
1761506703904271600,3.704271728515625,0.057252750051021574,-0.016390505243465303,0.04301913971365429
1761506703914243600,3.71424365234375,0.008138882791996002,-0.004089169009774923,0.03664187346643302
1761506703924215600,3.724215576171875,-0.026394670450687406,0.011288140603154898,0.01877714008509647
1761506703934187800,3.734187744140625,-0.032247488132119174,0.014371201310306787,0.014276974555058403
1761506703944159700,3.74415966796875,-0.031228081956505775,0.006656535279750824,0.0018467147120740264
1761506703954130700,3.754130615234375,0.007666589105129242,-0.014364113982394337,-0.0009685116720153018
1761506703964102700,3.7641025390625,0.05664660085141658,-0.029138343135640024,-0.00080634338024538
1761506703974074600,3.77407470703125,0.08815583783686161,-0.0515754350669682,-0.007880875743203796
1761506703984046600,3.784046630859375,0.11047814428210258,-0.06298501009270549,-0.011518862352799624
1761506703994018600,3.7940185546875,0.10488894597291946,-0.07289243692718446,-0.019492763841431587
1761506704003990500,3.803990478515625,0.057770636445283886,-0.06167648477740585,-0.03317077698949724
1761506704013961500,3.81396142578125,0.0039209728360176084,-0.05629727595709264,-0.0603691650385037
1761506704023933700,3.82393359375,-0.05014028769731521,-0.03898198401890695,-0.06480053508207202
1761506704033905700,3.83390576171875,-0.10341185915768146,-0.013100889113545417,-0.05645892365905456
1761506704043877600,3.843877685546875,-0.09408522788584232,-0.006420899892970919,-0.028936728749470782
1761506704053849600,3.853849609375,-0.07528232773840426,-0.01225778935290873,0.010353919359808787
1761506704063821600,3.863821533203125,-0.03886252235770225,-0.018103811967372894,0.0018871928529348224
1761506704073793500,3.87379345703125,-0.026119360640645024,-0.03135200059711933,0.008037495643598958
1761506704083764500,3.883764404296875,0.005247837525606155,-0.03664126611165702,0.002349741463921964
1761506704093736700,3.89373681640625,0.0355447761118412,-0.0404054409507662,0.004351665004016831
1761506704103708700,3.903708740234375,0.03396598248779774,-0.03562324817553162,0.0057831225792411714
1761506704113680600,3.9136806640625,-0.017056348741054533,-0.014293386833742261,-0.00992799469847232
1761506704123652600,3.923652587890625,-0.1072094978749752,0.02659662276357412,-0.011534032522467895
1761506704133624600,3.93362451171875,-0.1432546247243881,0.03528985150270164,-0.00965741586247459
1761506704143595800,3.943595703125,-0.12652034754455088,0.01979534525088966,0.008210386258782818
1761506704153567500,3.9535673828125,-0.06911036110520362,-0.0025796412296593186,0.01680185339017771
1761506704163539700,3.963539794921875,-0.0012450316250324249,-0.023821897353231907,0.020213908589677886
1761506704173511700,3.97351171875,0.06039338616430759,-0.020136998295411466,-0.008098678645770995
1761506704183483600,3.983483642578125,0.08592997848093509,-0.012394348279386758,-0.05746125996885821
1761506704193455600,3.99345556640625,0.06801262899637221,0.0009446604389697313,-0.11090633396576158
1761506704203427600,4.003427490234375,0.04984101248979568,0.001710311049222946,-0.12151578072290867
1761506704213398800,4.013398681640625,0.05491407797038555,-0.00749598177857697,-0.11602626166222617
1761506704223370500,4.02337060546875,0.08126257119178772,-0.003010141601413488,-0.10982839340278878
1761506704233342700,4.0333427734375,0.11632219413518904,-0.012715981449186802,-0.09346353405723348
1761506704243314700,4.043314697265625,0.15769582253098488,-0.027037352268397808,-0.09637084547183476
1761506704253286700,4.05328662109375,0.17221534627079962,-0.043615781299397346,-0.0941286469024606
1761506704263258600,4.063258544921875,0.13312486037611962,-0.04319368342980742,-0.10843990731961094
1761506704273229600,4.0732294921875,0.030949265015125273,-0.001620367743447423,-0.1093160964990966
1761506704283201800,4.083201904296875,-0.04352408442795276,0.024932488943636415,-0.06546457021506503
1761506704293173500,4.093173583984375,-0.049745735421776766,0.04885390114858746,-0.026892495871032585
1761506704303145700,4.103145751953125,-0.024690789142251014,0.050766822097823024,0.01105968844240997
1761506704313117700,4.11311767578125,-0.011833645656704903,0.04804821078889072,0.03681431199046783
1761506704323089700,4.123089599609375,0.0006061491996049881,0.052861383224278684,0.04936119308359921
1761506704333061600,4.1330615234375,0.009173486536741255,0.04267791592739522,0.05478584848083556
1761506704343032600,4.143032470703125,-0.004967267018556595,0.05630465554594993,0.06917727972841821
1761506704353004800,4.1530048828125,0.019445289704203606,0.050579775093123315,0.12040926251942291
1761506704362976500,4.1629765625,0.06941080535650253,0.02650587574020028,0.1494046352541074
1761506704372948700,4.17294873046875,0.07810089229047298,0.015781506499648094,0.1379777985663153
1761506704382920700,4.182920654296875,0.04652151267826557,0.027026903939619658,0.1182016694725491
1761506704392892700,4.192892578125,0.010083587118983267,0.019683555439487098,0.09352602310050279
1761506704402863600,4.202863525390625,-0.04749064997136593,0.03406652025282383,0.06067966489293612
1761506704412835600,4.212835693359375,-0.09594108488559722,0.037622459168732164,0.03914522088975645
1761506704422807800,4.222807861328125,-0.12246727276146412,0.03988251305520534,0.04767766501002479
1761506704432779500,4.232779541015625,-0.09949614701867103,0.01759301290102303,0.054156048977584574
1761506704442751700,4.242751708984375,-0.05218669883310795,-0.012687997463718056,0.04909509862647392
1761506704452723700,4.2527236328125,-0.024639351215958595,-0.026284634204953906,0.029118273028568363
1761506704462695700,4.26269580078125,-0.009417816686630248,-0.049164866793900724,0.007070600539934821
1761506704472666600,4.27266650390625,0.01472936709821224,-0.06036474459171295,-0.03893905819263309
1761506704482638600,4.282638671875,0.021721417942643165,-0.06387903632298111,-0.0704787542484235
1761506704492610800,4.29261083984375,0.04657002799510956,-0.06569711859561503,-0.07252422923587729
1761506704502582500,4.30258251953125,0.054987143206596374,-0.07648337409123777,-0.05716752401955891
1761506704512554800,4.3125546875,0.025815993779897687,-0.06809110106006264,-0.05892322684677783
1761506704522526700,4.322526611328125,-0.016139233896136283,-0.05676036342419684,-0.07167061721438076
1761506704532497700,4.33249755859375,-0.06626900019943714,-0.035011472952738404,-0.09423042677650227
1761506704542469600,4.3424697265625,-0.07042495083510875,-0.00579604599289596,-0.10485455964612773
1761506704552441600,4.352441650390625,-0.03181552645564079,-0.011450126231834291,-0.06872053980370983
1761506704562413600,4.36241357421875,0.024791326907277107,-0.028240809774026272,-0.022012610308406875
1761506704572385500,4.372385498046875,0.07625380311906338,-0.04224997283890843,0.014364931399724445
1761506704582357800,4.382357666015625,0.08417524376809596,-0.043205666128546,0.015476007047318852
1761506704592329700,4.392329833984375,0.04069324491620063,-0.01704546202085912,-0.011028562651784158
1761506704602300700,4.40230078125,0.001755319234728813,0.038372546883672476,-0.052715773341665044
1761506704612272600,4.412272705078125,-0.02522854928076267,-0.028333383428305384,0.05142761496095918
1761506704622244600,4.42224462890625,-0.06021744507551193,0.04522599297501147,0.04908066824232228
1761506704632216600,4.432216552734375,-0.03833411456942558,0.07829853375442325,0.058182473215763454
1761506704642188500,4.4421884765625,-0.04323299252688884,0.06165310390181839,0.1121274823917076
1761506704652160800,4.452160888671875,0.005648819541931152,0.06048157590441405,0.04928682637286838
1761506704662131500,4.46213134765625,0.011811433824896812,0.03500219366773963,0.06478455662822816
1761506704672103700,4.472103759765625,0.03040215252637863,0.016048048481345174,0.05264116916891653
1761506704682075600,4.48207568359375,0.07142389874458313,0.03101553518436849,0.028692521897167898
1761506704692047600,4.492047607421875,0.09311375250518321,0.03188099290728569,0.029703580369544215
1761506704702019600,4.50201953125,0.0827706376671791,0.031042496256530282,0.013946062100259586
1761506704711991600,4.511991455078125,0.04468260681331158,0.03007891192138195,0.010447104935441166
1761506704721963500,4.521963623046875,0.015974398723244666,0.023813640981540082,-0.010776957944314927
1761506704731934500,4.5319345703125,0.0029079964011907576,0.016894070851430295,-0.014012231804803012
1761506704741906700,4.54190673828125,-0.0013864859223365782,0.018179653682559728,-0.01840332463691011
1761506704751878700,4.551878662109375,-0.021900866162776946,0.020086948608607054,-0.034944371666433285
1761506704761850600,4.5618505859375,-0.03883563435077667,0.01672748211286962,-0.048269735451927406
1761506704771822600,4.571822509765625,-0.032120062360167505,0.016781258126720783,-0.04834396516534034
1761506704781794600,4.581794677734375,-0.007708090159296989,0.002178293887153268,-0.04388560208356939
1761506704791765800,4.591765869140625,0.019160627543926237,-0.0008020370978862047,-0.034661668567801826
1761506704801737500,4.601737548828125,0.049393268722295755,-0.010961100605875252,-0.03755101963402703
1761506704811709700,4.611709716796875,0.07355389651060104,-0.019693711507320404,-0.03692668175718281
1761506704821681700,4.621681640625,0.05731587841510773,-0.01158493159264326,-0.045188373511517416
1761506704831653600,4.631653564453125,0.023407179072499274,0.003807575589418411,-0.052139443891588595
1761506704841625600,4.64162548828125,-0.03425415177941322,0.01965345256216824,-0.05627706885270308
1761506704851597600,4.65159765625,-0.05475391897261143,0.027658625971898436,-0.04553726458100136
1761506704861568800,4.66156884765625,-0.04147124355137348,0.02502696229405701,-0.022891183241223915
1761506704871540500,4.67154052734375,0.003806406545639038,0.008391323183104395,-0.01568813826092519
1761506704881512700,4.6815126953125,0.048500119274854654,-0.025884090580046176,0.0007296933808829635
1761506704891484700,4.691484619140625,0.09448211824893951,-0.035031200566515326,0.0028632211111253125
1761506704901456600,4.70145654296875,0.12155892574489116,-0.04021225646622479,-0.002268885646900162
1761506704911428600,4.7114287109375,0.12150573425292968,-0.04564363386519253,0.012884177622944117
1761506704921399600,4.721399658203125,0.09369009108841418,-0.03818403857424855,0.018179375121346673
1761506704931371800,4.731371826171875,0.029266426494717595,-0.01811944792792201,0.022999210192961618
1761506704941343500,4.741343505859375,-0.023351064971089363,-0.000912146408855915,0.019462208872963672
1761506704951315700,4.751315673828125,-0.054068274796009064,-0.0031090719312429427,0.016150047551095486
1761506704961287700,4.76128759765625,-0.04776420621573925,-0.010861804949864745,0.016549449531687424
1761506704971259600,4.771259765625,-0.026576456758379934,-0.01106909102499485,0.010408343827631323
1761506704981231600,4.781231689453125,0.027357378003001212,-0.019471300928294657,0.017370816951128652
1761506704991202600,4.79120263671875,0.08283844220638274,-0.03205518043041229,0.037555567944981154
1761506705001174800,4.8011748046875,0.07273030516803264,-0.031280104404687877,0.05246304982276633
1761506705011146500,4.811146484375,0.029625907456874847,-0.020178645480051636,0.058759414587193165
1761506705021118700,4.82111865234375,-0.002189034476876259,0.004454056799411773,0.04559407736873254
1761506705031090700,4.831090576171875,-0.058063481912016865,0.015823226749524473,0.023192705204756928
1761506705041062700,4.841062744140625,-0.09376023371517658,0.03893419935442507,0.026105414313683285
1761506705051034600,4.85103466796875,-0.0897334624171257,0.048048283854126926,0.04077949842754751
1761506705061005600,4.861005615234375,-0.05540624540150165,0.05179433851465583,0.03996200346562546
1761506705070977800,4.870977783203125,-0.043321255332231516,0.05419752719886601,0.05757717796610668
1761506705080949500,4.880949462890625,-0.03908580971956253,0.042470337591320274,0.06201328355029691
1761506705090921700,4.890921630859375,-0.03684358375072479,0.03381912136301398,0.05104958912853617
1761506705100893700,4.900893798828125,-0.01995265470445156,0.02977985590957105,0.0447139791991096
1761506705110865700,4.91086572265625,0.025250176590681076,0.020416326693445442,0.02468736420930363
1761506705120836600,4.920836669921875,0.06751169373691082,0.008998422230780125,0.03455816252755466
1761506705130808600,4.93080859375,0.0880213978022337,-0.006793313401937485,0.024564952539186922
1761506705140780800,4.94078076171875,0.07881868517100811,-0.02057137112468481,0.013710399314016103
1761506705150752500,4.95075244140625,0.060792614614963526,-0.034713659049943085,0.0036830495940288525
1761506705160724700,4.960724853515625,0.016543138521909712,-0.05142711263746023,-0.024317507983604443
1761506705170696700,4.97069677734375,-0.024604864424467087,-0.05838219247236848,-0.03444120791726746
1761506705180668700,4.980668701171875,-0.03302665581107139,-0.06556421293094754,-0.04229166112274397
1761506705190639600,4.9906396484375,-0.032770050701498986,-0.07315970956124365,-0.0709460201337235
1761506705200611600,5.000611572265625,-0.002706336349248886,-0.08215798566155136,-0.06581958506465889
1761506705210583800,5.010583740234375,0.049561611026525496,-0.11347323444485664,-0.046065699768741614
1761506705220555500,5.020555419921875,0.052550271448493,-0.10731032790094613,-0.03922830519648269
1761506705230527700,5.03052783203125,-0.006588146218657494,-0.09149806093685328,-0.014183240990154444
1761506705240499700,5.040499755859375,-0.04393851044774055,-0.07041063004881143,0.0014491576286964117
1761506705250470700,5.050470703125,-0.09724807583093642,-0.05794869642592966,-0.007938551614037715
1761506705260442600,5.060442626953125,-0.10411211638152598,-0.03978445950821042,-0.005662491874257102
1761506705270414600,5.07041455078125,-0.062440966343879696,-0.04072122890166938,0.024720654557552187
1761506705280386600,5.080386474609375,-0.012429857984185218,-0.03851509715951979,0.045410889121820217
1761506705290358500,5.090358642578125,0.014395020577311514,-0.025773031421005725,0.06242819362727459
1761506705300330800,5.100330810546875,0.042130584242939945,-0.00941715909950435,0.07349290987125132
1761506705310302700,5.110302734375,0.044483284848928446,0.006633446665108203,0.05611330682546831
1761506705320273700,5.120273681640625,0.033843232890963554,0.02173946505598724,0.05782109712404199
1761506705330245600,5.13024560546875,0.008410685470700263,0.02860175204090774,0.0528485465755919
1761506705340217600,5.140217529296875,-0.018674889853596686,0.03821224175542593,0.041376281577185724
1761506705350189600,5.150189453125,-0.00808101512491703,0.0317433380022645,0.027206283661094493
1761506705360161500,5.16016162109375,-0.005130933147668838,0.0349439606744796,0.02408005053249653
1761506705370133800,5.1701337890625,0.002718026787042618,0.05988485212028026,-0.01692712830423843
1761506705380104400,5.1801044921875,0.036629064217209815,0.028634923658147453,0.036154893667087885
1761506705390076700,5.19007666015625,0.029998832422494886,0.0028110388327389955,0.054610172253521154
1761506705400048600,5.200048583984375,0.072662500628829,0.04350048435665667,0.013328619755082764
1761506705410020600,5.2100205078125,0.03446107252836227,0.02481741119660437,0.0014747989600291476
1761506705419992600,5.21999267578125,-0.010775661036372184,0.02248560724817216,-0.015688576652342454
1761506705429964500,5.229964599609375,-0.03706570206880569,0.0331846959169954,-0.031367248398601076
1761506705439936500,5.2399365234375,-0.023587796336412427,0.029983269527181982,-0.044908259662194173
1761506705449907500,5.249907470703125,0.011715572234988212,0.011083704072237015,-0.03279953252431005
1761506705459879700,5.259879638671875,0.04435527455508709,-0.013164017477631568,-0.03781689946202095
1761506705469851600,5.2698515625,0.06909867066740989,-0.036214492066949606,-0.04914670094954781
1761506705479823600,5.27982373046875,0.06947919441759585,-0.03944916313923895,-0.06857781599792652
1761506705489795600,5.289795654296875,0.04582593162953853,-0.02937054445631802,-0.08873429531194268
1761506705499767600,5.299767578125,0.019008651852607725,-0.03017484657652676,-0.09703625971116125
1761506705509738800,5.30973876953125,-0.010381693282723425,-0.01769530423171818,-0.09132275916887447
1761506705519710500,5.31971044921875,0.004290975192189217,-0.017879428626969455,-0.07457879627866204
1761506705529682700,5.3296826171875,0.037195465928316115,-0.03793547064065933,-0.063734303223202
1761506705539654700,5.339654541015625,0.07941489749848842,-0.061022185587137935,-0.052065259843948296
1761506705549626600,5.349626708984375,0.08159574866890906,-0.07477503580339252,-0.05303990442922804
1761506705559598600,5.3595986328125,0.062205404022336,-0.07217581309042871,-0.05674119749942329
1761506705569570600,5.369570556640625,0.03647825756967067,-0.06270202843286096,-0.05704817652278579
1761506705579541800,5.379541748046875,0.007632102313637733,-0.03497786294408142,-0.06251904568192548
1761506705589513500,5.389513427734375,-0.04582768519520759,-0.010973448630794882,-0.0759771279024193
1761506705599485700,5.399485595703125,-0.054223173096776,-0.008381751637160777,-0.08132712432797998
1761506705609457700,5.409457763671875,-0.02251461414694786,-0.013002177979424595,-0.0706279032284161
1761506705619429600,5.4194296875,0.043694764819741244,-0.05425992491059005,-0.0449346590453526
1761506705629401600,5.429401611328125,0.09892506913244724,-0.09003975188732147,-0.01739717980166897
1761506705639373600,5.43937353515625,0.10189970102906226,-0.07680427660867571,-0.009474355479725636
1761506705649344800,5.4493447265625,0.02768763287067413,-0.050732481436803936,-0.015227439113729632
1761506705659316500,5.45931640625,-0.06438800875842571,-0.013809987230971455,-0.031890833881287835
1761506705669288700,5.469288818359375,-0.12790040372610093,0.02257328553162515,-0.042640817053709174
1761506705679260700,5.4792607421875,-0.14378946225345135,0.039374782728776335,-0.040479583899211136
1761506705689232600,5.489232666015625,-0.10071429063677788,0.04145641130842268,-0.015406805135472677
1761506705699204600,5.49920458984375,-0.026961072161793706,0.02730323666296899,0.031712997662927955
1761506705709175600,5.509175537109375,0.058686582246422765,0.014758373996987938,0.052614240062795574
1761506705719147800,5.519147705078125,0.11352350332736968,0.008185936804115772,0.04938975245780311
1761506705729119500,5.529119384765625,0.11308511191010474,0.005361161706969142,0.04944857910610735
1761506705739091700,5.539091796875,0.08567921859025955,0.0363514893848449,0.05652713919021189
1761506705749063700,5.549063720703125,0.036216391763091084,0.049161578858271236,0.052186315240617835
1761506705759035600,5.55903564453125,0.023604747471213338,0.061976855963468545,0.07045391206811182
1761506705769007600,5.569007568359375,0.03032031946182251,0.06742766871526837,0.07933621537224389
1761506705778978600,5.578978515625,0.04298983142077922,0.0538025365319103,0.08865116533944382
1761506705788950800,5.58895068359375,0.06907295170426368,0.02485007135719061,0.09927886927248909
1761506705798922500,5.598922607421875,0.08524667239189147,0.010493994550779462,0.08431172049618325
1761506705808894700,5.608894775390625,0.06776186910569668,0.01713160593435168,0.06241464459253475
1761506705818866700,5.61886669921875,0.017321721678972245,0.02314845507107675,0.04536924650375731
1761506705828838700,5.628838623046875,-0.033579028996825216,0.02899265105463564,0.004805085027054883
1761506705838809900,5.638809814453125,-0.06733867525756358,0.02344955690950155,0.005974359418579843
1761506705848781600,5.648781494140625,-0.027467852640151978,-0.013881518097221851,0.03909760975521057
1761506705858753800,5.65875390625,0.006655950757861137,-0.04355119163058698,0.0575636334979441
1761506705868725500,5.6687255859375,0.0017827917635440825,-0.0606864508267492,0.05137807216423098
1761506705878697700,5.67869775390625,-0.04676467378437519,-0.052103477529063816,0.03839344354122877
1761506705888669700,5.688669677734375,-0.0959551134109497,-0.02564049108251929,0.022171629945153835
1761506705898641700,5.6986416015625,-0.12522270894944668,-0.010254998163133858,0.005226794737577438
1761506705908612600,5.708612548828125,-0.12471826655864715,0.0032343057461082935,0.00044183689981000496
1761506705918584600,5.71858447265625,-0.08404664895236491,-0.01133724044188857,0.01807265421070624
1761506705928556800,5.728556884765625,-0.02442249359488487,-0.03420154480934143,0.006520396478381008
1761506705938528500,5.738528564453125,0.01787643295228481,-0.036095834123343225,0.0032957924256683327
1761506705948500700,5.748500732421875,0.03644318625628948,-0.030382571043074128,0.00439782625028165
1761506705958472700,5.75847265625,0.04719254380762577,-0.03302840937674045,-0.014140639390866272
1761506705968443600,5.768443603515625,0.04123568122982978,-0.018717998342961072,-0.0315509138528374
1761506705978415600,5.77841552734375,0.044316111588478084,-0.00920578137114644,-0.034105427491106094
1761506705988387600,5.7883876953125,0.017906828090548513,0.00623100334405899,-0.030908700109296475
1761506705998359800,5.79835986328125,0.02723053675293922,0.009175970754772424,-0.019207058218249584
1761506706008331500,5.80833154296875,0.04368599699139595,0.019384207166731355,-0.00796952670761384
1761506706018303700,5.8183037109375,0.04801671967208385,0.02182736253514886,-0.003122376654099207
1761506706028275700,5.828275634765625,0.06164134039878845,0.03475450251698494,-0.008203910852223634
1761506706038246700,5.83824658203125,0.054040217745304105,0.04571545699238777,-0.0134960441772826
1761506706048218600,5.848218505859375,0.03526011395156383,0.06426905855387449,-0.013951815987611188
1761506706058190600,5.858190673828125,0.02686170344054699,0.05919570081233978,-0.01583141918913461
1761506706068162600,5.86816259765625,0.009966682741045951,0.053863838265091175,-0.02385271261660382
1761506706078134500,5.878134521484375,0.00027297172248363493,0.05661503666937351,-0.008704260448151036
1761506706088106800,5.888106689453125,0.0020925883650779725,0.04506313056349754,-0.023887176575209012
1761506706098077400,5.898077392578125,0.009251227948069572,0.04075929588973522,-0.02391796443911735
1761506706108049700,5.908049560546875,0.02510579968392849,0.040055823795497415,-0.032188024446286725
1761506706118021600,5.918021728515625,0.04694938270151615,0.027650661861151456,-0.025596672490390483
1761506706127993600,5.92799365234375,0.04220715661048889,0.018739771783351896,-0.04057433581084478
1761506706137965600,5.937965576171875,-0.009551672199368475,0.02998392711430788,-0.04993174124686047
1761506706147937500,5.9479375,-0.034445290437340736,0.030269466057419776,-0.05786954394222703
1761506706157909500,5.957909423828125,-0.018070494219660758,0.0156951433904469,-0.059111401796061544
1761506706167880400,5.96788037109375,0.021042203506827353,-0.004521276816725731,-0.044763869055709796
1761506706177852700,5.977852783203125,0.07323357851505279,-0.03644055590778589,-0.01926175211413065
1761506706187824600,5.98782470703125,0.06370996336638927,-0.034017712675035,-0.004470310389535734
1761506706197796600,5.997796630859375,0.0472258615553379,-0.027074177147448062,-0.02007304338084068
1761506706207768600,6.0077685546875,0.011788052949309348,-0.01887494247034192,-0.025967624694632832
1761506706217740500,6.017740478515625,-0.007968786922097206,0.00019435352832078933,-0.03567350107502425
1761506706227711700,6.027711669921875,-0.03847556886672973,-0.0008498948276042938,-0.054934851330355736
1761506706237683500,6.037683349609375,-0.04052314904630184,-0.00693052991554141,-0.06743554149447009
1761506706247655700,6.04765576171875,-0.0026548984229564664,-0.016617957323789595,-0.0452321030553896
1761506706257627600,6.057627685546875,0.0724053109973669,-0.03787731071263552,-0.008046546599734574
1761506706267599600,6.067599609375,0.0967746131002903,-0.051027153534442184,0.013004137041070498
1761506706277571600,6.077571533203125,0.0786877522677183,-0.031698475947231054,-0.0004295505236834287
1761506706287543600,6.08754345703125,-0.006958733096718787,-0.019706278727948664,-0.029614922555268274
1761506706297514800,6.0975146484375,-0.07480418883264064,0.001923369278013706,-0.04766488316026516
1761506706307486500,6.107486572265625,-0.09861585705280303,0.021433102520555258,-0.044517840139078904
1761506706317458700,6.117458740234375,-0.1196183130711317,0.01964724201709032,-0.027520292930153664
1761506706327430700,6.1274306640625,-0.11224164682328701,0.03157207308858633,-0.002069627614598721
1761506706337402600,6.137402587890625,-0.06282149009406567,0.02360021742656827,0.015111941241589374
1761506706347374600,6.14737451171875,-0.003310147461295128,-0.0037809798434376716,0.024762123645679094
1761506706357345500,6.157345458984375,0.04619301137626171,-0.01365428521260619,0.023149770245328546
1761506706367317800,6.16731787109375,0.07740823385119437,-0.033436113394796844,0.030076726814161518
1761506706377289500,6.17728955078125,0.09622165539264678,-0.023845570489764212,0.02877335259801475
1761506706387261700,6.18726171875,0.08079904533326625,-0.019692834724485873,0.018625292257941326
1761506706397233700,6.197233642578125,0.06489069758355617,-0.021343378410488365,0.02040253106353339
1761506706407205600,6.20720556640625,0.045237318086624144,-0.0023174831621348858,0.029885962615569587
1761506706417177600,6.217177490234375,0.028089783930778503,0.0012830255478620527,0.044504039942589585
1761506706427148500,6.2271484375,-0.0006985036581754684,0.005346621724963188,0.05608972502048127
1761506706437120800,6.237120849609375,-0.02411094342768192,0.010213789369910955,0.05358334082327783
1761506706447092500,6.247092529296875,-0.014300328031182289,0.01187865384221077,0.050249954050290396
1761506706457064700,6.257064697265625,0.0013525836527347563,0.019177870939671993,0.03773812828751979
1761506706467036700,6.26703662109375,0.037547932627797126,0.004453910668939352,0.04066433848212473
1761506706477008600,6.277008544921875,0.03348141384124756,-0.006565057604014873,0.03608475560690276
1761506706486980600,6.286980712890625,0.022820319095253942,-0.012530249618738888,0.03279563038403867
1761506706496951600,6.29695166015625,0.01310907242000103,-0.02025090699866414,0.039802017997787334
1761506706506923800,6.306923828125,-0.0015168343037366865,-0.01619578638896346,0.04981667719956021
1761506706516895500,6.3168955078125,-0.006303484058380127,-0.00871931302845478,0.03396465361381415
1761506706526867700,6.32686767578125,-0.016084873360395432,0.0033919805258512494,0.02443429591382155
1761506706536839700,6.336839599609375,-0.02005728412270546,0.0121245914272964,0.012148926717531866
1761506706546811600,6.346811767578125,-0.037867081579565996,0.017528642427921293,0.009299076544633135
1761506706556782800,6.356782958984375,-0.025108137771487234,0.01569952730461955,0.009963232691923622
1761506706566754600,6.366754638671875,-0.014175824868679045,-0.00010185293927788733,-0.0031858360950369384
1761506706576726800,6.376726806640625,-0.007142857491970062,-0.017477789023518563,-0.012620464635861571
1761506706586698000,6.386697998046875,-0.007905074036121368,-0.023827158050239085,0.0005526015146169811
1761506706596670200,6.396670166015625,0.006786883661150932,-0.028542642264813182,0.025566804791800676
1761506706606642000,6.406641845703125,0.036246786901354786,-0.02733691973686218,0.03866392191252671
1761506706616614100,6.4166142578125,0.06099135205745697,-0.013087445110082625,0.04219416469817515
1761506706626585000,6.426585205078125,0.07354395963847636,-0.01920797381699085,0.017643338865751864
1761506706636557000,6.43655712890625,0.04886310736835003,-0.015217296745628118,0.013508223238843492
1761506706646529000,6.446529052734375,-0.014920505756139754,0.0021557167291641234,-0.0011387970548705198
1761506706656501000,6.4565009765625,-0.059952656659483905,0.01511354411020875,-0.0031150952466530725
1761506706666473200,6.46647314453125,-0.059309682580828665,0.025228987672179935,0.0020953808270744046
1761506706676445000,6.47644482421875,-0.028818098205327988,0.01904810708016157,0.019898086389445232
1761506706686416100,6.486416015625,0.02072247003316879,0.016237871965020894,0.04140764026325196
1761506706696388000,6.49638818359375,0.03142272774577141,0.005429039311408996,0.020106692205404397
1761506706706360000,6.506360107421875,0.0480494528979063,0.002586509361863136,0.0004205520831863396
1761506706716332000,6.51633203125,0.049342999839782714,0.011697452056407927,-0.01676688710807357
1761506706726304000,6.526303955078125,0.029576807618141174,0.025896511670202016,-0.026988528707588555
1761506706736276200,6.536276123046875,-0.012356792747974394,0.03786883514523506,-0.025010650480072946
1761506706746248000,6.546248046875,-0.027000819650292395,0.03381371453553438,-0.025660031466628423
1761506706756219100,6.55621923828125,-0.017056933262944222,0.027408523668348787,-0.024380682013463228
1761506706766191000,6.566191162109375,0.007635609444975853,0.007735416557639836,-0.044133284101169554
1761506706776163000,6.5761630859375,0.03788111010491848,0.006184972245246172,-0.03906246994317043
1761506706786135000,6.586135009765625,0.06399696361422538,0.0005718085385859012,-0.05431388815410901
1761506706796107000,6.59610693359375,0.07956862675547599,-0.016138941635191438,-0.05582336113529745
1761506706806079200,6.606079345703125,0.09194996942281722,-0.02542553315758705,-0.0497712899881415
1761506706816050200,6.61605029296875,0.04976736273169517,-0.015370879872143268,-0.05157993771214969
1761506706826022100,6.626022216796875,-0.003183306211233139,0.0016710019521415233,-0.04414649064261466
1761506706835994000,6.635994140625,-0.05184358448386192,0.0017550269737839697,-0.02722178947419161
1761506706845966000,6.645966064453125,-0.05462766224443912,0.010555296283960342,-0.02337791416210821
1761506706855938000,6.65593798828125,-0.04402443516552448,-0.0038218963757157324,-0.017860290101659484
1761506706865910000,6.665909912109375,0.0073632222443819045,-0.016791121933609245,-0.005384245755034499
1761506706875882200,6.67588232421875,0.05098375278413295,-0.008922872776538133,-0.02044329004889587
1761506706885853000,6.68585302734375,0.07402502115368842,-0.015251052884757518,0.011900961572141386
1761506706895825200,6.6958251953125,0.031873394122719764,-0.0035975861005485056,0.060590164545155124
1761506706905797000,6.705797119140625,-0.01810264292359352,0.005692220292240381,0.03953163095803466
1761506706915769000,6.71576904296875,-0.04179506867825985,0.003286035933345556,-0.025238084294088182
1761506706925741000,6.725740966796875,-0.03401683589220047,0.008623159177601336,-0.02676242148426827
1761506706935713000,6.735713134765625,0.011697452056407927,0.012327566653490066,0.0017292988774832336
1761506706945685200,6.745685302734375,0.046888592424988745,0.018850392550975082,0.03466055432294961
1761506706955656000,6.755656005859375,0.07726034981310367,0.009475245962291955,0.027951836764812468
1761506706965628200,6.765628173828125,0.04660626835227012,0.010051438415050505,0.013773404380516148
1761506706975600000,6.77560009765625,-0.009775544083118438,-0.006849281372874974,-0.0029532055160962044
1761506706985572000,6.785572021484375,-0.039543490359187125,-0.004010112424194813,-0.004215028445725329
1761506706995544000,6.7955439453125,-0.059604281613230704,-0.002093026756495237,-0.008102532836981117
1761506707005516000,6.80551611328125,-0.05122048414945602,-0.0075111062824726104,0.01688574141450226
1761506707015487000,6.815487060546875,-0.0036468320697546,-0.00699263536632061,0.03530624551507644
1761506707025459000,6.825458984375,0.04549392319619655,-0.014204320310801266,0.037059879682795144
1761506707035431200,6.83543115234375,0.09973580099344254,-0.030915947267413136,0.02797450068776961
1761506707045403000,6.84540283203125,0.12247370250225066,-0.05950023671686649,0.010830318399635143
1761506707055375000,6.855375,0.11349486175477504,-0.05818477020412683,-0.01924808206509333
1761506707065347000,6.86534716796875,0.047699324285984036,-0.05154080214500427,-0.022556014736415816
1761506707075319000,6.875319091796875,-0.04180091389715671,-0.029895810439437627,-0.022729266111203468
1761506707085290000,6.8852900390625,-0.09463818559348583,-0.009012962212786078,-0.018837469137320293
1761506707095262000,6.895261962890625,-0.13257482527792452,0.012989391563087701,-0.02257905311870854
1761506707105234200,6.905234130859375,-0.10689911675155161,0.005073211611062288,-0.021370997069776056
1761506707115206000,6.915205810546875,-0.05149404039382934,-0.015512626430392265,0.0024956162080168724
1761506707125178000,6.92517822265625,-0.012469605472683906,-0.028949177239090202,0.01607036534443032
1761506707135150000,6.935150146484375,-0.020036825856566427,-0.021566373511403798,0.0022632641902891916
1761506707145121000,6.94512109375,-0.02616319978237152,-0.0049910862855613225,-0.006842093580262735
1761506707155093000,6.955093017578125,-0.05070435132086277,0.011857757184654474,-0.013483883382030762
1761506707165065000,6.96506494140625,-0.04223170652985572,0.020039456205070017,-0.020241741878096943
1761506707175037200,6.975037109375,-0.0164566292822361,0.0046843584239482875,-0.01626731268863659
1761506707185009000,6.9850087890625,0.022543255719542504,-0.004430237532407045,-0.014399591721151954
1761506707194981000,6.994981201171875,0.06360299586057662,0.0007654314145445824,-0.004424054386792704
1761506707204952800,7.004952880859375,0.10660977841615676,-0.0044137247890233995,-0.004533268648618832
1761506707214924000,7.014924072265625,0.12498597758412361,-0.007686755110323428,-0.0052794473734218625
1761506707224896000,7.02489599609375,0.09885434198379515,-0.007722118684649467,-0.03329420700634364
1761506707234868000,7.034867919921875,0.08114800490140914,-0.0042144028246402735,-0.04793458978000562
1761506707244840200,7.044840087890625,0.058280339533090586,-0.02059621330499649,-0.056132239854801445
1761506707254812000,7.05481201171875,0.06793371854126452,-0.02958879031687975,-0.07016708991678897
1761506707264784100,7.0647841796875,0.04966507140100002,-0.02739113414213061,-0.06650829341460485
1761506707274755800,7.074755859375,0.026514497438073156,-0.013665683389455079,-0.06868366925888694
1761506707284727000,7.08472705078125,-0.006814356189966201,-0.002463905895501375,-0.07545022708463948
1761506707294699000,7.094698974609375,-0.050260699206590646,0.012442863596230744,-0.0900248283128254
1761506707304671000,7.1046708984375,-0.08991407968103884,0.017206278605759143,-0.10193064415659756
1761506707314643200,7.114643310546875,-0.10499240634739399,0.018706161774694918,-0.10614327514925971
1761506707324615000,7.124614990234375,-0.09061901308000087,0.021216098769009113,-0.08514181464477441
1761506707334587100,7.134587158203125,-0.04371463856399059,0.005506050070375204,-0.046824249351350586
1761506707344558000,7.14455810546875,0.010509119054675102,-0.002403261749446392,-0.009125665339641273
1761506707354530000,7.154530029296875,0.0458534041583538,-0.00544715948998928,0.02223524008314125
1761506707364502000,7.164501953125,0.05718845264315605,-0.004813537761569023,0.04765505588599481
1761506707374474000,7.174473876953125,0.05882979010939598,-0.015870353826880453,0.06970820826734415
1761506707384446200,7.1844462890625,0.030392800176143646,-0.009771744690835475,0.0666731103211874
1761506707394418000,7.19441796875,-0.022248072165250776,0.01891688191592693,0.07985186414364726
1761506707404390100,7.20439013671875,-0.05232172338962555,0.040055823795497415,0.09400719421356916
1761506707414361000,7.214361083984375,-0.025200492230057714,0.03158274061307311,0.09864471782110631
1761506707424333000,7.2243330078125,0.015632453417778015,0.0015263327844440937,0.12305194078162311
1761506707434305000,7.234304931640625,0.0705360099941492,-0.02308086972758174,0.1350521386442706
1761506707444277000,7.244277099609375,0.10369535227417945,-0.04287175799906254,0.15948482483960688
1761506707454249200,7.254249267578125,0.10647709194719791,-0.04127250610888004,0.16186021220143884
1761506707464221000,7.264220947265625,0.060766311129927635,-0.021776363000273705,0.12367670335015281
1761506707474192100,7.274192138671875,0.005344868159294128,-0.0074997081056237215,0.07091633738151286
1761506707484164000,7.2841640625,-0.051796238210797305,-0.003860036429017782,0.011007391999592072
1761506707494136000,7.294135986328125,-0.10699965451657771,-0.008239712817966937,-0.04851971902446821
1761506707504108000,7.30410791015625,-0.11209434730708598,-0.02713628259822726,-0.09248729116991161
1761506707514080000,7.314080078125,-0.04966331783533096,-0.06374708050638436,-0.09392360758334398
1761506707524052200,7.32405224609375,0.002042904004454613,-0.09466843460127711,-0.09039745188434607
1761506707534024000,7.33402392578125,0.03787935653924942,-0.09992474769428372,-0.09936883997772819
1761506707543995100,7.3439951171875,0.04995440973639488,-0.0899555807352066,-0.1373077355513349
1761506707553967000,7.353967041015625,0.05872223808169365,-0.08280117893591522,-0.17979663171265273
1761506707563939000,7.36393896484375,0.040456513550877565,-0.06927183527722955,-0.2184363416325301
1761506707573911000,7.3739111328125,0.039682022047042846,-0.059031084835156795,-0.23279468346126375
1761506707583883300,7.38388330078125,0.04232172290086746,-0.041965091482922434,-0.2346609157245606
1761506707593855500,7.39385546875,0.0675643007069826,-0.017771657403558492,-0.18281093803253023
1761506707603826200,7.403826171875,0.09308101927936077,0.00686930124759674,-0.11749028806649148
1761506707613798400,7.41379833984375,0.10755904196500778,0.012045169515535234,-0.0809771327133756
1761506707623770400,7.423770263671875,0.14873568648397922,0.016947189278155566,-0.07425724074067548
1761506707633742300,7.433742431640625,0.17940321194827555,0.01921060416549444,-0.06862929045683704
1761506707643714300,7.44371435546875,0.17502397395074368,0.021082389386743308,-0.07429654070460237
1761506707653686300,7.453686279296875,0.14307283841669557,0.0370360375829041,-0.044025604209303855
1761506707663658500,7.463658447265625,0.10313187317252158,0.07022365610934793,0.005577115145744755
1761506707673629200,7.473629150390625,0.06968962229788303,0.07612564669474958,0.060290583376958966
1761506707683601400,7.483601318359375,0.03849778069853783,0.09575798340365291,0.10332303922991268
1761506707693573400,7.493573486328125,0.0412567240178585,0.07627126571051776,0.1307779775895644
1761506707703545300,7.50354541015625,0.014680267259478567,0.06546484420970082,0.16231416651401667
1761506707713517300,7.513517333984375,-0.004062427133321762,0.07752915681712329,0.18686057874951512
1761506707723489300,7.5234892578125,-0.027734394621849057,0.023477321699261665,0.19514628613367677
1761506707733461500,7.53346142578125,-0.05869535007476806,0.003673354750499129,0.21415267296396195
1761506707743432200,7.54343212890625,-0.06079904435575008,0.01704275860711932,0.30662929660938676
1761506707753404400,7.553404296875,-0.06074526834189892,-0.0013134937513619661,0.3562031095303595
1761506707763376400,7.56337646484375,-0.058120180535316465,-0.03433708082251251,0.31528427569735795
1761506707773348400,7.573348388671875,-0.0692769498437643,-0.049707887629419564,0.312738390606828
1761506707783320300,7.5833203125,-0.11392331629991531,-0.042528205258399246,0.3025151392888278
1761506707793292300,7.593292236328125,-0.17436814039051532,-0.04131766042485833,0.2651317861055955
1761506707803263500,7.603263427734375,-0.1840583442777395,-0.04213511428758502,0.23536347450334577
1761506707813235200,7.613235107421875,-0.17090777080357072,-0.04906710550785064,0.22147143501210956
1761506707823207400,7.62320751953125,-0.14602876561284064,-0.04056092377342283,0.214838901662454
1761506707833179400,7.633179443359375,-0.12836100697517394,-0.04912095458693802,0.18885646527446806
1761506707843151400,7.6431513671875,-0.110921211874485,-0.05655855724178254,0.1498838336057961
1761506707853123300,7.653123291015625,-0.1082119529157877,-0.0538518555663526,0.06667807419067248
1761506707863095300,7.66309521484375,-0.1293044253051281,-0.04918232938535511,-0.006513820607122033
1761506707873066500,7.67306640625,-0.14585633165538311,-0.03689195293709636,-0.047736532757524396
1761506707883038200,7.6830380859375,-0.1459095231473446,-0.03325242739096284,-0.06871122398609295
1761506707893010400,7.693010498046875,-0.11840893728137016,-0.02706957403756678,-0.09767401875858195
1761506707902982400,7.702982421875,-0.06344809755980968,-0.03831431389041245,-0.1267724774084054
1761506707912954400,7.712954345703125,0.006890928557515144,-0.05039484698027372,-0.1725601776530966
1761506707922926300,7.72292626953125,0.05302490322291851,-0.056254459728673094,-0.22181359951328486
1761506707932897300,7.732897216796875,0.08161211528182029,-0.06570917435958981,-0.2590415612054057
1761506707942869500,7.742869384765625,0.11498889970481395,-0.06038863692395389,-0.2668485999608412
1761506707952841200,7.75284130859375,0.13835048606991768,-0.05309877217672765,-0.25029115891894327
1761506707962813400,7.7628134765625,0.1178887127995491,-0.029853140341490506,-0.23373669528542085
1761506707972785400,7.772785400390625,0.08645838626921176,-0.011690730054676532,-0.21566168928742407
1761506707982757400,7.78275732421875,0.03616203122735023,0.032711306251585484,-0.19271032769102603
1761506707992728600,7.792728515625,-0.01015022261440754,0.061539779720455406,-0.1918638851958327
1761506708002700300,7.8027001953125,-0.022324060010910033,0.07838292410224676,-0.1967647541809827
1761506708012672500,7.812672607421875,0.01287117201089859,0.07373305246978998,-0.17992929991530254
1761506708022644200,7.822644287109375,0.06964052245914935,0.0453328874155879,-0.16319547939319162
1761506708032616400,7.832616455078125,0.08158873440623284,0.037419118616357445,-0.13878397298320197
1761506708042588400,7.84258837890625,0.026870471268892287,0.05134922509565949,-0.1306840613615699
1761506708052560400,7.852560302734375,-0.048940848779678345,0.08486023035757242,-0.13937998438128268
1761506708062531600,7.862531494140625,-0.07542728916704654,0.10059804384596645,-0.15452811574768274
1761506708072503300,7.87250341796875,-0.05738076034486293,0.09440598427280783,-0.1660046367960982
1761506708082475500,7.8824755859375,-0.0033493104279041287,0.07794482494592667,-0.1749622338261455
1761506708092447200,7.892447265625,0.07307517308294773,0.06010550913363695,-0.15661991866147146
1761506708102419500,7.90241943359375,0.15340893899202346,0.029819384202361104,-0.09692545628044753
1761506708112391400,7.912391357421875,0.2306786411553621,-0.01895567955635488,-0.04112512896086555
1761506708122363400,7.92236328125,0.27371172719597814,-0.07326879595890641,0.015749741388205438
1761506708132334600,7.93233447265625,0.24032909755408763,-0.09826382874473928,0.06785845221481286
1761506708142306300,7.942306396484375,0.16928279995024204,-0.08175605379715561,0.0895147781651467
1761506708152278500,7.952278564453125,0.05042904151082039,-0.07319755735360085,0.09806215042648836
1761506708162250200,7.962250244140625,-0.025029227316379545,-0.04874101535864174,0.0884261609445326
1761506708172222500,7.972222412109375,-0.07184533902704715,-0.03234218067824841,0.07003278687947895
1761506708182194400,7.9821943359375,-0.09769991125166416,-0.027495179038494823,0.08748348240009508
1761506708192165400,7.992165283203125,-0.08073533244729042,-0.020106091700494287,0.1283811547140591
1761506708202137300,8.002137451171874,-0.06668634882867336,-0.006907660496607422,0.1816719788641669
1761506708212109300,8.012109375,-0.019274024790525434,0.0051539486970752476,0.20297979277092962
1761506708222081500,8.02208154296875,0.0615039777547121,0.01749284046217799,0.2564421010304242
1761506708232053200,8.03205322265625,0.07490531111955642,0.053747153082862494,0.2830466513721272
1761506708242025500,8.042025390625,0.017425766575336454,0.06610233839564025,0.26002861774768676
1761506708251997400,8.05199755859375,-0.021088380736112595,0.09475867016799748,0.21333204076346007
1761506708261968400,8.061968505859374,-0.04882160631418228,0.11590499163642524,0.15944063863800836
1761506708271940400,8.0719404296875,-0.03466156353652477,0.09446604389697313,0.17074825112661346
1761506708281912300,8.081912353515625,0.012499416089057922,0.08494717798866332,0.16565240755863486
1761506708291884500,8.091884521484374,0.05802957964241504,0.05642879338227212,0.17830728820404038
1761506708301856300,8.101856201171875,0.0752805741727352,0.03955788421072066,0.15463537551444023
1761506708311828500,8.111828369140625,0.09627017070949077,0.02121675635613501,0.11720328781865537
1761506708321799200,8.121799072265626,0.14267887066304683,-0.010018632123991846,0.06571649914951995
1761506708331771400,8.131771484375,0.19313947635591028,-0.05202376335635781,0.03871894460197072
1761506708341743400,8.141743408203125,0.2502081020116806,-0.10195296558625995,0.03387051362353377
1761506708351715300,8.15171533203125,0.2624818926513195,-0.11234364589303732,0.004173084433563053
1761506708361687300,8.161687255859375,0.22201485770642757,-0.11250278197750449,-0.023360143326688558
1761506708371659300,8.1716591796875,0.10570610757470131,-0.07109948909580707,-0.050743550820089876
1761506708381631500,8.181631591796876,-0.044429508835077285,-0.04359495770707726,-0.07457879171208479
1761506708391602200,8.191602294921875,-0.13379764507114886,-0.017305720392242072,-0.08086701426925137
1761506708401574400,8.201574462890624,-0.1844943976074457,-0.01693601029701531,-0.07921254332680255
1761506708411546400,8.21154638671875,-0.18798866946399212,-0.03130129332318902,-0.09448317769486457
1761506708421518300,8.221518310546875,-0.14243044885993003,-0.04695822359509766,-0.08284499981133267
1761506708431490300,8.231490234375,-0.09062310473322868,-0.06431150945611298,-0.07796205920851788
1761506708441462300,8.241462158203126,-0.06884206555783748,-0.0698041885882616,-0.07096714055356569
1761506708451433500,8.25143359375,-0.07311375152766704,-0.06449154219813645,-0.061827419289108364
1761506708461405200,8.2614052734375,-0.057226446565985675,-0.059484089299663895,-0.06284009432983584
1761506708471377400,8.27137744140625,-0.035759880167245864,-0.060145256622135636,-0.07487806691960432
1761506708481349400,8.281349365234375,-0.03959200567603111,-0.057165875485166905,-0.08420942003233357
1761506708491321300,8.2913212890625,-0.050416766551136964,-0.0570544509999454,-0.08690448606889695
1761506708501293300,8.301293212890625,-0.05998948153853416,-0.05757745196074247,-0.1045120298187714
1761506708511265300,8.311265380859375,-0.06787117469906806,-0.03811411514319479,-0.13109945549573748
1761506708521236500,8.321236572265626,-0.05725684170424938,-0.01680646563321352,-0.1303504454930313
1761506708531208200,8.331208251953125,-0.043236499658226964,-0.020736060167104005,-0.13303277991218493
1761506708541180400,8.341180419921875,-0.048048283854126926,-0.011191183034703135,-0.1274205751867499
1761506708551152400,8.35115234375,-0.015099953976273535,-0.013387377904728054,-0.12409432597402482
1761506708561124400,8.361124267578125,0.012983400213718414,-0.007947890264540911,-0.11884037836804054
1761506708571096300,8.371096435546875,0.021993220621347426,-0.011573314220085739,-0.1064995138415601
1761506708581069800,8.38106982421875,0.026886253359913823,0.006617956835031509,-0.08806135535328649
1761506708591041800,8.391041748046876,-0.008775427129864692,0.0422187009178102,-0.08076625730851665
1761506708601014000,8.401013916015625,-0.05735445685982704,0.07333565065003932,-0.05945026922845281
1761506708610984700,8.410984619140624,-0.09273907397389411,0.098504944024235,-0.04494151347782462
1761506708620957000,8.42095703125,-0.08324819205105304,0.09375694577954709,-0.01219916363400407
1761506708630929000,8.430928955078125,-0.016681670209765433,0.08010565624162554,0.022892434483394026
1761506708640900900,8.44090087890625,0.05203004696667194,0.0721224754679948,0.07068899946562014
1761506708650872800,8.450872802734375,0.08344225331842899,0.07172960369288921,0.11710085949064232
1761506708660844800,8.4608447265625,0.08727437882721424,0.0970042571377009,0.13991922409082763
1761506708670816000,8.47081591796875,0.09148410547673702,0.10189743600673973,0.12938174659134818
1761506708680787700,8.48078759765625,0.09224866010844707,0.10215462563820182,0.1116531702776905
1761506708690760000,8.490760009765625,0.09084931470453739,0.08647562966495752,0.08804908039360307
1761506708700732000,8.50073193359375,0.10360884303450583,0.06938830126374959,0.08895538158356212
1761506708710703900,8.510703857421875,0.13523556891977787,0.02377338203638792,0.09666465905294754
1761506708720675800,8.52067578125,0.09527823706269263,0.003922653336450458,0.08522611366105265
1761506708730647800,8.530647705078126,0.011450783818960189,0.004296382019668817,0.04751204895242117
1761506708740619000,8.540618896484375,-0.08037877409458159,0.011883622278273104,0.006329066024208441
1761506708750590700,8.5505908203125,-0.19972469996511935,0.015614625500142573,-0.03725777230849489
1761506708760563000,8.56056298828125,-0.2714496274828911,0.03677395258061587,-0.056965293145459145
1761506708770535000,8.570534912109375,-0.29661212579011914,0.0352963543087244,-0.05269031010684557
1761506708780507000,8.5805068359375,-0.2425567104756832,0.021692045717686414,-0.03635448505952954
1761506708790478800,8.590478759765626,-0.13163140694797038,-0.005657075913622975,-0.013946792752621695
1761506708800449800,8.60044970703125,-0.08815700688064097,0.0028158611383289098,0.028622420369600877
1761506708810422000,8.610422119140624,0.03239069599509239,0.059682023024559015,0.007846841042861341
1761506708820393700,8.620393798828125,0.49023967792391776,0.12611921939775347,-0.11129017305104061
1761506708830366000,8.630365966796875,0.6792138512939214,-0.04238032122030854,-0.0885073272888083
1761506708840338000,8.640337890625,0.6855927386760712,-0.1657693850018084,0.0033162027427460997
1761506708850310000,8.650309814453125,0.5391051233798265,-0.09077887981683015,0.019309762824187053
1761506708860281900,8.66028173828125,0.1616425143301487,-0.03436630691699683,0.1273614836769644
