time,seconds_elapsed,z,y,x
1761506700284491500,0.084491455078125,0.002214632462710142,-0.1307145357131958,0.08664900064468384
1761506700294462500,0.09446240234375,-0.029334506019949913,-0.08534546196460724,0.053420208394527435
1761506700304434400,0.104434326171875,-0.061855390667915344,-0.04133480414748192,0.038931120187044144
1761506700314406400,0.114406494140625,-0.08333857357501984,0.014911957085132599,0.01996009051799774
1761506700324378400,0.12437841796875,-0.09718697518110275,0.05142912641167641,-0.011264527216553688
1761506700334350600,0.1343505859375,-0.10278654098510742,0.07538799196481705,-0.047534652054309845
1761506700344322600,0.144322509765625,-0.09758120030164719,0.08482827991247177,-0.06843250244855881
1761506700354293500,0.15429345703125,-0.09517662972211838,0.061929892748594284,-0.0801277756690979
1761506700364265500,0.164265380859375,-0.10388322919607162,0.04219941049814224,-0.08511797338724136
1761506700374237400,0.174237548828125,-0.09282045811414719,0.026520583778619766,-0.06731048226356506
1761506700384209400,0.18420947265625,-0.0805462896823883,0.013757036998867989,-0.0462997667491436
1761506700394181400,0.194181396484375,-0.06541900336742401,0.007867989130318165,-0.027025405317544937
1761506700404153600,0.204153564453125,-0.049533627927303314,0.009607577696442604,-0.01122318021953106
1761506700414125600,0.21412548828125,-0.03699493408203125,0.01571873389184475,-0.00623214989900589
1761506700424096500,0.224096435546875,-0.030556045472621918,0.022734761238098145,-0.012789682485163212
1761506700434068500,0.234068359375,-0.02526913583278656,0.043740712106227875,-0.013012056238949299
1761506700444040400,0.24404052734375,-0.016077972948551178,0.07234002649784088,-0.0073404377326369286
1761506700454012400,0.254012451171875,0.001474122516810894,0.08558312803506851,-0.004590990021824837
1761506700463984400,0.263984375,0.015352169051766396,0.0787816196680069,-0.00866769440472126
1761506700473956600,0.27395654296875,0.027875151485204697,0.06326790899038315,-0.01824069395661354
1761506700483927600,0.283927490234375,0.03655080497264862,0.0466441735625267,-0.024746619164943695
1761506700493899500,0.2938994140625,0.04926127567887306,0.030754420906305313,-0.027917644008994102
1761506700503871500,0.30387158203125,0.05861107259988785,0.025967398658394814,-0.03463707119226456
1761506700513843500,0.313843505859375,0.07529791444540024,0.028252391144633293,-0.0353662446141243
1761506700523815400,0.3238154296875,0.09086492657661438,0.021167339757084846,-0.03826410695910454
1761506700533787400,0.333787353515625,0.09690657258033752,0.009470736607909203,-0.046374499797821045
1761506700543759600,0.343759521484375,0.10921132564544678,-0.006665460299700499,-0.054126907140016556
1761506700553730600,0.35373046875,0.1098954901099205,-0.012316687032580376,-0.05688061565160751
1761506700563702500,0.36370263671875,0.11085110157728195,-0.004232882056385279,-0.046808697283267975
1761506700573674500,0.373674560546875,0.11547648161649704,0.00585490558296442,-0.03426733985543251
1761506700583646700,0.383646728515625,0.11921936273574829,0.019418466836214066,-0.014015572145581245
1761506700593619000,0.393618896484375,0.12756676971912384,0.028452441096305847,-0.0007812594994902611
1761506700603590700,0.403590576171875,0.13338518142700195,0.02469227835536003,0.00800652988255024
1761506700613563000,0.41356298828125,0.13248848915100098,0.01692543365061283,0.011750401929020882
1761506700623533800,0.423533935546875,0.12527821958065033,0.007355990819633007,0.01565897837281227
1761506700633505800,0.433505859375,0.12226617336273193,0.01308631431311369,0.02365804836153984
1761506700643478000,0.44347802734375,0.12235059589147568,0.023472756147384644,0.029938088729977608
1761506700653449700,0.45344970703125,0.11717048287391663,0.033530719578266144,0.028359102085232735
1761506700663422000,0.463421875,0.11493802070617676,0.04374904930591583,0.033628806471824646
1761506700673393700,0.4733935546875,0.11037842929363251,0.03664320334792137,0.03149428218603134
1761506700683364900,0.48336474609375,0.1057339459657669,0.02300310507416725,0.035014212131500244
1761506700693336800,0.4933369140625,0.09898629784584045,0.012082014232873917,0.03416146710515022
1761506700703308800,0.503308837890625,0.09647000581026077,-0.0014024608535692096,0.0338994562625885
1761506700713281000,0.513281005859375,0.08966589719057083,-0.011930469423532486,0.03149542212486267
1761506700723252700,0.523252685546875,0.08119045197963715,-0.0055317990481853485,0.030198348686099052
1761506700733225000,0.533224853515625,0.0783936008810997,0.009093749336898327,0.034363001585006714
1761506700743196700,0.54319677734375,0.0719263032078743,0.023609226569533348,0.04673655331134796
1761506700753168000,0.55316796875,0.06481832265853882,0.03385867178440094,0.0641632154583931
1761506700763139800,0.563139892578125,0.06363515555858612,0.036546263843774796,0.08369916677474976
1761506700773111800,0.57311181640625,0.05893707275390625,0.0326567180454731,0.09869196265935898
1761506700783084000,0.583083984375,0.0477413684129715,0.023947741836309433,0.1078064888715744
1761506700793055700,0.5930556640625,0.035589899867773056,0.030992334708571434,0.10997190326452255
1761506700803028000,0.603028076171875,0.02236352115869522,0.03876118361949921,0.10333693772554398
1761506700812998700,0.61299853515625,0.015536242164671421,0.054859459400177,0.0857560783624649
1761506700822971000,0.622970947265625,0.010837179608643055,0.06586898118257523,0.07253047823905945
1761506700832942800,0.63294287109375,0.009549008682370186,0.06572436541318893,0.05978113040328026
1761506700842914800,0.642914794921875,0.00705330865457654,0.05048337206244469,0.04603255167603493
1761506700852887000,0.652886962890625,0.010556431487202644,0.030193282291293144,0.03183896839618683
1761506700862858800,0.662858642578125,0.012061038985848427,0.005419943481683731,0.02282787300646305
1761506700872831000,0.6728310546875,0.011002965271472931,-0.02311369590461254,0.008647337555885315
1761506700882801700,0.6828017578125,0.006151270121335983,-0.05014932155609131,-0.007955066859722137
1761506700892774000,0.69277392578125,-0.002836365718394518,-0.05821790173649788,-0.018819965422153473
1761506700902745600,0.70274560546875,-0.006008900236338377,-0.05180288851261139,-0.019744178280234337
1761506700912717800,0.7127177734375,-0.005740186665207148,-0.03509395197033882,-0.023416411131620407
1761506700922689800,0.722689697265625,-0.0018030810169875622,-0.009719191119074821,-0.019830679520964622
1761506700932661800,0.732661865234375,0.0032689087092876434,0.012198091484606266,-0.01463298685848713
1761506700942634000,0.742634033203125,0.010828227736055851,0.02329905517399311,0.004446545150130987
1761506700952604700,0.752604736328125,0.018088538199663162,0.01781853660941124,0.017917878925800323
1761506700962577000,0.762576904296875,0.020891882479190826,-0.0016227420419454575,0.03684765845537186
1761506700972548600,0.772548583984375,0.022618677467107773,-0.022895008325576782,0.049196742475032806
1761506700982520800,0.782520751953125,0.019206281751394272,-0.04177213832736015,0.05518651008605957
1761506700992492800,0.792492919921875,0.008895322680473328,-0.04606142267584801,0.05410340428352356
1761506701002464800,0.80246484375,-0.005657740402966738,-0.03314169496297836,0.038772448897361755
1761506701012437000,0.81243701171875,-0.014714619144797325,-0.009541291743516922,0.021208899095654488
1761506701022407700,0.82240771484375,-0.016724854707717896,0.018587317317724228,-0.0002827945281751454
1761506701032380000,0.8323798828125,-0.019033282995224,0.0358605794608593,-0.015850037336349487
1761506701042351600,0.8423515625,-0.017917554825544357,0.04460497573018074,-0.016862256452441216
1761506701052323800,0.85232373046875,-0.018200915306806564,0.03541227802634239,-0.0076628997921943665
1761506701062295800,0.8622958984375,-0.02100866101682186,0.010595864616334438,0.011069249361753464
1761506701072267800,0.872267822265625,-0.023905113339424133,-0.012824771925807,0.0312003493309021
1761506701082239000,0.882239013671875,-0.02063528262078762,-0.03341778367757797,0.043337929993867874
1761506701092210700,0.892210693359375,-0.02208191156387329,-0.04205441474914551,0.043339528143405914
1761506701102183000,0.902182861328125,-0.022526517510414124,-0.03249874338507652,0.03489082679152489
1761506701112154600,0.912154541015625,-0.024028006941080093,-0.007912173867225647,0.017309969291090965
1761506701122126800,0.922126953125,-0.024858104065060616,0.012953190132975578,0.014661107212305069
1761506701132098800,0.932098876953125,-0.034177035093307495,0.032554056495428085,0.008595490828156471
1761506701142070800,0.94207080078125,-0.03616498410701752,0.04437324032187462,0.008733738213777542
1761506701152042000,0.9520419921875,-0.03477667644619942,0.04106559604406357,0.013852067291736603
1761506701162013700,0.962013671875,-0.024591876193881035,0.03230493888258934,0.022665293887257576
1761506701171986000,0.97198583984375,-0.016123555600643158,0.019880760461091995,0.032635632902383804
1761506701181957600,0.98195751953125,-0.009990597143769264,0.004490060731768608,0.039938099682331085
1761506701191929900,0.991929931640625,-0.0034911525435745716,-0.012250036932528019,0.03742460906505585
1761506701201901800,1.00190185546875,0.00167755875736475,-0.02188381738960743,0.033301569521427155
1761506701211872800,1.011872802734375,0.005578823387622833,-0.021139463409781456,0.029738256707787514
1761506701221845000,1.021844970703125,0.014088034629821777,-0.011789774522185326,0.024266131222248077
1761506701231816700,1.031816650390625,0.021777646616101265,-0.009667235426604748,0.017040174454450607
1761506701241789000,1.041788818359375,0.020360616967082024,-0.014683392830193043,-0.0015962128527462482
1761506701251760600,1.0517607421875,0.02297743782401085,-0.01721419394016266,-0.010530052706599236
1761506701261732900,1.06173291015625,0.027681922540068626,-0.015967799350619316,-0.019990216940641403
1761506701271704800,1.071704833984375,0.03173898160457611,-0.01448601670563221,-0.021568406373262405
1761506701281675800,1.08167578125,0.03829346224665642,-0.0012969750678166747,-0.014857408590614796
1761506701291648000,1.09164794921875,0.04738523066043854,0.0024924366734921932,0.0005186180351302028
1761506701301619700,1.10161962890625,0.053186241537332535,-0.0050006466917693615,0.01957503892481327
1761506701311592000,1.111592041015625,0.05448879674077034,-0.019658684730529785,0.036756690591573715
1761506701321563600,1.121563720703125,0.04909631237387657,-0.02573227696120739,0.04652392864227295
1761506701331536000,1.131535888671875,0.04733223468065262,-0.022533554583787918,0.049626510590314865
1761506701341507800,1.1415078125,0.04162052273750305,-0.00940815731883049,0.041776303201913834
1761506701351478800,1.151478759765625,0.0370609275996685,-0.0035071251913905144,0.02641599252820015
1761506701361451000,1.161450927734375,0.029097268357872963,0.01030506007373333,0.001472641248255968
1761506701371422700,1.171422607421875,0.02204122208058834,0.02107435092329979,-0.010215173475444317
1761506701381395000,1.18139501953125,0.015931811183691025,0.02833399549126625,-0.014178089797496796
1761506701391366700,1.19136669921875,0.011066747829318047,0.030392352491617203,-0.01023234985768795
1761506701401339000,1.2013388671875,0.008849211037158966,0.02600380778312683,-0.0021195358131080866
1761506701411309800,1.211309814453125,0.013947300612926483,0.02105671912431717,0.007292341906577349
1761506701421281800,1.22128173828125,0.016993697732686996,0.009033642709255219,0.0097016217187047
1761506701431254000,1.23125390625,0.018016884103417397,0.0016700022388249636,0.007978556677699089
1761506701441225700,1.241225830078125,0.01377149298787117,-0.0037507982924580574,0.0067600952461361885
1761506701451198000,1.251197998046875,0.012228457257151604,-0.0013270553899928927,0.0070676906034350395
1761506701461169700,1.261169677734375,0.005408939439803362,0.003760554362088442,0.005823874846100807
1761506701471142000,1.271141845703125,0.009977592155337334,0.008948125876486301,0.0027710930444300175
1761506701481112800,1.28111279296875,0.016440516337752342,0.015727974474430084,-0.0022448915988206863
1761506701491084800,1.291084716796875,0.02700953744351864,0.01076437532901764,-0.006491301581263542
1761506701501057000,1.30105712890625,0.026855457574129105,-0.005300890188664198,-0.013553832657635212
1761506701511028700,1.31102880859375,0.022946735844016075,-0.019961591809988022,-0.01194901205599308
1761506701521001000,1.3210009765625,0.021856093779206276,-0.024081315845251083,-0.0008476510411128402
1761506701530972700,1.33097265625,0.026350444182753563,-0.02261231653392315,0.01687089167535305
1761506701540944000,1.34094384765625,0.026979608461260796,-0.017856953665614128,0.028295408934354782
1761506701550915800,1.350915771484375,0.029913611710071564,-0.02352442592382431,0.029861081391572952
1761506701560887800,1.3608876953125,0.028549540787935257,-0.03580053523182869,0.022953107953071594
1761506701570860000,1.370860107421875,0.020056188106536865,-0.039262913167476654,0.014683195389807224
1761506701580831200,1.380831298828125,0.0061370134353637695,-0.03274048864841461,0.0027320238295942545
1761506701590803500,1.390803466796875,-0.0047750226221978664,-0.021738173440098763,-0.014038699679076672
1761506701600775400,1.400775390625,-0.017484653741121292,-0.009613960050046444,-0.02939780429005623
1761506701610746400,1.410746337890625,-0.02342510037124157,0.0030584256164729595,-0.03187161311507225
1761506701620718600,1.420718505859375,-0.021704120561480522,0.00864621065557003,-0.022097747772932053
1761506701630690300,1.430690185546875,-0.021462038159370422,0.005222983192652464,-0.0028747860342264175
1761506701640662500,1.44066259765625,-0.02381882257759571,-0.011187044903635979,0.013570980168879032
1761506701650634200,1.45063427734375,-0.02718399651348591,-0.01486247405409813,0.025820989161729813
1761506701660606500,1.4606064453125,-0.028030680492520332,-0.010502124205231667,0.030119750648736954
1761506701670578400,1.470578369140625,-0.03308616206049919,-0.0000209868885576725,0.025755098089575768
1761506701680549400,1.48054931640625,-0.0389910489320755,0.006769367028027773,0.003749085357412696
1761506701690521600,1.490521484375,-0.0456625334918499,0.004473456181585789,-0.0180805791169405
1761506701700493300,1.500493408203125,-0.04528364911675453,-0.0010312575614079833,-0.03840554505586624
1761506701710465500,1.510465576171875,-0.046673018485307693,-0.004540504887700081,-0.054730720818042755
1761506701720437200,1.520437255859375,-0.04474346712231636,-0.000978915486484766,-0.05962468683719635
1761506701730409500,1.530409423828125,-0.040446456521749496,0.00455033965408802,-0.05607575923204422
1761506701740380200,1.540380126953125,-0.03487444669008255,0.009360251016914845,-0.04896334186196327
1761506701750352400,1.550352294921875,-0.021120551973581314,0.015873543918132782,-0.03617537394165993
1761506701760324400,1.560324462890625,-0.006257707253098488,0.014663171954452991,-0.020956292748451233
1761506701770296300,1.57029638671875,0.010967617854475975,0.0037380862049758434,-0.0032231013756245375
1761506701780268500,1.5802685546875,0.023309573531150818,-0.01146745216101408,0.010832106694579124
1761506701790240300,1.590240234375,0.03174939751625061,-0.02327910251915455,0.023877069354057312
1761506701800212500,1.60021240234375,0.037675268948078156,-0.023371051996946335,0.038157541304826736
1761506701810183200,1.61018310546875,0.045426398515701294,-0.01907297596335411,0.04365377128124237
1761506701820155400,1.6201552734375,0.05315641686320305,-0.014787881635129452,0.04316128417849541
1761506701830127400,1.63012744140625,0.055295467376708984,-0.013505036942660809,0.035214945673942566
1761506701840099300,1.640099365234375,0.05034336447715759,-0.016127927228808403,0.018685074523091316
1761506701850071600,1.650071533203125,0.04442262649536133,-0.01694392040371895,0.01085431594401598
1761506701860043300,1.660043212890625,0.035094134509563446,-0.019274577498435974,0.007999636232852936
1761506701870014500,1.670014404296875,0.022809771820902824,-0.01575840637087822,0.015634652227163315
1761506701879986200,1.679986083984375,0.014394719153642654,-0.011210909113287926,0.029268130660057068
1761506701889958400,1.68995849609375,0.007156514097005129,-0.005197491031140089,0.03837800770998001
1761506701899930400,1.699930419921875,-0.001860111951828003,-0.002348267938941717,0.04253135249018669
1761506701909902300,1.70990234375,-0.013420362025499344,-0.0009849959751591086,0.036305949091911316
1761506701919874300,1.719874267578125,-0.022069822996854782,-0.005511773284524679,0.019965259358286858
1761506701929846300,1.72984619140625,-0.03734278306365013,-0.003422523383051157,0.0010645394213497639
1761506701939817500,1.7398173828125,-0.050990112125873566,0.007083966862410307,-0.011986175552010536
1761506701949789200,1.7497890625,-0.05963366851210594,0.026470713317394257,-0.014487416483461857
1761506701959761400,1.759761474609375,-0.06237660348415375,0.037625882774591446,-0.012036336585879326
1761506701969733400,1.7697333984375,-0.055815912783145905,0.04001553729176521,-0.006170191802084446
1761506701979705300,1.779705322265625,-0.05107130855321884,0.035559963434934616,0.0023724848870187998
1761506701989677300,1.78967724609375,-0.04864223673939705,0.023992523550987244,0.007184017449617386
1761506701999648300,1.799648193359375,-0.0438707172870636,0.013904830440878868,0.013272121548652649
1761506702009620500,1.809620361328125,-0.04067385941743851,0.003784019500017166,0.01327531784772873
1761506702019592200,1.81959228515625,-0.03047063946723938,0.00021723599638789892,0.014162855222821236
1761506702029564400,1.829564453125,-0.0203077495098114,0.0020542843267321587,0.016735201701521873
1761506702039536400,1.839536376953125,-0.008686631917953491,0.0021597575396299362,0.020590221509337425
1761506702049508400,1.84950830078125,-0.0012564114294946194,0.00036052591167390347,0.015448990277945995
1761506702059480300,1.859480224609375,0.006720525212585926,-0.010864835232496262,0.008770883083343506
1761506702069451300,1.869451171875,0.012293722480535507,-0.018968036398291588,-0.0024543411564081907
1761506702079423500,1.879423583984375,0.018459739163517952,-0.024769200012087822,-0.015665218234062195
1761506702089395200,1.889395263671875,0.014528647065162659,-0.02157580293715,-0.0253913477063179
1761506702099367400,1.899367431640625,0.020595207810401917,-0.00174391595646739,-0.015805162489414215
1761506702109339400,1.90933935546875,0.02885100618004799,0.018072132021188736,-0.00384810334071517
1761506702119311400,1.919311279296875,0.02850574441254139,0.01734829880297184,0.010429196991026402
1761506702129282600,1.929282470703125,0.03282272815704346,0.002293181838467717,0.023479484021663666
1761506702139254300,1.939254150390625,0.028033940121531487,-0.01718282513320446,0.03498246893286705
1761506702149226500,1.9492265625,0.027236323803663254,-0.034536249935626984,0.03492547571659088
1761506702159198200,1.9591982421875,0.020932363346219063,-0.04256245121359825,0.026925254613161087
1761506702169170400,1.96917041015625,0.008710850961506367,-0.03705796226859093,0.010168380104005337
1761506702179142400,1.979142333984375,0.00040783220902085304,-0.017585426568984985,0.0022356370463967323
1761506702189114400,1.9891142578125,-0.005444731097668409,0.001068951329216361,-0.0076529462821781635
1761506702199085600,1.99908544921875,-0.007247986737638712,0.004153550136834383,-0.008763447403907776
1761506702209057300,2.009057373046875,-0.011170290410518646,0.0022118394263088703,0.001886533573269844
1761506702219029500,2.019029541015625,-0.014758762903511524,-0.0012147495290264487,0.013719708658754826
1761506702229001200,2.029001220703125,-0.024301666766405106,-0.012081777676939964,0.012382801622152328
1761506702238973400,2.038973388671875,-0.03332198038697243,-0.011498852632939816,0.00612728763371706
1761506702248945400,2.0489453125,-0.03490203246474266,0.0010920404456555843,0.0013439843896776438
1761506702258916400,2.058916259765625,-0.030134892091155052,0.006414863280951977,-0.010648244991898537
1761506702268888600,2.068888671875,-0.024674346670508385,0.012838141061365604,-0.01723211072385311
1761506702278860300,2.0788603515625,-0.019084826111793518,0.01238521933555603,-0.001803860766813159
1761506702288832500,2.08883251953125,-0.015061323530972004,0.009058131836354733,0.012657104060053825
1761506702298804200,2.09880419921875,-0.015858225524425507,-0.002276658546179533,0.026212649419903755
1761506702308776400,2.1087763671875,-0.010460798628628254,-0.012217173352837563,0.034751810133457184
1761506702318748400,2.11874853515625,-0.006681077182292938,-0.024686967954039574,0.029739443212747574
1761506702328719400,2.12871923828125,-0.006228073500096798,-0.031668711453676224,0.011530878953635693
1761506702338691600,2.138691650390625,-0.0027728588320314884,-0.026083387434482574,-0.01670106314122677
1761506702348663300,2.148663330078125,-0.009135151281952858,-0.01852906495332718,-0.03892221301794052
1761506702358635500,2.158635498046875,-0.011028499342501163,-0.000033101183362305164,-0.04459366947412491
1761506702368607200,2.168607177734375,-0.010533151216804981,0.022883933037519455,-0.026049278676509857
1761506702378579500,2.178579345703125,-0.0013143564574420452,0.029297739267349243,-0.0035276836715638638
1761506702388551400,2.188551513671875,0.009310057386755943,0.015176328830420971,0.011195069178938866
1761506702398522400,2.1985224609375,0.01621924340724945,-0.009103045798838139,0.01920652575790882
1761506702408494600,2.20849462890625,0.01856096088886261,-0.028808042407035828,0.018191061913967133
1761506702418466300,2.21846630859375,0.020478637889027596,-0.03808852657675743,0.006693513132631779
1761506702428438500,2.2284384765625,0.015505450777709484,-0.03587117791175842,-0.003216641955077648
1761506702438410200,2.23841015625,0.01591397635638714,-0.018702993169426918,-0.010652944445610046
1761506702448382500,2.248382568359375,0.016513720154762268,0.0054414900951087475,-0.011174391955137253
1761506702458353400,2.258353515625,0.018162749707698822,0.012498067691922188,-0.004943660460412502
1761506702468325400,2.268325439453125,0.016008252277970314,0.007217552047222853,-0.002730306936427951
1761506702478297600,2.278297607421875,0.0174871776252985,-0.0006745272548869252,-0.0011091734049841762
1761506702488269300,2.288269287109375,0.017595302313566208,-0.008355350233614445,-0.001980826025828719
1761506702498241500,2.298241455078125,0.017012499272823334,-0.009001770056784153,-0.004699678160250187
1761506702508213200,2.308213134765625,0.016672680154442787,-0.002935088938102126,0.002525477670133114
1761506702518185500,2.318185546875,0.01564222201704979,0.007599610835313797,0.008769274689257145
1761506702528156200,2.32815625,0.01685076393187046,0.016422662883996964,0.018711386248469353
1761506702538128400,2.33812841796875,0.018741143867373466,0.005239834077656269,0.02137119695544243
1761506702548100400,2.348100341796875,0.012066996656358242,-0.011310647241771221,0.009263932704925537
1761506702558072300,2.358072265625,0.014201559126377106,-0.023082977160811424,-0.00621234904974699
1761506702568044500,2.36804443359375,0.01646178402006626,-0.02149466797709465,-0.023897603154182434
1761506702578016800,2.378016845703125,0.015812471508979797,-0.010451363399624825,-0.034525930881500244
1761506702587987700,2.38798779296875,0.01853874884545803,-0.0002400047378614545,-0.03193334490060806
1761506702597959700,2.397959716796875,0.018218014389276505,0.010158322751522064,-0.016047760844230652
1761506702607932000,2.407931884765625,0.021212473511695862,0.00626504747197032,0.0006172355497255921
1761506702617903600,2.417903564453125,0.018560629338026047,-0.005177714861929417,0.01761620119214058
1761506702627875800,2.427875732421875,0.01954733021557331,-0.0129570746794343,0.027272025123238564
1761506702637847600,2.43784765625,0.02161051705479622,-0.010810276493430138,0.02753107249736786
1761506702647818800,2.44781884765625,0.021930627524852753,-0.006824589800089598,0.013642420992255211
1761506702657790700,2.457790771484375,0.017364293336868286,-0.003065085969865322,-0.002089163986966014
1761506702667762700,2.4677626953125,0.012141303159296513,-0.0018695930484682322,-0.02042902261018753
1761506702677735000,2.47773486328125,0.010625697672367096,0.008193161338567734,-0.03167448565363884
1761506702687706600,2.48770654296875,0.009310895577073097,0.00682908995077014,-0.0339706651866436
1761506702697678800,2.497678955078125,0.00983500573784113,0.01172344759106636,-0.02306661754846573
1761506702707650600,2.507650634765625,0.01194183249026537,0.011643818579614162,-0.004841274581849575
1761506702717621800,2.517621826171875,0.016298841685056686,0.006378563586622477,0.010161137208342552
1761506702727593700,2.52759375,0.013826362788677216,-0.0021052020601928234,0.015051499009132385
1761506702737565700,2.537565673828125,0.01865333691239357,-0.008279090747237206,0.00619013886898756
1761506702747538000,2.547537841796875,0.021942075341939926,-0.012916985899209976,-0.008986949920654297
1761506702757509600,2.557509521484375,0.014788364991545677,-0.012340744026005268,-0.028230618685483932
1761506702767481900,2.56748193359375,0.012495649978518486,-0.008989422582089901,-0.03584219887852669
1761506702777452800,2.577452880859375,0.009041732177138329,-0.004338379018008709,-0.04340306296944618
1761506702787424800,2.5874248046875,0.013032212853431702,-0.006130153778940439,-0.038126010447740555
1761506702797396700,2.597396728515625,0.009029085747897625,-0.0049558645114302635,-0.02955813705921173
1761506702807368700,2.60736865234375,0.014581777155399323,-0.004063173197209835,-0.017298808321356773
1761506702817341000,2.6173408203125,0.016668526455760002,-0.00810246728360653,-0.010291793383657932
1761506702827312600,2.627312744140625,0.016330305486917496,-0.0032216920517385006,-0.0023382632061839104
1761506702837284900,2.637284912109375,0.014884624630212784,-0.0023702674079686403,-0.0007610454922541976
1761506702847255800,2.647255859375,0.014361847192049026,0.001025795703753829,-0.003933935426175594
1761506702857227800,2.657227783203125,0.01207084022462368,0.004182812292128801,-0.007725264877080917
1761506702867199700,2.66719970703125,0.0074071129783988,0.004257913213223219,-0.006873585283756256
1761506702877171700,2.677171630859375,0.006757615599781275,0.008689087815582752,0.0020970695186406374
1761506702887144000,2.68714404296875,0.0015346240252256393,0.007302911952137947,0.004230261314660311
1761506702897115600,2.69711572265625,0.0009995950385928154,0.0058309826999902725,0.008445778861641884
1761506702907088000,2.707087890625,0.003018537536263466,0.006218206137418747,0.01203918270766735
1761506702917058800,2.717058837890625,-0.000013548415154218674,0.007844784297049046,0.015252792276442051
1761506702927030800,2.72703076171875,0.0006463830359280109,0.01082566101104021,0.01973249576985836
1761506702937002800,2.737002685546875,-0.0022262870334088802,0.015088815242052078,0.01559925451874733
1761506702946974700,2.746974609375,0.001087217591702938,0.014270958490669727,0.01295340247452259
1761506702956947000,2.756947021484375,0.00042605772614479065,0.021430402994155884,0.01664271205663681
1761506702966918700,2.766918701171875,-0.0016799699515104294,0.015861202031373978,0.014808060601353645
1761506702976889900,2.776889892578125,-0.007361180614680052,0.009134161286056042,0.011970942839980125
1761506702986861800,2.78686181640625,-0.016173847019672394,-0.005906040780246258,-0.008769223466515541
1761506702996833800,2.796833740234375,-0.020581794902682304,-0.014055059291422367,-0.02331896498799324
1761506703006805800,2.8068056640625,-0.012503361329436302,-0.013509644195437431,-0.03934507071971893
1761506703016777700,2.81677783203125,-0.004166065715253353,-0.0032185083255171776,-0.04253184795379639
1761506703026750000,2.82675,-0.00030448194593191147,0.011789203621447086,-0.032058171927928925
1761506703036721700,2.8367216796875,0.003789999522268772,0.02353677526116371,-0.015440094284713268
1761506703046692900,2.84669287109375,0.008960260078310966,0.021412905305624008,0.006828459911048412
1761506703056664800,2.856664794921875,0.0068980329670012,0.014578449539840221,0.018717700615525246
1761506703066636800,2.86663671875,0.011624610982835293,0.006419588811695576,0.021243974566459656
1761506703076608800,2.87660888671875,0.019136279821395874,-0.004847501404583454,0.008357366546988487
1761506703086580700,2.886580810546875,0.021985329687595367,-0.011087820865213871,-0.010985438711941242
1761506703096553000,2.896552978515625,0.017097556963562965,-0.016013802960515022,-0.023521538823843002
1761506703106523600,2.906523681640625,0.008751476183533669,-0.0002944940933957696,-0.02512715943157673
1761506703116496000,2.916495849609375,0.010126849636435509,0.0166969932615757,-0.019140997901558876
1761506703126467600,2.926467529296875,0.015809236094355583,0.018372653052210808,-0.009273986332118511
1761506703136439800,2.936439697265625,0.02509404718875885,0.009931209497153759,0.0029255005065351725
1761506703146411800,2.946411865234375,0.029354305937886238,-0.00583124253898859,0.01623544655740261
1761506703156383700,2.9563837890625,0.02784598246216774,-0.025245679542422295,0.01747717708349228
1761506703166356000,2.96635595703125,0.024084800854325294,-0.033964600414037704,0.014285645447671413
1761506703176326700,2.97632666015625,0.01838086172938347,-0.022533684968948364,0.015108877792954445
1761506703186299000,2.986298828125,0.016734762117266655,-0.006104378495365381,0.012093646451830864
1761506703196270600,2.9962705078125,0.016138166189193726,0.0031512368004769087,0.004557368345558643
1761506703206242800,3.006242919921875,0.013540519401431084,0.006171261426061392,-0.0039487676694989204
1761506703216214800,3.01621484375,0.012810014188289642,0.003213554620742798,-0.01249005738645792
1761506703226186800,3.026186767578125,0.013028393499553204,-0.005531733855605125,-0.01612474024295807
1761506703236157700,3.03615771484375,0.008349270559847355,-0.009829724207520485,-0.018346060067415237
1761506703246129700,3.046129638671875,0.012909933924674988,-0.0059883808717131615,-0.009352032095193863
1761506703256102000,3.056101806640625,0.012554312124848366,-0.00827150046825409,-0.002675923053175211
1761506703266073600,3.066073486328125,0.014889904297888279,-0.0036338719073683023,-0.00023034238256514072
1761506703276045800,3.0760458984375,0.019276821985840797,0.005868060514330864,0.0007427887758240104
1761506703286017500,3.086017578125,0.029295634478330612,0.007782607339322567,0.0003861915320158005
1761506703295989800,3.09598974609375,0.028849367052316666,0.007549394387751818,0.0010378933511674404
1761506703305960700,3.105960693359375,0.03349551558494568,0.008363522589206696,0.004025693517178297
1761506703315932700,3.1159326171875,0.032917462289333344,0.009588448330760002,0.0006079236045479774
1761506703325905000,3.12590478515625,0.032207466661930084,0.004580373875796795,0.0023107489105314016
1761506703335876600,3.135876708984375,0.028306536376476288,0.0018445568857714534,0.004212355241179466
1761506703345848800,3.145848876953125,0.033579859882593155,0.0012498729629442096,0.004469882696866989
1761506703355820500,3.155820556640625,0.036198634654283524,0.0004126892890781164,0.002204541116952896
1761506703365791700,3.165791748046875,0.03877204656600952,0.0032090083695948124,-0.003947361372411251
1761506703375763700,3.175763671875,0.04201463609933853,-0.0001338727306574583,-0.002647764515131712
1761506703385735700,3.185735595703125,0.04446820542216301,-0.0037200856022536755,-0.00861324556171894
1761506703395708000,3.1957080078125,0.04356226325035095,-0.010480619966983795,-0.010870124213397503
1761506703405679600,3.2056796875,0.0383312813937664,-0.015834905207157135,-0.014832108281552792
1761506703415651800,3.21565185546875,0.0358780100941658,-0.017314795404672623,-0.01744847744703293
1761506703425623600,3.22562353515625,0.038192830979824066,-0.016749141737818718,-0.020074887201189995
1761506703435594800,3.2355947265625,0.039064425975084305,-0.011661306023597717,-0.016635915264487267
1761506703445566700,3.245566650390625,0.04296356067061424,-0.008436484262347221,-0.015616189688444138
1761506703455538700,3.25553857421875,0.04086996614933014,-0.012324132956564426,-0.011605452746152878
1761506703465511000,3.265510986328125,0.03713115677237511,-0.02037540264427662,-0.013787913136184216
1761506703475482600,3.275482666015625,0.032247111201286316,-0.021384669467806816,-0.017423462122678757
1761506703485454800,3.285454833984375,0.024774815887212753,-0.018503129482269287,-0.01852148398756981
1761506703495425800,3.29542578125,0.0204104483127594,-0.010454947128891945,-0.01865486241877079
1761506703505397800,3.305397705078125,0.013677178882062435,-0.003866286249831319,-0.017545124515891075
1761506703515369700,3.31536962890625,0.009706413373351097,0.006567740812897682,-0.009528025984764099
1761506703525341700,3.325341796875,0.011858247220516205,0.012267970480024815,-0.0018647796241566539
1761506703535314000,3.33531396484375,0.014372194185853004,0.005405723117291927,-0.002716218587011099
1761506703545285600,3.34528564453125,0.013187088072299957,-0.001779218902811408,-0.001853620633482933
1761506703555257900,3.3552578125,0.010093636810779572,-0.004846035037189722,-0.000612561241723597
1761506703565228800,3.365228759765625,0.0067313965409994125,-0.00782637856900692,-0.001394998049363494
1761506703575200800,3.37520068359375,0.00009227776899933815,-0.006769650615751743,-0.004748009145259857
1761506703585172700,3.3851728515625,-0.004362125881016254,-0.009593932889401913,-0.010809630155563354
1761506703595144700,3.395144775390625,-0.006579168606549501,-0.005375845357775688,-0.020628824830055237
1761506703605116700,3.40511669921875,-0.01064927689731121,0.001124930800870061,-0.023968961089849472
1761506703615088600,3.415088623046875,-0.0038633844815194607,0.008136540651321411,-0.026048345491290092
1761506703625059600,3.4250595703125,-0.003287875559180975,0.011844193562865257,-0.026134366169571877
1761506703635031800,3.43503173828125,0.004320978652685881,0.015684042125940323,-0.015905581414699554
1761506703645003500,3.44500341796875,0.0067907944321632385,0.013284002430737019,0.0020321400370448828
1761506703654975700,3.454975830078125,0.005781665910035372,0.008368102833628654,0.01512718852609396
1761506703664947700,3.46494775390625,0.008610209450125694,-0.002969506196677685,0.022631444036960602
1761506703674919700,3.474919677734375,0.010163828730583191,-0.015371367335319519,0.02000998705625534
1761506703684891600,3.4848916015625,0.016729053109884262,-0.016792964190244675,0.013047152198851109
1761506703694862600,3.494862548828125,0.020291224122047424,-0.009762149304151535,-0.0015875182580202818
1761506703704834800,3.504834716796875,0.021012941375374794,-0.0005848963046446443,-0.00790240615606308
1761506703714806500,3.514806640625,0.025290166959166527,0.009487364441156387,-0.0104295052587986
1761506703724778800,3.52477880859375,0.0282547976821661,0.012558255344629288,-0.004760434851050377
1761506703734750700,3.534750732421875,0.02916601113975048,0.008850733749568462,0.011996309272944927
1761506703744722700,3.54472265625,0.028765205293893814,-0.0010572905885055661,0.019711222499608994
1761506703754693600,3.554693603515625,0.02644605189561844,-0.014700064435601234,0.016585400328040123
1761506703764665600,3.56466552734375,0.020477108657360077,-0.01906977966427803,0.004131395369768143
1761506703774637800,3.574637939453125,0.0159310195595026,-0.012821136973798275,-0.013219699263572693
1761506703784609500,3.584609619140625,0.011969568207859993,0.0027413112111389637,-0.0271709356456995
1761506703794581800,3.594581787109375,0.012542176991701126,0.016216784715652466,-0.04019276797771454
1761506703804553700,3.6045537109375,0.012252692133188248,0.023707190528512,-0.039451874792575836
1761506703814525700,3.614525634765625,0.016748301684856415,0.015672501176595688,-0.034204449504613876
1761506703824496600,3.62449658203125,0.016334446147084236,-0.0030934633687138557,-0.026426419615745544
1761506703834468600,3.634468505859375,0.01363605447113514,-0.013173076324164867,-0.015558885410428047
1761506703844440600,3.644440673828125,0.020597290247678757,-0.013367487117648125,-0.0089542455971241
1761506703854412500,3.65441259765625,0.02634018287062645,-0.0016548149287700653,-0.006455380003899336
1761506703864384800,3.664384765625,0.030641721561551094,0.010314762592315674,-0.010047451592981815
1761506703874356700,3.674356689453125,0.03674274682998657,0.02121184952557087,-0.008715521544218063
1761506703884327700,3.68432763671875,0.03950018435716629,0.014118255116045475,-0.011070022359490395
1761506703894299600,3.694299560546875,0.03520990535616875,0.000645787687972188,-0.015253780409693718
1761506703904271600,3.704271728515625,0.03406288102269173,-0.005488271359354258,-0.013061465695500374
1761506703914243600,3.71424365234375,0.04002311825752258,-0.007908855564892292,-0.007033682428300381
1761506703924215600,3.724215576171875,0.03615567460656166,-0.005635847337543964,0.0010623270645737648
1761506703934187800,3.734187744140625,0.040003515779972076,-0.0010627098381519318,0.004254113882780075
1761506703944159700,3.74415966796875,0.03967728093266487,0.0033677248284220695,0.0029331862460821867
1761506703954130700,3.754130615234375,0.04069069027900696,0.0018458081176504493,-0.002708960557356477
1761506703964102700,3.7641025390625,0.038211021572351456,0.002323845401406288,-0.005358006805181503
1761506703974074600,3.77407470703125,0.036459535360336304,-0.007898884825408459,-0.012216152623295784
1761506703984046600,3.784046630859375,0.02959364280104637,-0.01480153203010559,-0.0218831617385149
1761506703994018600,3.7940185546875,0.030091041699051857,-0.01304072979837656,-0.025410011410713196
1761506704003990500,3.803990478515625,0.024361517280340195,-0.009542135521769524,-0.028481701388955116
1761506704013961500,3.81396142578125,0.019798045977950096,-0.005082002840936184,-0.024713730439543724
1761506704023933700,3.82393359375,0.014412335120141506,0.0043402607552707195,-0.018110156059265137
1761506704033905700,3.83390576171875,0.01596437767148018,0.008078337647020817,-0.007956918329000473
1761506704043877600,3.843877685546875,0.018512491136789322,0.008755845949053764,0.0004509472055360675
1761506704053849600,3.853849609375,0.017918342724442482,0.0023170015774667263,0.008268083445727825
1761506704063821600,3.863821533203125,0.021781524643301964,-0.006223755888640881,0.008669688366353512
1761506704073793500,3.87379345703125,0.017837723717093468,-0.009815095923841,0.007158677093684673
1761506704083764500,3.883764404296875,0.013470938429236412,-0.009416953660547733,0.002720519434660673
1761506704093736700,3.89373681640625,0.012412335723638535,-0.0011852412717416883,-0.010941804386675358
1761506704103708700,3.903708740234375,0.010796596296131611,0.004458263516426086,-0.024483446031808853
1761506704113680600,3.9136806640625,0.009499791078269482,0.014724377542734146,-0.024943852797150612
1761506704123652600,3.923652587890625,0.01238159742206335,0.027587179094552994,-0.010259449481964111
1761506704133624600,3.93362451171875,0.013616994023323059,0.025545544922351837,0.0072075859643518925
1761506704143595800,3.943595703125,0.012195399031043053,0.011502429842948914,0.02403263747692108
1761506704153567500,3.9535673828125,0.012426408007740974,-0.002801035065203905,0.03244125097990036
1761506704163539700,3.963539794921875,0.010585097596049309,-0.01255725882947445,0.02936476655304432
1761506704173511700,3.97351171875,0.01027095690369606,-0.011452472768723965,0.020657241344451904
1761506704183483600,3.983483642578125,0.005684194155037403,-0.003171107731759548,0.010744158178567886
1761506704193455600,3.99345556640625,0.0020950259640812874,0.006452494766563177,0.007069791667163372
1761506704203427600,4.003427490234375,-0.0063570477068424225,0.015269421972334385,0.004164016805589199
1761506704213398800,4.013398681640625,-0.01187528483569622,0.01685233600437641,0.0018838881514966488
1761506704223370500,4.02337060546875,-0.01205398328602314,0.014096763916313648,-0.002459194976836443
1761506704233342700,4.0333427734375,-0.01707475073635578,0.010759810917079449,0.0001404868671670556
1761506704243314700,4.043314697265625,-0.020294511690735817,0.0006512502441182733,-0.010396841913461685
1761506704253286700,4.05328662109375,-0.029713217169046402,-0.019144093617796898,-0.01820436306297779
1761506704263258600,4.063258544921875,-0.040825255215168,-0.019612543284893036,-0.026951247826218605
1761506704273229600,4.0732294921875,-0.04313823580741882,-0.000615950208157301,-0.028469253331422806
1761506704283201800,4.083201904296875,-0.042668186128139496,0.015042638406157494,-0.029540110379457474
1761506704293173500,4.093173583984375,-0.036756888031959534,0.023861708119511604,-0.02863134630024433
1761506704303145700,4.103145751953125,-0.029968487098813057,0.02396450564265251,-0.026306938380002975
1761506704313117700,4.11311767578125,-0.02433285489678383,0.020699873566627502,-0.016032330691814423
1761506704323089700,4.123089599609375,-0.022615913301706314,0.005706277210265398,-0.010104933753609657
1761506704333061600,4.1330615234375,-0.025608612224459648,-0.002681566635146737,0.00011815235484391451
1761506704343032600,4.143032470703125,-0.018801573663949966,-0.008373807184398174,0.010055738501250744
1761506704353004800,4.1530048828125,-0.010733991861343384,-0.01596110872924328,0.008235577493906021
1761506704362976500,4.1629765625,-0.003796990495175123,-0.020352927967905998,-0.006664009764790535
1761506704372948700,4.17294873046875,0.002258088905364275,-0.01744343526661396,-0.021169543266296387
1761506704382920700,4.182920654296875,0.007491200231015682,-0.006455766037106514,-0.02942907065153122
1761506704392892700,4.192892578125,0.009570403024554253,-0.002082658000290394,-0.030741943046450615
1761506704402863600,4.202863525390625,0.006899785250425339,0.0017949044704437256,-0.025147706270217896
1761506704412835600,4.212835693359375,0.009385391138494015,0.0007150736055336893,-0.007324740290641785
1761506704422807800,4.222807861328125,0.01335216872394085,-0.00691488292068243,0.011216720566153526
1761506704432779500,4.232779541015625,0.01644846796989441,-0.0170394666492939,0.022741803899407387
1761506704442751700,4.242751708984375,0.02048821561038494,-0.02034018747508526,0.023285355418920517
1761506704452723700,4.2527236328125,0.021675797179341316,-0.019592026248574257,0.01987307332456112
1761506704462695700,4.26269580078125,0.018478672951459885,-0.007135089952498674,0.010297944769263268
1761506704472666600,4.27266650390625,0.01180901750922203,0.004461620468646288,0.005052394699305296
1761506704482638600,4.282638671875,0.008672612719237804,0.007956486195325851,0.002053675474599004
1761506704492610800,4.29261083984375,0.0019883066415786743,0.00550274271517992,-0.0036722670774906874
1761506704502582500,4.30258251953125,-0.0006993557326495647,-0.007203731685876846,-0.0023635895922780037
1761506704512554800,4.3125546875,-0.0060592335648834705,-0.012486644089221954,-0.0005861959652975202
1761506704522526700,4.322526611328125,-0.012018322944641113,-0.007701742462813854,0.008803311735391617
1761506704532497700,4.33249755859375,-0.014351865276694298,0.0036201924085617065,0.017269780859351158
1761506704542469600,4.3424697265625,-0.017241662368178368,0.014702137559652328,0.026257682591676712
1761506704552441600,4.352441650390625,-0.018414776772260666,0.016256123781204224,0.026032829657197
1761506704562413600,4.36241357421875,-0.016556154936552048,0.009929251857101917,0.01774241030216217
1761506704572385500,4.372385498046875,-0.016604861244559288,0.0032427292317152023,0.008961130864918232
1761506704582357800,4.382357666015625,-0.02088669128715992,0.0005255061550997198,-0.0035754332784563303
1761506704592329700,4.392329833984375,-0.02969571202993393,0.011830132454633713,-0.006634325720369816
1761506704602300700,4.40230078125,-0.03190506994724274,0.01836846023797989,-0.011148916557431221
1761506704612272600,4.412272705078125,-0.023046061396598816,0.024558590725064278,-0.003216997953131795
1761506704622244600,4.42224462890625,-0.014623280614614487,0.026810558512806892,0.005704591516405344
1761506704632216600,4.432216552734375,0.0007500569336116314,0.01465962827205658,0.015793439000844955
1761506704642188500,4.4421884765625,-0.005352310370653868,0.0017635368276387453,0.025708388537168503
1761506704652160800,4.452160888671875,-0.0009918049909174442,-0.011345237493515015,0.033535365015268326
1761506704662131500,4.46213134765625,0.0011927857995033264,-0.015435852110385895,0.03692956641316414
1761506704672103700,4.472103759765625,-0.0009363000281155109,-0.01029957551509142,0.028941893950104713
1761506704682075600,4.48207568359375,0.0007438887841999531,0.00016931095160543919,0.01917528361082077
1761506704692047600,4.492047607421875,0.0035334336571395397,0.008356945589184761,0.008915018290281296
1761506704702019600,4.50201953125,0.0033083967864513397,0.013569017872214317,-0.0021227197721600533
1761506704711991600,4.511991455078125,0.00470970943570137,0.01116173155605793,-0.00484430929645896
1761506704721963500,4.521963623046875,0.004455910064280033,0.010360652580857277,0.002514537191018462
1761506704731934500,4.5319345703125,0.0030185719951987267,-0.0023901720996946096,0.007269915193319321
1761506704741906700,4.54190673828125,0.00392564432695508,-0.005280767567455769,0.012788517400622368
1761506704751878700,4.551878662109375,0.0028917579911649227,-0.0035853362642228603,0.013144518248736858
1761506704761850600,4.5618505859375,0.0016166367568075657,0.002304244553670287,0.017414631322026253
1761506704771822600,4.571822509765625,0.001795593649148941,0.011341659352183342,0.015037307515740395
1761506704781794600,4.581794677734375,0.0013724174350500107,0.01328976172953844,0.008588729426264763
1761506704791765800,4.591765869140625,-0.00024140393361449242,0.01547191571444273,0.0042544174939394
1761506704801737500,4.601737548828125,0.0006438312120735645,0.01484447531402111,-0.002250086748972535
1761506704811709700,4.611709716796875,-0.004224096424877644,0.009274110198020935,-0.008156295865774155
1761506704821681700,4.621681640625,-0.009855085052549839,0.0011328270193189383,-0.008092912845313549
1761506704831653600,4.631653564453125,-0.013027094304561615,0.00009069184307008982,-0.0014752380084246397
1761506704841625600,4.64162548828125,-0.013710994273424149,0.00799735076725483,0.008284182287752628
1761506704851597600,4.65159765625,-0.013019362464547157,0.012948200106620789,0.01353159174323082
1761506704861568800,4.66156884765625,-0.010171111673116684,0.010677322745323181,0.019258718937635422
1761506704871540500,4.67154052734375,-0.008349087089300156,0.010915570892393589,0.01625312864780426
1761506704881512700,4.6815126953125,-0.009064946323633194,0.0034014624543488026,0.013262664899230003
1761506704891484700,4.691484619140625,-0.012958994135260582,0.000421909149736166,0.0041274940595030785
1761506704901456600,4.70145654296875,-0.017612867057323456,-0.003842344041913748,-0.0034153773449361324
1761506704911428600,4.7114287109375,-0.019573001191020012,-0.007748066913336515,-0.009626466780900955
1761506704921399600,4.721399658203125,-0.019487513229250908,-0.0023556984961032867,-0.016830850392580032
1761506704931371800,4.731371826171875,-0.0168004147708416,0.0015249103307724,-0.020557373762130737
1761506704941343500,4.741343505859375,-0.01723530888557434,0.002676993841305375,-0.013864316046237946
1761506704951315700,4.751315673828125,-0.012637855485081673,0.008116673678159714,-0.003638430032879114
1761506704961287700,4.76128759765625,-0.011214129626750946,0.009267691522836685,0.0013342243619263172
1761506704971259600,4.771259765625,-0.013645628467202187,0.009580853395164013,0.006802838295698166
1761506704981231600,4.781231689453125,-0.014861095696687698,0.0032696945127099752,0.0066507719457149506
1761506704991202600,4.79120263671875,-0.013701221905648708,-0.00874989666044712,-0.0023263702169060707
1761506705001174800,4.8011748046875,-0.016236282885074615,-0.007906474173069,-0.009295595809817314
1761506705011146500,4.811146484375,-0.010582201182842255,-0.007442485075443983,-0.014210793189704418
1761506705021118700,4.82111865234375,-0.010454636067152023,-0.001913496875204146,-0.01857837662100792
1761506705031090700,4.831090576171875,-0.008732909336686134,0.004344642162322998,-0.02133466862142086
1761506705041062700,4.841062744140625,-0.005513413809239864,0.012669683434069157,-0.014576897956430912
1761506705051034600,4.85103466796875,-0.0010881386697292328,0.0163800660520792,-0.009671157225966454
1761506705061005600,4.861005615234375,0.004091976210474968,0.012564288452267647,-0.00218874029815197
1761506705070977800,4.870977783203125,0.009306468069553375,-0.0007687059696763754,0.00665459455922246
1761506705080949500,4.880949462890625,0.011945393867790699,-0.0021412991918623447,0.007521187420934439
1761506705090921700,4.890921630859375,0.014041726477444172,-0.006270760670304298,0.01410533394664526
1761506705100893700,4.900893798828125,0.015361854806542397,-0.00321238674223423,0.0167812779545784
1761506705110865700,4.91086572265625,0.015230076387524605,0.0015625959495082498,0.008269080892205238
1761506705120836600,4.920836669921875,0.01989087462425232,0.0029748701490461826,0.0045121596194803715
1761506705130808600,4.93080859375,0.020395616069436073,0.002851764438673854,-0.002991229295730591
1761506705140780800,4.94078076171875,0.021196695044636726,-0.0008785253157839179,-0.007730857469141483
1761506705150752500,4.95075244140625,0.01863914169371128,-0.007369581144303083,-0.006525908596813679
1761506705160724700,4.960724853515625,0.01599036157131195,-0.011286024935543537,-0.0028499476611614227
1761506705170696700,4.97069677734375,0.013353840447962284,-0.011207967065274715,0.002165502170100808
1761506705180668700,4.980668701171875,0.008855228312313557,-0.006648102775216103,0.00257642799988389
1761506705190639600,4.9906396484375,0.007422177586704493,0.002870419528335333,0.001688038231804967
1761506705200611600,5.000611572265625,0.00024043116718530655,0.008150935173034668,0.0009298364166170359
1761506705210583800,5.010583740234375,-0.005402764771133661,0.0041120401583611965,-0.006740228738635778
1761506705220555500,5.020555419921875,-0.007563652936369181,0.0024994960986077785,-0.01109556294977665
1761506705230527700,5.03052783203125,-0.008581513538956642,0.0038864705711603165,-0.007339706178754568
1761506705240499700,5.040499755859375,-0.004992903675884008,0.004161841236054897,-0.0016938046319410205
1761506705250470700,5.050470703125,-0.006701055448502302,0.009592292830348015,0.00626372080296278
1761506705260442600,5.060442626953125,-0.009377531707286835,0.014049891382455826,0.014546949416399002
1761506705270414600,5.07041455078125,-0.00851738266646862,0.011224998161196709,0.02162933722138405
1761506705280386600,5.080386474609375,-0.007986614480614662,0.004615831188857555,0.023281561210751534
1761506705290358500,5.090358642578125,-0.003953592386096716,-0.0012064276961609721,0.023155752569437027
1761506705300330800,5.100330810546875,-0.001584178302437067,-0.0031457412987947464,0.019412945955991745
1761506705310302700,5.110302734375,0.0039023892022669315,-0.002869651187211275,0.015277296304702759
1761506705320273700,5.120273681640625,0.005656613036990166,0.002652146853506565,0.011818651109933853
1761506705330245600,5.13024560546875,0.00768388481810689,0.0055221691727638245,0.01358678936958313
1761506705340217600,5.140217529296875,0.007000251207500696,0.0051085809245705605,0.013311685062944889
1761506705350189600,5.150189453125,0.00800927635282278,0.000659578072372824,0.013911628164350986
1761506705360161500,5.16016162109375,0.00340387225151062,0.0029629459604620934,0.018028609454631805
1761506705370133800,5.1701337890625,-0.000042504165321588516,0.012898328714072704,0.019636424258351326
1761506705380104400,5.1801044921875,0.008412233553826809,-0.003681712783873081,0.018068354576826096
1761506705390076700,5.19007666015625,0.014426282607018948,-0.004213080741465092,0.015608994290232658
1761506705400048600,5.200048583984375,0.01252025831490755,-0.007452283054590225,0.004943034611642361
1761506705410020600,5.2100205078125,0.015684068202972412,-0.005184602923691273,0.0026612363290041685
1761506705419992600,5.21999267578125,0.01820208691060543,-0.00003458221908658743,0.006555310450494289
1761506705429964500,5.229964599609375,0.01867598295211792,0.006631980650126934,0.011843680404126644
1761506705439936500,5.2399365234375,0.014240222051739693,0.010211802087724209,0.01299150288105011
1761506705449907500,5.249907470703125,0.016545869410037994,0.0026234020479023457,0.01400705985724926
1761506705459879700,5.259879638671875,0.011524480767548084,-0.0037340959534049034,0.009872236289083958
1761506705469851600,5.2698515625,0.012110749259591103,-0.008268438279628754,0.006638881750404835
1761506705479823600,5.27982373046875,0.00598734337836504,-0.010663951747119427,0.0026374817825853825
1761506705489795600,5.289795654296875,0.0024694581516087055,-0.005773841869086027,0.0009384786244481802
1761506705499767600,5.299767578125,-0.0033783111721277237,0.0009972451953217387,0.005050665698945522
1761506705509738800,5.30973876953125,-0.006645773071795702,0.008321328088641167,0.008265671320259571
1761506705519710500,5.31971044921875,-0.0071126255206763744,0.009282196871936321,0.01243831217288971
1761506705529682700,5.3296826171875,-0.007998315617442131,0.000060283113270998,0.015105760656297207
1761506705539654700,5.339654541015625,-0.012904390692710876,-0.009758790954947472,0.006674458272755146
1761506705549626600,5.349626708984375,-0.019405974075198174,-0.016838571056723595,-0.0004851011326536536
1761506705559598600,5.3595986328125,-0.022404693067073822,-0.014503244310617447,-0.008476980961859226
1761506705569570600,5.369570556640625,-0.025265643373131752,-0.0041823177598416805,-0.01776481233537197
1761506705579541800,5.379541748046875,-0.029479296877980232,0.004680149722844362,-0.013453153893351555
1761506705589513500,5.389513427734375,-0.028141137212514877,0.013472079299390316,-0.0028620134107768536
1761506705599485700,5.399485595703125,-0.029873792082071304,0.01744551584124565,0.008282516151666641
1761506705609457700,5.409457763671875,-0.03158184140920639,0.009796996600925922,0.016918377950787544
1761506705619429600,5.4194296875,-0.038761723786592484,-0.010160733014345169,0.01628907211124897
1761506705629401600,5.429401611328125,-0.04449477419257164,-0.027365723624825478,0.007039765361696482
1761506705639373600,5.43937353515625,-0.049267157912254333,-0.029644059017300606,-0.00860257726162672
1761506705649344800,5.4493447265625,-0.04682251065969467,-0.013435082510113716,-0.019903922453522682
1761506705659316500,5.45931640625,-0.04469384625554085,0.011042030528187752,-0.020200064405798912
1761506705669288700,5.469288818359375,-0.04365454614162445,0.0278575848788023,-0.014306269586086273
1761506705679260700,5.4792607421875,-0.04041587561368942,0.03476822003722191,-0.0007814057171344757
1761506705689232600,5.489232666015625,-0.03601987287402153,0.031003493815660477,0.007961992174386978
1761506705699204600,5.49920458984375,-0.032021135091781616,0.014604281634092331,0.020280709490180016
1761506705709175600,5.509175537109375,-0.031452253460884094,-0.004489905200898647,0.02033500000834465
1761506705719147800,5.519147705078125,-0.032493285834789276,-0.01783367246389389,0.015455822460353374
1761506705729119500,5.529119384765625,-0.030951686203479767,-0.016157174482941628,0.007463688030838966
1761506705739091700,5.539091796875,-0.02989787608385086,-0.002741499338299036,-0.0021575135178864002
1761506705749063700,5.549063720703125,-0.02218010649085045,0.013945402577519417,-0.007860740646719933
1761506705759035600,5.55903564453125,-0.014235631562769413,0.024345314130187035,-0.011793963611125946
1761506705769007600,5.569007568359375,-0.006190562155097723,0.021262507885694504,-0.008694644086062908
1761506705778978600,5.578978515625,-0.0012714373879134655,0.007349355146288872,-0.00628501595929265
1761506705788950800,5.58895068359375,0.002529878169298172,-0.012042948976159096,-0.003954734653234482
1761506705798922500,5.598922607421875,0.005649771075695753,-0.023541413247585297,-0.001510751899331808
1761506705808894700,5.608894775390625,0.006252401042729616,-0.027520496398210526,-0.0014461423270404339
1761506705818866700,5.61886669921875,0.01414121687412262,-0.01863645762205124,0.0002502913121134043
1761506705828838700,5.628838623046875,0.014352061785757542,0.0004404846113175154,0.006128660403192043
1761506705838809900,5.638809814453125,0.01882936805486679,0.011977031826972961,0.009882918559014797
1761506705848781600,5.648781494140625,0.017945818603038788,0.008251645602285862,0.0045775799080729485
1761506705858753800,5.65875390625,0.017488019540905952,0.0008480578544549644,-0.00233252439647913
1761506705868725500,5.6687255859375,0.017340179532766342,-0.0063590118661522865,-0.006141831632703543
1761506705878697700,5.67869775390625,0.01648503914475441,-0.0018289746949449182,-0.008944276720285416
1761506705888669700,5.688669677734375,0.01742882840335369,0.00500121247023344,0.001600321615114808
1761506705898641700,5.6986416015625,0.01922459900379181,0.012116380035877228,0.014265783131122589
1761506705908612600,5.708612548828125,0.024295931681990623,0.016358239576220512,0.026231808587908745
1761506705918584600,5.71858447265625,0.021948087960481644,0.009039074182510376,0.029798580333590508
1761506705928556800,5.728556884765625,0.019655823707580566,0.0019428536761552095,0.030667584389448166
1761506705938528500,5.738528564453125,0.018619321286678314,0.00146801199298352,0.027300817891955376
1761506705948500700,5.748500732421875,0.01862141862511635,0.005570851732045412,0.018237892538309097
1761506705958472700,5.75847265625,0.017769206315279007,0.015059428289532661,0.01151181384921074
1761506705968443600,5.768443603515625,0.013534853234887123,0.02168983221054077,0.008315022103488445
1761506705978415600,5.77841552734375,0.008636767975986004,0.025619061663746834,0.004082992672920227
1761506705988387600,5.7883876953125,0.006851724348962307,0.024556394666433334,0.006865796633064747
1761506705998359800,5.79835986328125,0.007978507317602634,0.01603987067937851,0.010549214668571949
1761506706008331500,5.80833154296875,0.005566112697124481,0.005813255440443754,0.014854451641440392
1761506706018303700,5.8183037109375,0.008530211634933949,0.0006674955366179347,0.010465828701853752
1761506706028275700,5.828275634765625,0.008519967086613178,0.000513282313477248,0.010373592376708984
1761506706038246700,5.83824658203125,0.01049070619046688,0.0042619481682777405,0.008839611895382404
1761506706048218600,5.848218505859375,0.01141726691275835,0.008523739874362946,0.00413173995912075
1761506706058190600,5.858190673828125,0.008589522913098335,0.011068124324083328,0.0003737534862011671
1761506706068162600,5.86816259765625,0.011076193302869797,0.011582727544009686,-0.000673641508910805
1761506706078134500,5.878134521484375,0.01196515653282404,0.009113444946706295,-0.003535474417731166
1761506706088106800,5.888106689453125,0.012499876320362091,0.004770305473357439,0.0004996422212570906
1761506706098077400,5.898077392578125,0.013385909609496593,0.0003609098494052887,0.0022842264734208584
1761506706108049700,5.908049560546875,0.012958209961652756,-0.007124288007616997,0.00326822348870337
1761506706118021600,5.918021728515625,0.009592507034540176,-0.008273708634078503,0.0006239706417545676
1761506706127993600,5.92799365234375,0.009220949374139309,-0.006049372721463442,0.001096084713935852
1761506706137965600,5.937965576171875,0.0055833375081419945,0.0035081799142062664,0.0018055508844554424
1761506706147937500,5.9479375,0.00785489846020937,0.012219393625855446,0.006352991797029972
1761506706157909500,5.957909423828125,0.0022127251140773296,0.013517684303224087,0.009334933012723923
1761506706167880400,5.96788037109375,-0.0011818730272352695,0.005657415371388197,0.007995637133717537
1761506706177852700,5.977852783203125,-0.006061583291739225,-0.0024026415776461363,-0.0021147881634533405
1761506706187824600,5.98782470703125,-0.006419559475034475,-0.004067859146744013,-0.0042634885758161545
1761506706197796600,5.997796630859375,-0.0025816778652369976,-0.0019868649542331696,-0.012320350855588913
1761506706207768600,6.0077685546875,-0.004166069906204939,-0.00113686453551054,-0.015208841301500797
1761506706217740500,6.017740478515625,-0.006194333080202341,0.0019180475501343608,-0.004959665238857269
1761506706227711700,6.027711669921875,-0.008125212043523788,0.0007352309767156839,0.0037443991750478745
1761506706237683500,6.037683349609375,-0.01186375692486763,-0.0022341934964060783,0.012191945686936378
1761506706247655700,6.04765576171875,-0.015934579074382782,-0.007825393229722977,0.009348167106509209
1761506706257627600,6.057627685546875,-0.016019001603126526,-0.017682019621133804,0.00013789127115160227
1761506706267599600,6.067599609375,-0.018406447023153305,-0.02039649710059166,-0.019623003900051117
1761506706277571600,6.077571533203125,-0.018242929130792618,-0.0169218722730875,-0.030699091032147408
1761506706287543600,6.08754345703125,-0.020115703344345093,-0.007992200553417206,-0.032968249171972275
1761506706297514800,6.0975146484375,-0.023852385580539703,0.0038958843797445297,-0.02825072593986988
1761506706307486500,6.107486572265625,-0.024647753685712814,0.012284031137824059,-0.01886131428182125
1761506706317458700,6.117458740234375,-0.020037822425365448,0.008507401682436466,0.0029446494299918413
1761506706327430700,6.1274306640625,-0.014627842232584953,0.009087462909519672,0.016018826514482498
1761506706337402600,6.137402587890625,-0.013894673436880112,0.000831131124868989,0.023344650864601135
1761506706347374600,6.14737451171875,-0.01205736305564642,-0.011311432346701622,0.029840407893061638
1761506706357345500,6.157345458984375,-0.014091487042605877,-0.014223332516849041,0.022418444976210594
1761506706367317800,6.16731787109375,-0.014857831411063671,-0.010413307696580887,0.01242301519960165
1761506706377289500,6.17728955078125,-0.019418761134147644,-0.003417716361582279,-0.004361824132502079
1761506706387261700,6.18726171875,-0.02018415555357933,0.01216656994074583,-0.018210794776678085
1761506706397233700,6.197233642578125,-0.019776158034801483,0.016311513260006905,-0.021933894604444504
1761506706407205600,6.20720556640625,-0.016603752970695496,0.016866983845829964,-0.01850474253296852
1761506706417177600,6.217177490234375,-0.014414900913834572,0.004911254625767469,-0.012714497745037079
1761506706427148500,6.2271484375,-0.01469050906598568,-0.00885394774377346,-0.0037961420603096485
1761506706437120800,6.237120849609375,-0.010702958330512047,-0.01655794121325016,0.014055026695132256
1761506706447092500,6.247092529296875,-0.007717016618698835,-0.01824037916958332,0.01818474940955639
1761506706457064700,6.257064697265625,-0.0007587098516523838,-0.016892552375793457,0.013638467527925968
1761506706467036700,6.26703662109375,0.0001908186823129654,-0.0054959808476269245,0.009781092405319214
1761506706477008600,6.277008544921875,0.0003282381221652031,0.004117764066904783,-0.005989614874124527
1761506706486980600,6.286980712890625,0.003053042571991682,0.0036344192922115326,-0.012929989024996758
1761506706496951600,6.29695166015625,0.0016543501988053322,0.0011321129277348518,-0.015448540449142456
1761506706506923800,6.306923828125,0.004512368701398373,-0.004998329561203718,-0.013400780037045479
1761506706516895500,6.3168955078125,0.003964290488511324,-0.006852422375231981,-0.008729594759643078
1761506706526867700,6.32686767578125,0.005267680156975985,-0.003617839887738228,-0.009233585558831692
1761506706536839700,6.336839599609375,0.010813713073730469,-0.004311326891183853,-0.00084329629316926
1761506706546811600,6.346811767578125,0.01382768526673317,-0.0007022778736427426,0.003886278485879302
1761506706556782800,6.356782958984375,0.014413313940167427,-0.00177766231354326,0.011231009848415852
1761506706566754600,6.366754638671875,0.013120805844664574,-0.0015503078466281295,0.010663997381925583
1761506706576726800,6.376726806640625,0.008371856063604355,-0.0013266023015603423,0.011976136825978756
1761506706586698000,6.386697998046875,0.0063404059037566185,0.0011008968576788902,0.010340075939893723
1761506706596670200,6.396670166015625,0.009021143428981304,0.00628687022253871,0.00745107838883996
1761506706606642000,6.406641845703125,0.011144640855491161,0.007195053622126579,0.001399853965267539
1761506706616614100,6.4166142578125,0.012368629686534405,0.007777220569550991,-0.007229320704936981
1761506706626585000,6.426585205078125,0.010114551521837711,0.00465531088411808,-0.012685826979577541
1761506706636557000,6.43655712890625,0.009881525300443172,0.0010643042623996735,-0.012932968325912952
1761506706646529000,6.446529052734375,0.007937499321997166,0.001814742456190288,-0.0041397567838430405
1761506706656501000,6.4565009765625,0.008523927070200443,0.0053985584527254105,0.0040979329496622086
1761506706666473200,6.46647314453125,0.012127531692385674,0.007315996568650007,0.012528421357274055
1761506706676445000,6.47644482421875,0.014710798859596252,-0.0017541975248605013,0.016150586307048798
1761506706686416100,6.486416015625,0.018640898168087006,-0.0071309213526546955,0.009010186418890953
1761506706696388000,6.49638818359375,0.018754348158836365,-0.007267541717737913,0.002413003472611308
1761506706706360000,6.506360107421875,0.01528144534677267,-0.00396173819899559,-0.005393431521952152
1761506706716332000,6.51633203125,0.014024965465068817,-0.00041653774678707123,-0.011812981218099594
1761506706726304000,6.526303955078125,0.015709251165390015,0.004860586952418089,-0.011300291866064072
1761506706736276200,6.536276123046875,0.016090350225567818,0.005910138599574566,-0.004834403283894062
1761506706746248000,6.546248046875,0.019693683832883835,-0.0019146810518577695,0.0028517721220850945
1761506706756219100,6.55621923828125,0.014899196103215218,-0.010481538251042366,0.009371190331876278
1761506706766191000,6.566191162109375,0.016091488301753998,-0.013109159655869007,0.012022142298519611
1761506706776163000,6.5761630859375,0.01657698303461075,-0.015420783311128616,0.009568039327859879
1761506706786135000,6.586135009765625,0.017440499737858772,-0.011011519469320774,0.002775512170046568
1761506706796107000,6.59610693359375,0.012238813564181328,-0.010878893546760082,-0.000984072219580412
1761506706806079200,6.606079345703125,0.008613417856395245,-0.012778816744685173,-0.011612669564783573
1761506706816050200,6.61605029296875,0.008840318769216537,-0.008499648422002792,-0.015677718445658684
1761506706826022100,6.626022216796875,0.007190602831542492,-0.0035745608620345592,-0.011636956594884396
1761506706835994000,6.635994140625,0.0053911046124994755,-0.0018685398390516639,-0.006964973174035549
1761506706845966000,6.645966064453125,0.006278388202190399,-0.005540469195693731,-0.0026985742151737213
1761506706855938000,6.65593798828125,0.007088521495461464,-0.012727541849017143,0.004812338855117559
1761506706865910000,6.665909912109375,0.006278611719608307,-0.015166250988841057,0.008459432050585747
1761506706875882200,6.67588232421875,0.006320956163108349,-0.017928747460246086,0.0024998104199767113
1761506706885853000,6.68585302734375,0.006515981163829565,-0.027058104053139687,-0.004150915890932083
1761506706895825200,6.6958251953125,0.011541100218892097,-0.03241797909140587,-0.002234505023807287
1761506706905797000,6.705797119140625,0.009936966001987457,-0.028695788234472275,0.00033256830647587776
1761506706915769000,6.71576904296875,-0.002427824307233095,-0.02350209280848503,0.0029467272106558084
1761506706925741000,6.725740966796875,-0.005230414681136608,-0.014960928820073605,-0.003384807612746954
1761506706935713000,6.735713134765625,0.0031995554454624653,-0.007296085823327303,-0.010073070414364338
1761506706945685200,6.745685302734375,0.013158252462744713,-0.0012161583872511983,-0.01758524589240551
1761506706955656000,6.755656005859375,0.015358023345470428,-0.003734443336725235,-0.027972906827926636
1761506706965628200,6.765628173828125,0.017741478979587555,-0.0073711867444217205,-0.023078884929418564
1761506706975600000,6.77560009765625,0.015196563675999641,-0.0131286745890975,-0.009764942340552807
1761506706985572000,6.785572021484375,0.01360627356916666,-0.01520699355751276,0.006234358064830303
1761506706995544000,6.7955439453125,0.014510950073599815,-0.022834021598100662,0.01767503097653389
1761506707005516000,6.80551611328125,0.013821444474160671,-0.026908567175269127,0.023799093440175056
1761506707015487000,6.815487060546875,0.020838074386119843,-0.023593731224536896,0.020615018904209137
1761506707025459000,6.825458984375,0.02432709001004696,-0.017986951395869255,0.01369364745914936
1761506707035431200,6.83543115234375,0.02378034219145775,-0.014212186448276043,-0.0031524442601948977
1761506707045403000,6.84540283203125,0.01762452721595764,-0.010449175722897053,-0.020358078181743622
1761506707055375000,6.855375,0.012154129333794117,-0.010225736536085606,-0.028635449707508087
1761506707065347000,6.86534716796875,0.006973220966756344,-0.008751258254051208,-0.026123598217964172
1761506707075319000,6.875319091796875,0.006138319615274668,-0.009863927029073238,-0.018801502883434296
1761506707085290000,6.8852900390625,0.007345903664827347,-0.004692649003118277,-0.0016062805661931634
1761506707095262000,6.895261962890625,0.004529078025370836,-0.0004880499327555299,0.011997679248452187
1761506707105234200,6.905234130859375,0.006759884301573038,-0.006969135254621506,0.019107162952423096
1761506707115206000,6.915205810546875,0.0045089805498719215,-0.009140144102275372,0.018423795700073242
1761506707125178000,6.92517822265625,0.004953586030751467,-0.005898794624954462,0.00900694914162159
1761506707135150000,6.935150146484375,0.006046281196177006,0.0026922968681901693,0.0028121701907366514
1761506707145121000,6.94512109375,0.007332428824156523,0.012730506248772144,-0.00022890500258654356
1761506707155093000,6.955093017578125,0.006393664516508579,0.017874935641884804,0.001676853047683835
1761506707165065000,6.96506494140625,0.011237839236855507,0.01739557832479477,0.007286096923053265
1761506707175037200,6.975037109375,0.00881755817681551,0.010382144711911678,0.014103256165981293
1761506707185009000,6.9850087890625,0.014319416135549545,0.00721327681094408,0.017643848434090614
1761506707194981000,6.994981201171875,0.01542649231851101,0.0006661616498604417,0.01971951685845852
1761506707204952800,7.004952880859375,0.012674961239099503,-0.0038546205032616854,0.015353862196207047
1761506707214924000,7.014924072265625,0.014823067933321,-0.004313482902944088,0.010601983405649662
1761506707224896000,7.02489599609375,0.013609929010272026,-0.002759575843811035,0.002600673120468855
1761506707234868000,7.034867919921875,0.010403749532997608,-0.0007560796802863479,0.00235939072445035
1761506707244840200,7.044840087890625,0.005995380692183971,0.00009063177276402712,-0.003358828602358699
1761506707254812000,7.05481201171875,-0.000027091708034276962,-0.003629271872341633,-0.008754925802350044
1761506707264784100,7.0647841796875,-0.004125440027564764,-0.00212701503187418,-0.014878781512379646
1761506707274755800,7.074755859375,-0.009217670187354088,-0.005323607474565506,-0.017704661935567856
1761506707284727000,7.08472705078125,-0.00907035730779171,-0.0058709802106022835,-0.012705495581030846
1761506707294699000,7.094698974609375,-0.01593678630888462,-0.007398835849016905,-0.004603094421327114
1761506707304671000,7.1046708984375,-0.020428914576768875,-0.005016370676457882,0.0053863232024014
1761506707314643200,7.114643310546875,-0.028657816350460052,0.0005637509748339653,0.012348625808954239
1761506707324615000,7.124614990234375,-0.029254568740725517,0.01128366682678461,0.011481652036309242
1761506707334587100,7.134587158203125,-0.033630941063165665,0.020770646631717682,-0.0006101644248701632
1761506707344558000,7.14455810546875,-0.030198629945516586,0.027050646021962166,-0.010176235809922218
1761506707354530000,7.154530029296875,-0.024341806769371033,0.029279178008437157,-0.015880461782217026
1761506707364502000,7.164501953125,-0.018084818497300148,0.023337436839938164,-0.021244321018457413
1761506707374474000,7.174473876953125,-0.015444295480847359,0.010290345177054405,-0.02622310072183609
1761506707384446200,7.1844462890625,-0.011917440220713615,0.005475766025483608,-0.0222781989723444
1761506707394418000,7.19441796875,-0.0032568401657044888,0.0118090296164155,-0.007643330842256546
1761506707404390100,7.20439013671875,0.009612481109797955,0.015434816479682922,0.005491696298122406
1761506707414361000,7.214361083984375,0.017234714701771736,0.01566757634282112,0.012721912935376167
1761506707424333000,7.2243330078125,0.019287019968032837,0.006422610953450203,0.016768652945756912
1761506707434305000,7.234304931640625,0.026016296818852425,-0.006354436744004488,0.009085167199373245
1761506707444277000,7.244277099609375,0.030588217079639435,-0.014685671776533127,-0.0025826068595051765
1761506707454249200,7.254249267578125,0.0375228226184845,-0.01897815428674221,-0.015014775097370148
1761506707464221000,7.264220947265625,0.04619540274143219,-0.014270363375544548,-0.0204172246158123
1761506707474192100,7.274192138671875,0.05231614410877228,-0.013637596741318703,-0.016945794224739075
1761506707484164000,7.2841640625,0.050769880414009094,-0.013950545340776443,-0.010610319674015045
1761506707494136000,7.294135986328125,0.04191646724939346,-0.011236252263188362,0.006559345871210098
1761506707504108000,7.30410791015625,0.03129361569881439,-0.014034727588295937,0.019684281200170517
1761506707514080000,7.314080078125,0.022935284301638603,-0.0252373144030571,0.019478686153888702
1761506707524052200,7.32405224609375,0.016013622283935547,-0.030422179028391838,0.01304689608514309
1761506707534024000,7.33402392578125,0.015268202871084213,-0.024684131145477295,-0.003070554696023464
1761506707543995100,7.3439951171875,0.009370172396302223,-0.01755118928849697,-0.016782304272055626
1761506707553967000,7.353967041015625,-0.0004587564617395401,-0.00908739771693945,-0.023688945919275284
1761506707563939000,7.36393896484375,-0.009815815836191177,-0.0019642962142825127,-0.02398306503891945
1761506707573911000,7.3739111328125,-0.01945166476070881,-0.0017027737339958549,-0.022830715402960777
1761506707583883300,7.38388330078125,-0.038468267768621445,0.0032999496906995773,-0.021723026409745216
1761506707593855500,7.39385546875,-0.042327187955379486,-0.00623789569362998,-0.01886305771768093
1761506707603826200,7.403826171875,-0.035505764186382294,-0.010033432394266129,-0.01903616264462471
1761506707613798400,7.41379833984375,-0.03067692369222641,-0.01773635856807232,-0.025691136717796326
1761506707623770400,7.423770263671875,-0.03500257432460785,-0.0281158909201622,-0.03285863623023033
1761506707633742300,7.433742431640625,-0.040506795048713684,-0.03497273102402687,-0.04650121182203293
1761506707643714300,7.44371435546875,-0.04710506275296211,-0.033517904579639435,-0.05309183895587921
1761506707653686300,7.453686279296875,-0.05473901331424713,-0.025084741413593292,-0.061544179916381836
1761506707663658500,7.463658447265625,-0.052829887717962265,-0.020164327695965767,-0.06804613023996353
1761506707673629200,7.473629150390625,-0.05016592890024185,-0.009043233469128609,-0.0736403688788414
1761506707683601400,7.483601318359375,-0.04666878655552864,-0.008646029978990555,-0.0708652213215828
1761506707693573400,7.493573486328125,-0.04880916699767113,-0.009573609568178654,-0.06953444331884384
1761506707703545300,7.50354541015625,-0.04749132692813873,-0.013082901015877724,-0.06707689166069031
1761506707713517300,7.513517333984375,-0.044620707631111145,-0.023564036935567856,-0.05690094456076622
1761506707723489300,7.5234892578125,-0.045272886753082275,-0.028861183673143387,-0.04642517492175102
1761506707733461500,7.53346142578125,-0.034183748066425323,-0.022711412981152534,-0.040189385414123535
1761506707743432200,7.54343212890625,-0.005516063887625933,-0.008065251633524895,-0.0428941436111927
1761506707753404400,7.553404296875,0.021151499822735786,0.007111038081347942,-0.04533493146300316
1761506707763376400,7.56337646484375,0.03750208765268326,0.018057534471154213,-0.047980569303035736
1761506707773348400,7.573348388671875,0.05600333586335182,0.021098598837852478,-0.04268913343548775
1761506707783320300,7.5833203125,0.06746432185173035,0.014579792506992817,-0.02488587610423565
1761506707793292300,7.593292236328125,0.07179169356822968,0.011673484928905964,-0.0006849318742752075
1761506707803263500,7.603263427734375,0.07281455397605896,0.004459732677787542,0.022157158702611923
1761506707813235200,7.613235107421875,0.07906472682952881,-0.004535892978310585,0.03183828294277191
1761506707823207400,7.62320751953125,0.08106812834739685,-0.0009628413245081902,0.03905151039361954
1761506707833179400,7.633179443359375,0.08751112222671509,0.009198715910315514,0.03966190665960312
1761506707843151400,7.6431513671875,0.08891145139932632,0.022596601396799088,0.02814250811934471
1761506707853123300,7.653123291015625,0.08293638378381729,0.0342940017580986,0.026280159130692482
1761506707863095300,7.66309521484375,0.07581877708435059,0.042354803532361984,0.03324315696954727
1761506707873066500,7.67306640625,0.07158806920051575,0.04997410997748375,0.04190348833799362
1761506707883038200,7.6830380859375,0.06686606258153915,0.04824429377913475,0.055090807378292084
1761506707893010400,7.693010498046875,0.06572490185499191,0.044491369277238846,0.05993110314011574
1761506707902982400,7.702982421875,0.06267349421977997,0.036978378891944885,0.06306921690702438
1761506707912954400,7.712954345703125,0.05592956766486168,0.029804887250065804,0.0653185173869133
1761506707922926300,7.72292626953125,0.04009015113115311,0.03244008496403694,0.057946622371673584
1761506707932897300,7.732897216796875,0.030219411477446556,0.03597463294863701,0.04583510011434555
1761506707942869500,7.742869384765625,0.013646071776747704,0.04046531394124031,0.032885052263736725
1761506707952841200,7.75284130859375,0.002705539111047983,0.04022429510951042,0.020725587382912636
1761506707962813400,7.7628134765625,-0.009935997426509857,0.03621937707066536,0.0031928294338285923
1761506707972785400,7.772785400390625,-0.014773096889257431,0.024715319275856018,0.0012463252060115337
1761506707982757400,7.78275732421875,-0.017195740714669228,0.01750936359167099,0.004360813647508621
1761506707992728600,7.792728515625,-0.019337987527251244,0.01593596860766411,0.013951389119029045
1761506708002700300,7.8027001953125,-0.020876765251159668,0.012803411111235619,0.021094826981425285
1761506708012672500,7.812672607421875,-0.024666177108883858,0.003354781772941351,0.023847203701734543
1761506708022644200,7.822644287109375,-0.03202442079782486,-0.006600323133170605,0.017882628366351128
1761506708032616400,7.832616455078125,-0.03732837364077568,-0.018320096656680107,0.009331750683486462
1761506708042588400,7.84258837890625,-0.040062375366687775,-0.01481777336448431,0.00382273574359715
1761506708052560400,7.852560302734375,-0.03950763866305351,-0.007655467838048935,0.011131515726447105
1761506708062531600,7.862531494140625,-0.038617487996816635,0.0033264728263020515,0.015726132318377495
1761506708072503300,7.87250341796875,-0.04255683720111847,0.011559102684259415,0.021269768476486206
1761506708082475500,7.8824755859375,-0.04375000670552254,0.014595437794923782,0.028613902628421783
1761506708092447200,7.892447265625,-0.04954983666539192,0.012703528627753258,0.027525201439857483
1761506708102419500,7.90241943359375,-0.04954412207007408,0.0017619505524635315,0.02501978911459446
1761506708112391400,7.912391357421875,-0.04995850846171379,-0.010272341780364513,0.014396706596016884
1761506708122363400,7.92236328125,-0.05340141803026199,-0.02637488581240177,-0.003824904328212142
1761506708132334600,7.93233447265625,-0.056839823722839355,-0.04025847464799881,-0.022600987926125526
1761506708142306300,7.942306396484375,-0.051976386457681656,-0.04083877429366112,-0.03437908738851547
1761506708152278500,7.952278564453125,-0.04494138062000275,-0.030093450099229813,-0.03612186014652252
1761506708162250200,7.962250244140625,-0.041260287165641785,-0.015910590067505836,-0.032492171972990036
1761506708172222500,7.972222412109375,-0.04111141711473465,-0.0007990143494680524,-0.021526873111724854
1761506708182194400,7.9821943359375,-0.038518305867910385,0.007013339549303055,-0.011745531111955643
1761506708192165400,7.992165283203125,-0.029610030353069305,0.007242371328175068,-0.0008699806639924645
1761506708202137300,8.002137451171874,-0.022735197097063065,0.006495900917798281,0.005354452878236771
1761506708212109300,8.012109375,-0.021670997142791748,0.009273577481508255,-0.0029578055255115032
1761506708222081500,8.02208154296875,-0.0011829040013253689,-0.002683050464838743,-0.017658671364188194
1761506708232053200,8.03205322265625,0.013349433429539204,-0.0019341696752235293,-0.021283766254782677
1761506708242025500,8.042025390625,0.027319204062223434,-0.006160556338727474,-0.023780470713973045
1761506708251997400,8.05199755859375,0.0355403833091259,-0.005874000024050474,-0.01421066839247942
1761506708261968400,8.061968505859374,0.04419955983757973,-0.0025743460282683372,-0.0024082371965050697
1761506708271940400,8.0719404296875,0.051987174898386,-0.003721103072166443,0.009014060720801353
1761506708281912300,8.081912353515625,0.05908749997615814,-0.006133075337857008,0.01227361150085926
1761506708291884500,8.091884521484374,0.07227519899606705,-0.008794904686510563,0.006637830287218094
1761506708301856300,8.101856201171875,0.08299275487661362,-0.005124615505337715,0.0096205435693264
1761506708311828500,8.111828369140625,0.09083975851535797,-0.0061997342854738235,0.00865727849304676
1761506708321799200,8.121799072265626,0.09042423218488693,-0.014814049005508423,0.010859871283173561
1761506708331771400,8.131771484375,0.08387579023838043,-0.022664781659841537,0.004281597211956978
1761506708341743400,8.141743408203125,0.07926102727651596,-0.03772977739572525,-0.017269687727093697
1761506708351715300,8.15171533203125,0.07325879484415054,-0.03952261805534363,-0.034890759736299515
1761506708361687300,8.161687255859375,0.07023576647043228,-0.031758781522512436,-0.05655187368392944
1761506708371659300,8.1716591796875,0.06697925180196762,-0.017665866762399673,-0.0644148588180542
1761506708381631500,8.181631591796876,0.06560323387384415,0.0019381017191335559,-0.05286005139350891
1761506708391602200,8.191602294921875,0.0688224658370018,0.006139770615845919,-0.0402664951980114
1761506708401574400,8.201574462890624,0.06544812768697739,0.003567052772268653,-0.018326791003346443
1761506708411546400,8.21154638671875,0.057908717542886734,-0.010872339829802513,-0.00019386003259569407
1761506708421518300,8.221518310546875,0.052374668419361115,-0.01831720769405365,0.008409748785197735
1761506708431490300,8.231490234375,0.041783545166254044,-0.023214761167764664,0.008702962659299374
1761506708441462300,8.241462158203126,0.04041973128914833,-0.017655707895755768,0.0008515131194144487
1761506708451433500,8.25143359375,0.036948300898075104,0.0009179759654216468,-0.013003848493099213
1761506708461405200,8.2614052734375,0.03148147836327553,0.016755515709519386,-0.0167147908359766
1761506708471377400,8.27137744140625,0.030552035197615623,0.01506201084703207,-0.01815103366971016
1761506708481349400,8.281349365234375,0.023962106555700302,0.009688152931630611,-0.013614935800433159
1761506708491321300,8.2913212890625,0.013696685433387756,0.003153553931042552,-0.0038288843352347612
1761506708501293300,8.301293212890625,0.007862968370318413,-0.008004958741366863,0.0036802291870117188
1761506708511265300,8.311265380859375,0.0012561986222863197,-0.010307527147233486,0.010495258495211601
1761506708521236500,8.321236572265626,-0.00397596275433898,-0.0066464669071137905,0.017474431544542313
1761506708531208200,8.331208251953125,-0.007928093895316124,-0.0020218873396515846,0.015488245524466038
1761506708541180400,8.341180419921875,-0.011817023158073425,0.008775211870670319,0.014330780133605003
1761506708551152400,8.35115234375,-0.01707996241748333,0.00950491800904274,0.008227880112826824
1761506708561124400,8.361124267578125,-0.022640220820903778,0.009770064614713192,0.0007809351664036512
1761506708571096300,8.371096435546875,-0.030368182808160782,0.005838439334183931,-0.005167501512914896
1761506708581069800,8.38106982421875,-0.03705858439207077,0.004078323487192392,-0.011519324034452438
1761506708591041800,8.391041748046876,-0.03580503165721893,0.010705865919589996,-0.0060670338571071625
1761506708601014000,8.401013916015625,-0.03475966304540634,0.019806917756795883,-0.0002885221620090306
1761506708610984700,8.410984619140624,-0.03528696671128273,0.02243945002555847,0.016737865284085274
1761506708620957000,8.42095703125,-0.03841846436262131,0.018735099583864212,0.025284696370363235
1761506708630929000,8.430928955078125,-0.03891461342573166,0.014051396399736404,0.028667444363236427
1761506708640900900,8.44090087890625,-0.0388655811548233,0.005649534519761801,0.017859498038887978
1761506708650872800,8.450872802734375,-0.03573183715343475,0.006900687702000141,0.010045517235994339
1761506708660844800,8.4608447265625,-0.02696223370730877,0.01407280657440424,0.0024222044739872217
1761506708670816000,8.47081591796875,-0.019579418003559113,0.015112505294382572,-0.002269220072776079
1761506708680787700,8.48078759765625,-0.01497877761721611,0.009832136332988739,0.001723352586850524
1761506708690760000,8.490760009765625,-0.014633366838097572,0.004926326684653759,0.008069399744272232
1761506708700732000,8.50073193359375,-0.016172587871551514,-0.018727494403719902,0.008727943524718285
1761506708710703900,8.510703857421875,-0.02036626636981964,-0.03983171284198761,0.0017627121414989233
1761506708720675800,8.52067578125,-0.016763586550951004,-0.04681431129574776,-0.007813587784767151
1761506708730647800,8.530647705078126,-0.01572335511445999,-0.04040301591157913,-0.01881377398967743
1761506708740619000,8.540618896484375,-0.015264596790075302,-0.021709565073251724,-0.019893184304237366
1761506708750590700,8.5505908203125,-0.016668349504470825,0.006078656762838364,-0.013791083358228207
1761506708760563000,8.56056298828125,-0.014457974582910538,0.027836062014102936,0.00442704651504755
1761506708770535000,8.570534912109375,-0.00875375047326088,0.03317916393280029,0.03027728572487831
1761506708780507000,8.5805068359375,-0.0071675642393529415,0.02439076080918312,0.046348314732313156
1761506708790478800,8.590478759765626,-0.0055238609202206135,-0.0034760236740112305,0.08421580493450165
1761506708800449800,8.60044970703125,0.024173546582460403,-0.07955510169267654,0.19738824665546417
1761506708810422000,8.610422119140624,0.012379204854369164,-0.18645839393138885,0.22346697747707367
1761506708820393700,8.620393798828125,-0.034641850739717484,-0.20549577474594116,0.1571914404630661
1761506708830366000,8.630365966796875,-0.049030907452106476,-0.13294674456119537,0.04120626300573349
1761506708840338000,8.640337890625,-0.06737067550420761,0.008947796188294888,-0.12013426423072815
1761506708850310000,8.650309814453125,-0.06200573593378067,0.1752169281244278,-0.26382777094841003
1761506708860281900,8.66028173828125,0.011701846495270729,0.2886567711830139,-0.3018038868904114
