time,seconds_elapsed,z,y,x
1761468574333096700,0.0630966796875,-0.09538988074362277,-0.1452555892832577,0.06604184038005768
1761468574343052000,0.073052001953125,-0.2213257063984871,-0.10195216186866164,-0.07615304615832864
1761468574353006800,0.0830068359375,-0.3339747649788856,-0.050135173130780454,-0.20773937185555696
1761468574362961700,0.092961669921875,-0.4565653718590736,-0.039299160209298134,-0.27306276176795363
1761468574372916700,0.102916748046875,-0.537444496691227,-0.038942601856589314,-0.28508023955896494
1761468574382871800,0.112871826171875,-0.5532967303395271,0.03491685347184539,-0.22618359475843608
1761468574392827600,0.12282763671875,-0.49493981843888757,0.07341784904077649,-0.09164974436722695
1761468574402783200,0.132783203125,-0.3729892630279064,0.12211334475725888,0.04608326739147305
1761468574412738000,0.142738037109375,-0.25720658259689805,0.1322862175948918,0.1008393052559346
1761468574422693000,0.152693115234375,-0.175444829711318,0.11919336565732955,0.07709704901017249
1761468574432648000,0.16264794921875,-0.12890695042014122,0.13077259816154838,0.060156800929456945
1761468574442603000,0.17260302734375,-0.08805237746238707,0.1598435020841658,0.035650866834819314
1761468574452559000,0.18255908203125,-0.06066811145246029,0.17235577765479682,-0.0018164748374372719
1761468574462514200,0.19251416015625,-0.07149813302457332,0.1615432917393744,-0.00908412775285542
1761468574472469000,0.202468994140625,-0.09347790964245796,0.15601619888097046,-0.015001462037861346
1761468574482424000,0.212424072265625,-0.060923547518253324,0.17197598455697297,-0.04411145586185157
1761468574492379000,0.22237890625,-0.001855272477865219,0.16859496381655334,-0.03599902268536389
1761468574502334200,0.232334228515625,0.027671266257762908,0.1143142153136432,-0.0416745841037482
1761468574512290000,0.2422900390625,0.07583762353360653,0.09982026440650224,-0.025002339309453964
1761468574522245000,0.2522451171875,0.13679974949657916,0.09624372109398245,-0.0021242986775934693
1761468574532200200,0.2622001953125,0.2259136187106371,0.08167188264504074,0.03428125898204744
1761468574542155000,0.272155029296875,0.2592366271197796,0.05434051586613059,0.04277538495250046
1761468574552110000,0.282110107421875,0.20029168619811533,0.026883038489520547,-0.030058745916187762
1761468574562065200,0.292065185546875,0.08405190964937209,0.04247515989691019,-0.10599727254100143
1761468574572020000,0.30202001953125,0.025697335836291312,0.05732026232928037,-0.14535013569891453
1761468574581976000,0.31197607421875,0.0890402194559574,0.08071253609359264,-0.15782200619392095
1761468574591931100,0.32193115234375,0.19654899253845215,0.06406622945815324,-0.11350085310414433
1761468574601886000,0.331885986328125,0.17356500731408595,0.051442894728481764,-0.11099091610983014
1761468574611841000,0.341841064453125,0.06357201620042324,0.023985855743288993,-0.15232194747291505
1761468574621796000,0.351796142578125,-0.07461947991549968,-0.015259382321685552,-0.18989896006472406
1761468574631751200,0.361751220703125,-0.12409107457101344,-0.018599924921244383,-0.20023089592158794
1761468574641707000,0.37170703125,-0.11726444342136383,-0.022781302259117363,-0.18296251186504958
1761468574651662000,0.381662109375,-0.0649509033381939,-0.023908991114795206,-0.16820084993243217
1761468574661617200,0.3916171875,-0.026912556844949722,-0.0416826943449676,-0.12530534573160113
1761468574671572000,0.401572021484375,0.05084580561816692,-0.06267988966628908,-0.13242723350077867
1761468574681527000,0.411527099609375,0.110647071108222,-0.09617328620627522,-0.20348909399993717
1761468574691482000,0.421482177734375,0.11219020889699459,-0.12906389454752207,-0.2585520789217204
1761468574701438000,0.43143798828125,0.08847674035429955,-0.14766191977262497,-0.2869727753072977
1761468574711393000,0.44139306640625,0.08837503354549407,-0.1376268479704857,-0.29503903125450015
1761468574721348000,0.45134814453125,0.07201368133127689,-0.11641264889761804,-0.2589074682306498
1761468574731303000,0.461302978515625,0.05127250659763813,-0.121637543939054,-0.24838417452014983
1761468574741258200,0.47125830078125,-0.030938743621110914,-0.13749781476333736,-0.27400479185841975
1761468574751213000,0.481213134765625,-0.16840134094059467,-0.14897826306819914,-0.3564637332279235
1761468574761169000,0.4911689453125,-0.2188029099225998,-0.14010536691322922,-0.3878280818499624
1761468574771124200,0.501124267578125,-0.20165654481053352,-0.12740765177309513,-0.40159437606967985
1761468574781079000,0.5110791015625,-0.16262451110482215,-0.11427461395561694,-0.383608418328315
1761468574791033900,0.521033935546875,-0.10090016859769821,-0.10419000392332672,-0.30841464565619825
1761468574800989200,0.5309892578125,-0.07588263171911239,-0.11757993911132215,-0.2526731038857251
1761468574810944000,0.540944091796875,-0.01366845986843109,-0.11431567661836743,-0.21782851193249225
1761468574820899800,0.55089990234375,0.032712767556309696,-0.08920476236790419,-0.179176709716022
1761468574830855200,0.560855224609375,0.09016308600604533,-0.10313654934763908,-0.14807744177095591
1761468574840810000,0.57081005859375,0.09152151487767696,-0.11672595263049006,-0.16099895572960377
1761468574850765000,0.58076513671875,0.021775778478384016,-0.13900982676148413,-0.23289339459538458
1761468574860720000,0.59072021484375,-0.08396540040969848,-0.1383743053369224,-0.27709676652438936
1761468574870675200,0.60067529296875,-0.18486323091983795,-0.11144698931425809,-0.3123601684115827
1761468574880631000,0.610631103515625,-0.20612287656962872,-0.07903115887790918,-0.3176058870453387
1761468574890586000,0.620586181640625,-0.17269757682979106,-0.04709887417480349,-0.2777854063756764
1761468574900541200,0.630541259765625,-0.11125029769837856,-0.043794571932405234,-0.20394071022495627
1761468574910496000,0.64049609375,-0.003887655088305473,-0.05500950116887688,-0.09900938641503453
1761468574920451000,0.650451171875,0.11938391979336738,-0.03789849963113665,-0.054106122588366265
1761468574930406100,0.66040625,0.22246552408337592,-0.04395180832073092,-0.02909180058017373
1761468574940362000,0.670362060546875,0.2487695936411619,-0.08098799203410745,-0.005437807139754295
1761468574950317000,0.680317138671875,0.1985807906270027,-0.09898279066905379,-0.011467881084233522
1761468574960272100,0.690272216796875,0.17722411434352398,-0.0760831227272749,-0.027217750336602328
1761468574970227000,0.70022705078125,0.1330897890627384,-0.06598536095246672,-0.03810089033544063
1761468574980182300,0.710182373046875,0.0888835675895214,-0.07752689179480075,-0.013176073241606355
1761468574990137000,0.72013720703125,0.08802899658679962,-0.05678790901824832,-0.019622253706306218
1761468575000092000,0.730091796875,0.07210603578984737,-0.05233633643686771,0.0022345541190356014
1761468575010048300,0.74004833984375,0.06211714121699333,-0.029750995141267774,0.03925890126414597
1761468575020003000,0.750003173828125,-0.010101707297563552,-0.018434943617880343,0.042371626457199454
1761468575029958000,0.7599580078125,-0.08096154241859913,0.014703063613176345,0.01687127449773252
1761468575039913200,0.769913330078125,-0.09728256262242793,0.014764438411593436,-0.004692907056584954
1761468575049868000,0.779867919921875,-0.058601242050528524,0.01908697778582573,0.011886325692012905
1761468575059823000,0.789822998046875,-0.049396775853633876,0.008336158929765225,0.009322466553375125
1761468575069779200,0.799779296875,-0.058656771630048746,0.011290040299296379,0.004961714060604572
1761468575079734000,0.809734130859375,-0.06666472151875495,-0.008509469670057297,0.010479527634009719
1761468575089689000,0.819689208984375,-0.049639936959743496,-0.013392127145081758,0.04026720152385533
1761468575099644000,0.829643798828125,-0.0102870007365942,-0.009850070624053478,0.046816842363029715
1761468575109599200,0.83959912109375,-0.02327273903787136,-0.045530309683829547,0.05587868521884083
1761468575119554000,0.849553955078125,-0.07442600317001342,-0.05626183931753039,0.013004077675566076
1761468575129510100,0.85951025390625,-0.061308747443556785,-0.054370472612977026,0.005942834052443504
1761468575139465200,0.86946533203125,0.012146364867687224,-0.07804068653583526,0.008062091228738426
1761468575149420000,0.879419921875,0.05248538951873779,-0.11061097688153386,0.019438275441527365
1761468575159374800,0.889374755859375,0.03988192853331566,-0.12023702949136494,0.02584083596020937
1761468575169330200,0.899330078125,-0.015585691666603087,-0.12907207785397767,0.01749013704843819
1761468575179285000,0.909284912109375,-0.005347790768742561,-0.11392711569219827,0.007383534380048513
1761468575189241000,0.919240966796875,0.06161854404509067,-0.1264170333005488,0.00902377586774528
1761468575199196200,0.929196044921875,0.08980477408766746,-0.14093597251847387,0.045237610347568985
1761468575209151000,0.93915087890625,0.05227729972600936,-0.16452362272441387,0.0017209785737097262
1761468575219106000,0.94910595703125,0.014162380865216255,-0.14658289236426353,-0.0364135948356241
1761468575229061000,0.95906103515625,-0.007471358793973922,-0.14352584288120268,-0.026034239640459415
1761468575239016000,0.969015869140625,-0.025322072783112524,-0.15238602568507192,-0.028664149752631783
1761468575248972300,0.97897216796875,-0.05124094241559505,-0.152327135104686,-0.06752769502364099
1761468575258927000,0.988927001953125,-0.05935469076633453,-0.13844430183321238,-0.07946984255611896
1761468575268882000,0.9988818359375,-0.08241583288013934,-0.1278232468366623,-0.06340542746186256
1761468575278837000,1.0088369140625,-0.03332651554048061,-0.12309183440059422,-0.059400429604202505
1761468575288792000,1.0187919921875,-0.011333879441022873,-0.14572583714351056,-0.038182942595705385
1761468575298747100,1.0287470703125,-0.010204583150148392,-0.17654329247251152,-0.03241992208957672
1761468575308703000,1.038702880859375,0.041538463568687435,-0.19080328849330544,-0.02823854475170374
1761468575318658000,1.048657958984375,0.109169984292984,-0.17740984617397187,-0.023019494929164646
1761468575328613000,1.058613037109375,0.1402653797805309,-0.20435762046277522,0.010742562484368681
1761468575338568000,1.06856787109375,0.1311731417864561,-0.21293270271494982,0.0014781827937811612
1761468575348523300,1.078523193359375,0.07639291932880878,-0.2192033074170351,-0.028695713934674856
1761468575358478000,1.08847802734375,0.024423078116774556,-0.1950494016304612,-0.041273675152659416
1761468575368433000,1.098432861328125,0.017034136909246444,-0.1881714786849916,-0.03401588604412973
1761468575378389200,1.10838916015625,0.019259411743283272,-0.18227482186183333,-0.02222885600812733
1761468575388344000,1.118343994140625,-0.018656185153126715,-0.17667685572430492,-0.012080094698444009
1761468575398298600,1.128298583984375,-0.10468085618019103,-0.1913897100791335,-0.05333652645535767
1761468575408253700,1.138253662109375,-0.1291471889168024,-0.17498408033177257,-0.06129895670190453
1761468575418208800,1.148208740234375,-0.09196750507950782,-0.16134718464538453,-0.022111294043064115
1761468575428163800,1.158163818359375,-0.046642508709430694,-0.14855170821920036,0.03241393074020743
1761468575438120000,1.168119873046875,-0.021024667850136756,-0.14346096095144747,0.07280008246861398
1761468575448074800,1.17807470703125,-0.009204466196894644,-0.15417933884263038,0.09050137804970144
1761468575458029800,1.18802978515625,-0.000768061763048172,-0.16529051544368267,0.07136274314187467
1761468575467984600,1.197984619140625,0.04870762454569339,-0.174073102966696,0.062008493210747834
1761468575477940000,1.20793994140625,0.08408698096275329,-0.1867316551402211,0.06390029830671846
1761468575487894800,1.217894775390625,0.03833469909131527,-0.19141016834527252,0.04880092885233461
1761468575497850600,1.2278505859375,0.02826981667280197,-0.1667016974158585,0.03153707484044135
1761468575507806000,1.237805908203125,0.03257365134656429,-0.15129457718655467,0.0517233191050589
1761468575517760800,1.2477607421875,0.06630933220982552,-0.16890066876485943,0.08690328049249947
1761468575527715600,1.257715576171875,0.10271160193383692,-0.17288666966110466,0.12059950612820684
1761468575537671000,1.2676708984375,0.11679682590961456,-0.1595369203530252,0.11846738947033882
1761468575547625700,1.277625732421875,0.10035480967462063,-0.15244944631010293,0.11390519612133503
1761468575557580800,1.287580810546875,0.05453764587342739,-0.15135039902701972,0.08065269566513597
1761468575567537000,1.297536865234375,0.01739595595896244,-0.13806684682294726,0.05834807100705802
1761468575577491700,1.30749169921875,-0.010818331134319304,-0.1065256072640419,0.034710736440494654
1761468575587446800,1.31744677734375,-0.05589315213561058,-0.09118672996535897,0.05799516591615975
1761468575597401900,1.32740185546875,-0.07598141591846942,-0.0764051942884922,0.07148286239020527
1761468575607356700,1.337356689453125,-0.07101239533424376,-0.07538081967681647,0.039821503582969306
1761468575617311700,1.347311767578125,-0.06399111839532852,-0.1029658689558506,0.043945524710416795
1761468575627267800,1.357267822265625,-0.03919336174726486,-0.0956513081587851,0.1026310109782964
1761468575637222700,1.36722265625,0.03226911544203758,-0.07310074591562152,0.18151070562154054
1761468575647177700,1.377177734375,0.05219371309578418,-0.04887962011173367,0.20593086112886666
1761468575657132800,1.3871328125,0.06505670180022716,-0.05269800935611128,0.24093217801377176
1761468575667088000,1.397087890625,0.06518354305028914,-0.0678673753067851,0.24188005332313475
1761468575677042700,1.407042724609375,0.07741641715764999,-0.08437076634019612,0.19533413685597478
1761468575686998800,1.416998779296875,0.01199322013258934,-0.10871376495808362,0.1104033985454589
1761468575696953900,1.426953857421875,-0.06717384008467198,-0.14187661436945198,0.03218457896374166
1761468575706908700,1.43690869140625,-0.07256079382002353,-0.1162543895959854,0.014551087921857834
1761468575716863700,1.44686376953125,-0.057363809210062025,-0.11763985260501503,-0.016706950781494378
1761468575726818800,1.45681884765625,-0.07710486699044704,-0.10198255700692534,0.018925942005217074
1761468575736773600,1.466773681640625,-0.10301555331647395,-0.07999488934352994,0.03622947044037282
1761468575746729700,1.476729736328125,-0.10587503440082073,-0.05460968819633126,0.028392493204399943
1761468575756684800,1.486684814453125,-0.05062719443142414,-0.057723436302691694,0.006885010273382067
1761468575766639600,1.4966396484375,0.016474164938926696,-0.08633110662773251,-0.025670447829365728
1761468575776595000,1.506594970703125,0.05174772289395332,-0.15001111324727534,-0.08983867635726928
1761468575786549800,1.5165498046875,0.06672258918583393,-0.16297610102146862,-0.17439824326783418
1761468575796504800,1.5265048828125,0.0635603257626295,-0.15183949771821498,-0.2635257026158273
1761468575806461000,1.5364609375,0.05968845276534557,-0.12963906408697365,-0.31429128260463474
1761468575816415700,1.546415771484375,0.050148471003770824,-0.11056772226169705,-0.33446649401858447
1761468575826370800,1.556370849609375,0.06472293980121613,-0.07271145433709025,-0.3335737829625606
1761468575836326000,1.566325927734375,0.1109083523929119,-0.0517813329026103,-0.3118514882370829
1761468575846280700,1.57628076171875,0.18279753056168555,-0.021454437569528816,-0.2736897345598787
1761468575856235800,1.58623583984375,0.29073008201420303,-0.015038579177856445,-0.2103339183934033
1761468575866190600,1.596190673828125,0.3978612539559602,-0.0073890873380005355,-0.1859073331452906
1761468575876146700,1.606146728515625,0.5112637612521648,-0.018462562277168033,-0.16716164307780562
1761468575886101800,1.616101806640625,0.5438099400699138,-0.055105362758785484,-0.16271379682347178
1761468575896056600,1.626056640625,0.5376525864839553,-0.09814765501916407,-0.1715596588410437
1761468575906012000,1.636011962890625,0.5083738850295544,-0.12300985520556568,-0.18698921009786426
1761468575915966700,1.645966796875,0.4724743041306734,-0.18268413331508634,-0.22252251496762035
1761468575925922800,1.6559228515625,0.4669534948825836,-0.2508608668319881,-0.2825741019569337
1761468575935878000,1.6658779296875,0.4794412205338478,-0.2924495992831886,-0.3572900279842317
1761468575945832700,1.675832763671875,0.47300738809406756,-0.40466523488238454,-0.3943436012238264
1761468575955787800,1.685787841796875,0.4507102160900831,-0.49609717178046703,-0.4416434778634459
1761468575965742800,1.695742919921875,0.43623862314522266,-0.5316761424228549,-0.46508602051027115
1761468575975697700,1.70569775390625,0.4213619565308094,-0.5964389758430421,-0.44181686166897416
1761468575985653800,1.71565380859375,0.4134498682320118,-0.6427035911507905,-0.38293095745816824
1761468575995608800,1.72560888671875,0.37430326823592186,-0.6636173459723591,-0.3150883512664586
1761468576005563600,1.735563720703125,0.31276889534294605,-0.6961233389101922,-0.2818406731158495
1761468576015518700,1.745518798828125,0.2429746436268091,-0.724568804410845,-0.25919234958663584
1761468576025473800,1.755473876953125,0.15717910518050193,-0.747313281790912,-0.2564418818347156
1761468576035428900,1.765428955078125,0.07398059749007224,-0.8123185456648468,-0.26265703002251684
1761468576045385000,1.775385009765625,0.03064823624193668,-0.8323135782063007,-0.2575901020217687
1761468576055339800,1.78533984375,0.00947743791937828,-0.8740985638819634,-0.21896935253068803
1761468576065294800,1.795294921875,-0.038518238964676856,-0.930492505146563,-0.15972696303240955
1761468576075249700,1.805249755859375,-0.05466390260159969,-0.961200143425539,-0.1355498955659568
1761468576085204700,1.815204833984375,-0.024081717333197594,-0.9742270905200392,-0.0910999284647405
1761468576095159800,1.825159912109375,0.03790741358995437,-1.000162399830669,-0.03252228648550808
1761468576105115600,1.83511572265625,0.048615854609012604,-1.023802657006681,0.03809372994229197
1761468576115070700,1.84507080078125,0.00745966835618019,-1.0353328627374023,0.08315064996071159
1761468576125025800,1.85502587890625,-0.06445055260062217,-1.0339406777266413,0.08487586631812155
1761468576134980600,1.864980712890625,-0.09404723396301269,-1.037929966558516,0.09804346399232744
1761468576144936000,1.87493603515625,-0.09175123198032378,-1.0792357904151082,0.08485029348544776
1761468576154890800,1.884890869140625,-0.05953180089890957,-1.1003757552079856,0.09381284068524837
1761468576164846600,1.8948466796875,0.011370119798183441,-1.0957067404836416,0.10181231500655412
1761468576174802000,1.904802001953125,0.11725509107112884,-1.1250995698370039,0.13410503051988779
1761468576184756700,1.9147568359375,0.213086285841465,-1.1497482003379613,0.19784246641509234
1761468576194711800,1.9247119140625,0.3076473145455122,-1.1693601518459618,0.2263227109681815
1761468576204667000,1.9346669921875,0.33186814808845516,-1.1787694198999554,0.26819975884146985
1761468576214621700,1.94462158203125,0.31703356705009933,-1.1821626425348222,0.28783662559501827
1761468576224577800,1.954577880859375,0.3043704848319292,-1.1525954795278608,0.27137122848443684
1761468576234532900,1.964532958984375,0.26954233255684373,-1.1401401948414742,0.26991248104348775
1761468576244487700,1.97448779296875,0.19827742376625537,-1.1060264744460582,0.2315136306747794
1761468576254442800,1.98444287109375,0.13941373138725757,-1.0758938595760612,0.22020970798060296
1761468576264397800,1.994397705078125,0.12298808176517485,-1.0434287101052702,0.23793489589393138
1761468576274353700,2.004353759765625,0.1606827293872833,-1.041443235376477,0.2550331840805709
1761468576284308700,2.014308837890625,0.23824644606113432,-1.0403307440899312,0.25780462155528366
1761468576294263800,2.024263916015625,0.3122615303426981,-1.0499915757521987,0.2762321125190705
1761468576304219000,2.034218994140625,0.3461567856818437,-1.0730533754531293,0.2617898187339306
1761468576314173700,2.044173583984375,0.36760114024877544,-1.0965524705927818,0.22417481221929192
1761468576324128800,2.054128662109375,0.34847792210578915,-1.07546715859659,0.21262509807050226
1761468576334084900,2.0640849609375,0.32215397880375385,-1.0528102864347397,0.1962970636039972
1761468576344039700,2.074039794921875,0.3417915762096643,-1.0472105667315423,0.19293299399837852
1761468576353994800,2.083994873046875,0.3712263450086117,-1.0451998114310204,0.18325185020044446
1761468576363949800,2.09394970703125,0.33660511348247524,-1.0618025711856782,0.13233078738898038
1761468576373904600,2.103904541015625,0.23207155681848524,-1.0867765611834823,0.08211604621596634
1761468576383860000,2.11385986328125,0.13330898477137088,-1.1037204625260084,-0.02553768829517066
1761468576393815800,2.12381591796875,0.08222703230977058,-1.1200300845529882,-0.06213065828569233
1761468576403770400,2.133770263671875,0.08861234943270682,-1.124581829573214,-0.03253419611901045
1761468576413725700,2.1437255859375,0.0398497798293829,-1.147212325184792,-0.0128064362116158
1761468576423680500,2.153680419921875,-0.016422727012634277,-1.1477214437507093,-0.059770651156082745
1761468576433635600,2.163635498046875,-0.12539280481934548,-1.1268804619044064,-0.05501110860407352
1761468576443591700,2.173591796875,-0.13696516919136045,-1.0791263386912644,-0.027251360345259306
1761468576453546500,2.18354638671875,-0.12348375632762908,-1.1124007587183267,-0.009156827662885189
1761468576463501600,2.19350146484375,-0.05575578949153423,-1.1543992410141974,0.009465309090167283
1761468576473456600,2.20345654296875,0.01559036784172058,-1.2615733022496103,-0.02823996952380985
1761468576483411500,2.213411376953125,0.0035813656181097027,-1.3543147143110632,-0.0649611690038815
1761468576493366500,2.223366455078125,-0.11147943027913569,-1.4369766309067606,-0.16597984941471366
1761468576503322600,2.233322509765625,-0.26955343847274776,-1.4241466676890848,-0.245500764570944
1761468576513277400,2.24327734375,-0.5072521875232457,-1.3196131110250948,-0.28766919660624113
1761468576523232500,2.253232421875,-0.7308265496313572,-1.259074763432145,-0.36302948495168236
1761468576533187600,2.2631875,-0.8870920470982789,-1.0685313679840416,-0.3638950522724539
1761468576543142700,2.273142578125,-0.8746814783364534,-0.9722784406702965,-0.24518481222325936
1761468576553097500,2.283097412109375,-0.6884709244608879,-1.0591749991610646,-0.15560756328115238
1761468576563053600,2.293053466796875,-0.2926046437144279,-1.166724542645365,-0.12645163882304913
1761468576573008600,2.303008544921875,0.012052256843447684,-1.4356218552969395,-0.16190576837621629
1761468576582963500,2.31296337890625,0.2976204260498285,-1.3197203707918523,-0.26732608127947893
1761468576592918500,2.32291845703125,0.45893911525309083,-1.126624879708141,-0.3108699298538267
1761468576602873600,2.33287353515625,0.4200631488919258,-1.1790483829718081,-0.3863393411295488
1761468576612829400,2.342829345703125,0.2585568281620741,-1.0572200657010078,-0.4438812468528747
1761468576622784500,2.352784423828125,0.10150397970974445,-0.6530709636472165,-0.5080903919130564
1761468576632739600,2.362739501953125,-0.19437807824015615,-0.30275325889363885,-0.4595753307973966
1761468576642694400,2.3726943359375,-0.6389332788318395,-0.04678922370374203,-0.30596264939419926
1761468576652649500,2.3826494140625,-1.1447773531228302,0.2876601730495691,-0.2164215129450895
1761468576662604500,2.3926044921875,-1.3812246408075093,0.5549246238023042,-0.22406433758214114
1761468576672560400,2.402560302734375,-1.3870371264785528,0.7259601126387715,-0.3100858302714303
1761468576682515700,2.412515625,-1.0635679734230041,1.0927663031175732,-0.20213760632574557
1761468576692470500,2.422470458984375,-0.3995224651664495,1.162920912578702,-0.02845471281961072
1761468576702425600,2.432425537109375,0.33125673819184304,1.0039803506836296,0.09183474554531276
1761468576712380400,2.44238037109375,0.7194120061695576,0.8817062624067068,0.2911031531102955
1761468576722336500,2.45233642578125,0.804697841528058,0.6436258205622434,0.41494555014986545
1761468576732291600,2.46229150390625,0.7633627915769815,0.7740108807109296,0.5787116325052455
1761468576742246700,2.47224658203125,0.6133288819760084,0.8009348357327282,0.6511605999812483
1761468576752201500,2.482201416015625,0.40797172908186913,0.8057597716711461,0.6792259070578962
1761468576762156500,2.492156494140625,0.1592190865755081,0.8978544102616608,0.7217815117798745
1761468576772112600,2.502112548828125,0.00047054012119770045,0.8705245047874748,0.6640467503655701
1761468576782067500,2.5120673828125,-0.06107669225335121,0.7891539431765675,0.63812590797171
1761468576792022500,2.5220224609375,-0.06886603095531463,0.6706485597833991,0.6490282641276717
1761468576801977600,2.5319775390625,-0.10442249750494956,0.5483372082360088,0.6446553097404539
1761468576811932700,2.5419326171875,-0.09654548051953316,0.49598698940426106,0.6516588318269699
1761468576821887500,2.551887451171875,-0.0005038578689098358,0.48295682743936774,0.6672582597579807
1761468576831843600,2.561843505859375,0.10642740758657455,0.43589521653503177,0.7049598485775291
1761468576841798700,2.571798583984375,0.1369856274574995,0.3990253292992711,0.6335973246313631
1761468576851753500,2.58175341796875,0.06877016936540603,0.35162177308946846,0.5367996229164302
1761468576861708300,2.591708251953125,-0.14812486110925674,0.2699003522142768,0.42692981979101896
1761468576871663600,2.60166357421875,-0.330219796359539,0.1712748505502939,0.2620141290090978
1761468576881619500,2.611619384765625,-0.46791035721600055,0.17930866553261876,0.0839021259151399
1761468576891574500,2.621574462890625,-0.5816179849386215,0.27946152289435267,0.020939473784714936
1761468576901529600,2.631529541015625,-0.8119821533173323,0.40745632690563793,-0.004288344843685627
1761468576911484400,2.641484375,-1.0800351240992545,0.5423185324683785,0.003371960651129484
1761468576921439500,2.651439453125,-1.2596388270556926,0.7124947741270065,-0.02864917137920856
1761468576931394600,2.66139453125,-1.3309575118601322,0.8743643752112984,-0.06811477419659495
1761468576941350400,2.671350341796875,-1.2596171997457741,0.969533452811092,-0.0660918900668621
1761468576951305700,2.6813056640625,-1.1219698935091496,0.9958972897320986,-0.04560527461618185
1761468576961260500,2.691260498046875,-0.88501991699934,0.9753151049524545,-0.03361936100721359
1761468576971215400,2.70121533203125,-0.5436532882034778,0.9031086775280535,-0.03849354291483759
1761468576981170400,2.71117041015625,-0.07201952655017375,0.7505750600658356,-0.06814063929021358
1761468576991126500,2.72112646484375,0.3796306007385254,0.5468794106431305,-0.11652940714508295
1761468577001081300,2.731081298828125,0.7549006681799888,0.36434710688889027,-0.18846870806589722
1761468577011036700,2.74103662109375,1.0817822600275278,0.2102436097614467,-0.3115655109025538
1761468577020991500,2.750991455078125,1.3465356047421693,0.0913739231005311,-0.4144865178033709
1761468577030946600,2.760946533203125,1.5167641611099243,-0.018529197772592303,-0.48445013473704457
1761468577040901400,2.7709013671875,1.585900241178274,-0.11984466917291282,-0.5516701520510018
1761468577050857500,2.780857421875,1.5798989549368618,-0.15410408164933323,-0.5219433415029198
1761468577060812500,2.7908125,1.550427945780754,-0.10903042969182133,-0.4245210050836205
1761468577070767400,2.800767333984375,1.5330968717515467,-0.07917012895718216,-0.28672055411189795
1761468577080722700,2.81072265625,1.4928279897272585,-0.06982873850762844,-0.17889767357893288
1761468577090677500,2.820677490234375,1.4372534020215273,-0.10281856943964958,-0.1400815476462245
1761468577100633600,2.830633544921875,1.3242144673407077,-0.20545506031066177,-0.21453348897509275
1761468577110588700,2.840588623046875,1.2515975594192743,-0.3025922231130302,-0.3229923293240368
1761468577120543500,2.85054345703125,1.1628799960464238,-0.4145497922979295,-0.3694409959618002
1761468577130498300,2.860498291015625,1.0007552511572837,-0.46824864925965665,-0.4625399892892688
1761468577140453600,2.87045361328125,0.8736270008474588,-0.46664296762868757,-0.492139666326344
1761468577150408400,2.880408447265625,0.7772562923729419,-0.4944277772635221,-0.45535504622124134
1761468577160364500,2.890364501953125,0.7116185758143663,-0.5624198018632829,-0.44832726647630333
1761468577170319600,2.900319580078125,0.6472668074131012,-0.6410480790287256,-0.5051470319375395
1761468577180274400,2.9102744140625,0.5598369457632303,-0.7622301342852413,-0.5700213629081845
1761468577190229500,2.9202294921875,0.47915948098301886,-0.8875896213568747,-0.5896965158455073
1761468577200184600,2.9301845703125,0.22282558956742285,-0.9965259430244564,-0.5961862431909889
1761468577210140400,2.940140380859375,-0.1269604925274849,-1.0721274197146295,-0.6163685419328511
1761468577220095700,2.950095703125,-0.44842064384818076,-1.1070284910954535,-0.6267120951622724
1761468577230050600,2.960050537109375,-0.6101993517786264,-1.1226284304831176,-0.6170910109885036
1761468577240005400,2.97000537109375,-0.6534487109184265,-1.1609606453564016,-0.5506359136324376
1761468577249960400,2.97996044921875,-0.8501952718555926,-1.187697699503973,-0.4847116352174431
1761468577259915500,2.98991552734375,-1.1098889950931072,-1.1988345950681716,-0.45414114038683473
1761468577269871400,2.999871337890625,-1.3243372169375418,-1.2283692440450191,-0.47898456280753016
1761468577279826400,3.009826416015625,-1.532018428865075,-1.2283783041343093,-0.5081752937175333
1761468577289781500,3.019781494140625,-1.7349603373110294,-1.1606523831248283,-0.5066781870275735
1761468577299736600,3.029736572265625,-1.8875316564351319,-1.092867425404489,-0.45406128008365626
1761468577309691400,3.03969140625,-1.9107576337218284,-1.0611943761594593,-0.334969548169896
1761468577319647500,3.0496474609375,-1.89885618352592,-1.1093824338104574,-0.20364647651873527
1761468577329602600,3.0596025390625,-1.839666327932477,-1.0671224510341881,-0.16654256133139134
1761468577339557400,3.069557373046875,-1.7063655264675617,-0.9974961032308638,-0.13534195190370082
1761468577349512700,3.0795126953125,-1.6309084266841412,-1.0156495264936238,-0.11753792660050093
1761468577359467500,3.089467529296875,-1.6317629976868628,-1.1261399457354098,-0.19627492483742534
1761468577369423600,3.099423583984375,-1.6609160269349812,-1.097174986405298,-0.43230888248085975
1761468577379378400,3.10937841796875,-1.8126374512314796,-0.9834018191657959,-0.5951388530299068
1761468577389333500,3.11933349609375,-2.132332346445322,-0.8734630424574017,-0.673244713756442
1761468577399288000,3.1292880859375,-2.4348142410516735,-0.6940985550843178,-0.7856159052435309
1761468577409243100,3.1392431640625,-2.56233119841814,-0.33363756891377266,-0.8329055527500808
1761468577419198200,3.1491982421875,-2.4554051936596633,0.08603986859619617,-0.6929596141822636
1761468577429154000,3.159154052734375,-2.1752584649801254,0.4631090213488787,-0.4098013556618243
1761468577439109000,3.169109130859375,-1.7262603135049341,0.7958829591706394,-0.14020013252459465
1761468577449064200,3.179064208984375,-1.034091703569889,1.0359656807482243,0.07664163339287042
1761468577459019300,3.189019287109375,-0.3054500967621803,1.2063631639420986,0.3324846725516021
1761468577468974000,3.19897412109375,0.40030513997673983,1.3383603354625404,0.5808004580106586
1761468577478930200,3.20893017578125,1.0481289967507124,1.4345159398816525,0.7561477456316351
1761468577488885200,3.21888525390625,1.5119336722135543,1.3953710934512316,0.8560980661585926
1761468577498840000,3.228840087890625,1.809471680676937,1.2891520679183304,0.8625063988309353
1761468577508795100,3.238795166015625,1.898499625173211,1.217164251680672,0.7688338433992117
1761468577518750200,3.248750244140625,1.8209815012067556,1.150556374915689,0.5712387758739292
1761468577528705000,3.258705078125,1.6613479886114597,1.1565829417288302,0.4309921007938683
1761468577538661000,3.2686611328125,1.3776923750281334,1.1803107310578227,0.2690576177798211
1761468577548616200,3.2786162109375,0.9779945532947778,1.197107113688439,0.06596928660050035
1761468577558571000,3.288571044921875,0.7001788979113102,1.2383178066074847,-0.10021379376873374
1761468577568526300,3.2985263671875,0.5516244132131338,1.2225948984272776,-0.2079245922293514
1761468577578481200,3.308481201171875,0.5270891068935394,1.1098377032972873,-0.25453458690866826
1761468577588437000,3.31843701171875,0.6193494574397802,0.9278636179476976,-0.22743520225472746
1761468577598392300,3.328392333984375,0.7809791122883558,0.7491472192198038,-0.15127974494360386
1761468577608347100,3.33834716796875,0.9071715430527925,0.5608144124932587,-0.04954875154495239
1761468577618302200,3.34830224609375,0.9611106385111808,0.3692560678489506,0.0005796265188604593
1761468577628257300,3.35825732421875,0.9469605326056479,0.1764554680585861,-0.007462371769919991
1761468577638212000,3.368212158203125,0.9191016348212957,0.015579846447706222,-0.03430916990227997
1761468577648168200,3.378168212890625,0.9106588006466627,-0.14646204246357084,-0.036727556155622
1761468577658123300,3.388123291015625,0.8351502629369497,-0.3098575379408896,-0.08341704581193625
1761468577668078000,3.398078125,0.700065500664711,-0.44134573702588675,-0.15363916755132376
1761468577678033200,3.408033203125,0.49484921754598615,-0.5108547420598566,-0.22673969427123664
1761468577687988200,3.41798828125,0.27009061408936974,-0.5510780313767493,-0.24713958128653465
1761468577697944000,3.427944091796875,0.11401157910525798,-0.5263305436111987,-0.22779833647869527
1761468577707899100,3.437899169921875,0.08399462650418281,-0.4673628063358366,-0.1362355397425592
1761468577717854200,3.447854248046875,0.2110468889683485,-0.4537902080573141,0.02255450776591897
1761468577727809300,3.457809326171875,0.3967886562883854,-0.49137584234699605,0.176570838066563
1761468577737764000,3.46776416015625,0.5898644197583198,-0.5777687621645629,0.30435740615464746
1761468577747719200,3.47771923828125,0.7946884886890649,-0.6518678714677691,0.4299473409812897
1761468577757675300,3.48767529296875,0.9075941523790358,-0.75853522529006,0.4935544284950942
1761468577767630000,3.497630126953125,0.9797533796608447,-0.8798530357554555,0.5101271219050512
1761468577777585200,3.507585205078125,1.040842931395769,-1.0331420016296207,0.4755909748464823
1761468577787540200,3.517540283203125,1.0597235729545353,-1.173347906307876,0.4301719069847837
1761468577797495000,3.5274951171875,1.0329700060635805,-1.3058330074757336,0.35964506667777896
1761468577807451100,3.537451171875,0.9140162943810224,-1.4054184402130543,0.2863497115055099
1761468577817406200,3.54740625,0.7208107670515775,-1.443061503778398,0.1996454241838306
1761468577827361000,3.557361083984375,0.4245283116072416,-1.4744154040716588,0.09698953449260443
1761468577837316400,3.56731640625,0.12401567124724387,-1.4666010770589113,0.032068222575075925
1761468577847271200,3.577271240234375,-0.19840075788497924,-1.426783738194406,0.022624138936027882
1761468577857226200,3.587226318359375,-0.5914321074664592,-1.3280115215361117,0.008362024023383855
1761468577867182300,3.597182373046875,-0.9714911627501249,-1.1994088147595523,0.004881926822662353
1761468577877137200,3.60713720703125,-1.2017623921483755,-1.10319497734718,-0.017977774434909225
1761468577887092200,3.61709228515625,-1.216112404540181,-1.058722213892266,-0.02125712489914149
1761468577897047300,3.62704736328125,-1.0517430955946445,-1.0544179408270864,0.005546309015527367
1761468577907002000,3.637002197265625,-0.7973077312767505,-1.1101362478524446,0.05941533491238951
1761468577916958200,3.646958251953125,-0.5985743804365397,-1.1701017639935016,0.10951795748043805
1761468577926913300,3.656913330078125,-0.55288113527596,-1.2193408650673925,0.10257288758289068
1761468577936868000,3.6668681640625,-0.5696440540283918,-1.238715427622944,0.05882737895660102
1761468577946823200,3.6768232421875,-0.7074222931683063,-1.2776583217404782,-0.022680691428855062
1761468577956778200,3.6867783203125,-0.9165420134663581,-1.2569371668815612,-0.20090382674708962
1761468577966733300,3.6967333984375,-1.0706132157593964,-1.1645007291160523,-0.3296621259441599
1761468577976689200,3.706689208984375,-1.1694313173860311,-1.0802259704962371,-0.4098068720871582
1761468577986644200,3.716644287109375,-1.2360703199416399,-0.9547007714688778,-0.45461277648657555
1761468577996599300,3.726599365234375,-1.3136591710567473,-0.7960891492672264,-0.4257406100064516
1761468578006554000,3.73655419921875,-1.3617197298705577,-0.7003131918154657,-0.41421325381994245
1761468578016509200,3.74650927734375,-1.227009646129608,-0.6689902711823582,-0.34219211983457204
1761468578026465300,3.75646533203125,-0.9742132811903953,-0.7014031790092587,-0.23439177992697804
1761468578036420000,3.766420166015625,-0.6147130298107862,-0.8152814871236681,-0.18295268459077924
1761468578046375200,3.776375244140625,-0.2937432923555374,-0.9327893839120864,-0.17106029448416082
1761468578056330200,3.786330322265625,-0.18616496116816997,-1.0002315195441245,-0.18469843227956442
1761468578066285000,3.79628515625,-0.4443997177690267,-0.9138444449454546,-0.23424532066099343
1761468578076240400,3.806240478515625,-1.051313472005725,-0.633992023037374,-0.33552367492131885
1761468578086196200,3.8161962890625,-1.8210241713047026,-0.20561609609127043,-0.4407565024284646
1761468578096151000,3.826151123046875,-2.832823379045725,0.32604791750237344,-0.5821598001977428
1761468578106106400,3.8361064453125,-3.5427696377336977,0.986575042374432,-0.6990306777242571
1761468578116061200,3.846061279296875,-3.5864018587112425,1.6155872311726212,-0.6361109148874878
1761468578126016300,3.856016357421875,-2.9174451975375413,2.0430394674025476,-0.39468430442027747
1761468578135972400,3.865972412109375,-1.7468787386417388,2.229917106884718,-0.010460238411650061
1761468578145927200,3.87592724609375,-0.4384264885783195,2.2391190888635815,0.29556703718397764
1761468578155882200,3.88588232421875,0.7362345461547374,2.1782583774484694,0.511322761430405
1761468578165837300,3.89583740234375,1.7216291465729474,2.0417200553670525,0.6785385093156248
1761468578175792000,3.905792236328125,2.5201351477235554,1.9151852409057317,0.8258112105749547
1761468578185747200,3.915747314453125,3.025517449721694,1.7951865502148865,0.8197323290526867
1761468578195703300,3.925703369140625,3.2864415915369984,1.6668448324620724,0.7265797789070755
1761468578205658000,3.935658203125,3.3020629390388727,1.5434231815852224,0.6511412376936525
1761468578215613200,3.94561328125,3.0451749208718537,1.3975759100191294,0.5307070416623726
1761468578225568300,3.955568359375,2.6883628856629134,1.3113709139890968,0.3073697762457654
1761468578235523300,3.9655234375,2.2618968839913607,1.2407906264618038,0.045112303467467425
1761468578245479200,3.975479248046875,1.778102144423127,1.2166066177979111,-0.2235036714920774
1761468578255434200,3.985434326171875,1.3123165242761372,1.1937247777737676,-0.4084782172992825
1761468578267255300,3.99725537109375,0.9118149849444627,1.1967393032893539,-0.5356119475018233
1761468578277210000,4.007210205078125,0.6658271309763193,1.1754046927072108,-0.6224035843133926
1761468578287165200,4.017165283203125,0.5493862788975239,1.0708496548637747,-0.6194833129525185
1761468578297120000,4.0271201171875,0.5880360352873801,0.9409078084379434,-0.5713032924775033
1761468578307076000,4.037076171875,0.7289467272341251,0.8419843467406928,-0.5258799502994865
1761468578317031200,4.04703125,0.8294026591956615,0.7025865435749292,-0.4988810303453356
1761468578326986000,4.056986083984375,0.7955202633380889,0.5671686038255691,-0.48740569660700855
1761468578336941300,4.06694140625,0.658061757671833,0.40936975931152697,-0.44738004875406623
1761468578346896100,4.076896240234375,0.4178887274622917,0.34545404423996806,-0.42751171133220195
1761468578356851200,4.086851318359375,0.13643909949064253,0.3277982683010399,-0.43185814303867515
1761468578366807300,4.096807373046875,-0.10461772781610489,0.31293431503772734,-0.4521116073206067
1761468578376762000,4.10676220703125,-0.29475042357146736,0.3128632956281304,-0.4593349827028811
1761468578386717200,4.11671728515625,-0.39148178205192086,0.28724370120316745,-0.41406230104193087
1761468578396672300,4.12667236328125,-0.3464250812292099,0.22647797459512947,-0.36575339349023994
1761468578406627600,4.136627685546875,-0.24712357999980447,0.15663286947458982,-0.3179897717963904
1761468578416583700,4.146583740234375,-0.10077157378196716,0.052188598529249425,-0.3656972063235938
1761468578426538800,4.156538818359375,0.12586802111566067,-0.036258915730565784,-0.42097419932223856
1761468578436493600,4.16649365234375,0.28138123891055583,-0.15722995858490466,-0.4532143809307366
1761468578446449000,4.176448974609375,0.43504269135892387,-0.24861440307945012,-0.458694492842257
1761468578456403700,4.18640380859375,0.5706394948065281,-0.33604265729412436,-0.4983288763552904
1761468578466358800,4.19635888671875,0.6789549080967903,-0.4118789656534791,-0.4993790429953485
1761468578476315000,4.20631494140625,0.7600543976813554,-0.44990255296900866,-0.472689408186078
1761468578486269700,4.216269775390625,0.8464110771417618,-0.4955262400247156,-0.40484059144929047
1761468578496224800,4.226224853515625,0.9276701412022114,-0.5606994078114629,-0.3273758051052689
1761468578506179600,4.2361796875,0.9880717106729745,-0.6337936509210615,-0.2796334453951567
1761468578516134700,4.246134765625,0.9565022679328918,-0.7092189673267304,-0.262635256582126
1761468578526090500,4.256090576171875,0.865690947151184,-0.8050221050463616,-0.2322885605700314
1761468578536045800,4.2660458984375,0.6625012014240026,-0.810571190540865,-0.20679829161316154
1761468578546000600,4.276000732421875,0.46620238425433635,-0.8389332886070012,-0.15207213743031023
1761468578555955700,4.285955810546875,0.2608873169362545,-0.8640094238050281,-0.0642590486165136
1761468578565910500,4.29591064453125,0.07925415397882461,-0.9424794416688382,-0.002600610952451825
1761468578575865900,4.305865966796875,-0.05648994898498058,-1.0204962358724325,-0.02700761471726
1761468578585821700,4.31582177734375,-0.21666180624067782,-1.1245833639431744,-0.057951472904905675
1761468578595776800,4.32577685546875,-0.3849444892376661,-1.234572190338373,-0.10849325407519936
1761468578605731800,4.33573193359375,-0.6559288372963666,-1.3101358192361892,-0.22474428267031907
1761468578616309800,4.346309814453125,-0.9739812260001898,-1.3630088928982615,-0.3416995140120387
1761468578626264600,4.3562646484375,-1.3119038518220185,-1.3584925845175981,-0.4116280596323311
1761468578636219600,4.3662197265625,-1.6145669482141731,-1.3312630706779658,-0.4602893608182668
1761468578646175700,4.37617578125,-1.8167688519477843,-1.3091472465902567,-0.48159912922009823
1761468578656130800,4.386130859375,-1.9071838668882846,-1.276627955779433,-0.5157974591590464
1761468578666085600,4.396085693359375,-1.9414327579706907,-1.2154419579327105,-0.5083243467994034
1761468578676040700,4.406040771484375,-1.904547673165798,-1.1668141936901957,-0.45966289948299527
1761468578685995500,4.41599560546875,-1.7693243792057036,-1.070573541336134,-0.3648639703698456
1761468578695950800,4.425950927734375,-1.5183131441175937,-0.9302717020027339,-0.2711656959749758
1761468578705906700,4.43590673828125,-1.1978618775784968,-0.8181914562862366,-0.14102511210665106
1761468578715861800,4.44586181640625,-0.9289952523261308,-0.7552237626545131,0.029216596003621816
1761468578725816800,4.45581689453125,-0.86804832393229,-0.6959401643630116,0.19587679236531255
1761468578735771600,4.465771728515625,-0.8516898943275213,-0.6344760802272706,0.304741948492825
1761468578745726500,4.4757265625,-0.6933090121418237,-0.5289678333122283,0.33757731951549647
1761468578755682800,4.485682861328125,-0.4243623073905706,-0.43403000718504187,0.3136057845585048
1761468578765637600,4.4956376953125,-0.20378420448899268,-0.404974885353446,0.20065292072594165
1761468578775592700,4.5055927734375,-0.24218320098817347,-0.45660292739048597,-0.025428455767035483
1761468578785547800,4.5155478515625,-0.5211895274609327,-0.4445946558192372,-0.30646833389401434
1761468578795502600,4.525502685546875,-0.9572101239413022,-0.3760151867203414,-0.6127667180486023
1761468578805457700,4.535457763671875,-1.4383271687328814,-0.2706777663275599,-0.8227421783931553
1761468578815413800,4.545413818359375,-1.783096883970499,-0.011024082839488983,-0.8814934964388609
1761468578825368600,4.55536865234375,-1.9640578467547893,0.3726582775078714,-0.7575701796501875
1761468578835323600,4.56532373046875,-1.9783564212203024,0.7627163103669882,-0.5007629716344177
1761468578845278700,4.57527880859375,-1.735345537236333,1.1370111030355095,-0.13585647729709743
1761468578855233800,4.58523388671875,-1.255412149271369,1.4749930578291415,0.24284005746170878
1761468578865190000,4.59518994140625,-0.7500280937075614,1.6329720812156796,0.5724421603143215
1761468578875144700,4.605144775390625,-0.32356969082057474,1.7241972434952855,0.7960086313769221
1761468578885099800,4.615099853515625,-0.0866746593683958,1.7645133256621657,0.9105858815409242
1761468578895054600,4.6250546875,-0.029319617986679074,1.756234888269007,0.8899960979767143
1761468578905009700,4.635009765625,0.04311199649572372,1.7159380953244865,0.7885913408577442
1761468578914965500,4.644965576171875,0.24219781403541563,1.6458073051303623,0.702930242446065
1761468578924920800,4.6549208984375,0.5081657952368259,1.5636831486731766,0.6065582187972962
1761468578934875600,4.664875732421875,0.7315969494819641,1.4416497372843324,0.5305125054709613
1761468578944830700,4.674830810546875,0.9057616762548685,1.3493193902418017,0.4497299728810787
1761468578954785500,4.68478564453125,1.05857732552886,1.3176318740800022,0.3555842469796538
1761468578964740900,4.694740966796875,1.1636842981666327,1.273325407102704,0.317776494371891
1761468578974696700,4.70469677734375,1.2256839504837989,1.2112924370378255,0.3147866649061441
1761468578984651800,4.71465185546875,1.280787413546443,1.1849909978285431,0.3629331484377384
1761468578994606800,4.72460693359375,1.2934943349063395,1.1382394757866858,0.3808433375291526
1761468579004561700,4.734561767578125,1.215821312639117,1.077408282727003,0.35728111402541396
1761468579014516500,4.7445166015625,1.0457716199696063,1.010624611003697,0.32273952360674735
1761468579024472800,4.754472900390625,0.81939038374722,0.9745604871928691,0.3194004423119128
1761468579034427600,4.764427734375,0.5814496426343918,0.9826925018526613,0.33442265487685796
1761468579044382500,4.774382568359375,0.33629707044661045,1.0003194900885224,0.34628581888899207
1761468579054337800,4.784337890625,0.17715630980432032,1.0085400598146022,0.4267680533580482
1761468579064292600,4.794292724609375,0.05094575886130333,0.9543699320793151,0.4889597211159765
1761468579074247700,4.80424755859375,0.03895020064115524,0.9025511897757649,0.5141242652498186
1761468579084203800,4.814203857421875,0.14598960264623165,0.8582815476775169,0.5312083787806332
1761468579094158600,4.82415869140625,0.3042524114102125,0.7673670587822794,0.5708439313374459
1761468579104113700,4.83411376953125,0.4027805901795625,0.6373167835459113,0.5531465082138777
1761468579114068700,4.84406884765625,0.4669949959367513,0.49667804040834307,0.4960463183760643
1761468579124023600,4.8540234375,0.5006447520822286,0.3322679610610008,0.37271205352172254
1761468579133980000,4.86397998046875,0.4982341838091612,0.12154153621867299,0.21300372212454674
1761468579143934700,4.873934814453125,0.5930255141377448,-0.09513122980743646,0.04591843221858143
1761468579153889500,4.8838896484375,0.7401707165598869,-0.3276173587761819,-0.06813172533139586
1761468579163844600,4.8938447265625,0.8720791868835687,-0.6317004049688577,-0.1756155101031065
1761468579173799700,4.903799560546875,0.9778928464859723,-0.8798382765777408,-0.20840485002696513
1761468579183754800,4.913754638671875,0.9875123232245445,-1.048336794282496,-0.24522227642312644
1761468579193710800,4.9237109375,0.9071253658235072,-1.158967206516862,-0.2566357969716191
1761468579203665700,4.933665771484375,0.812857182586193,-1.226944471938908,-0.2240470941863954
1761468579213620700,4.943620849609375,0.6790338185518979,-1.241319180380553,-0.2025691296108067
1761468579223575600,4.953575439453125,0.6018453649312258,-1.2362681806012987,-0.1671397965721786
1761468579233531000,4.96353076171875,0.51414486964643,-1.234813013356924,-0.12297171515226363
1761468579243486700,4.97348681640625,0.4093132068186998,-1.2375466761045157,-0.08024871797412633
1761468579253441500,4.983441650390625,0.2675964591860771,-1.2403094188161194,-0.01719911821261048
1761468579263396900,4.99339697265625,0.11255904220938683,-1.2807282307051122,-0.023006781578063965
1761468579273351700,5.0033515625,-0.0601274287045002,-1.3752232084356248,-0.05959419861063361
1761468579283306500,5.013306396484375,-0.299680281189084,-1.4583289232760668,-0.11092778774574398
1761468579293262800,5.023262939453125,-0.5396569120436906,-1.5083973147809504,-0.167004772015661
1761468579303217700,5.0332177734375,-0.7097066047132015,-1.5755631176896392,-0.204280609703809
1761468579313172500,5.04317236328125,-0.8166279332965612,-1.6962999133966863,-0.1784415273092687
1761468579323127800,5.0531279296875,-0.8884317712694406,-1.8006315177477896,-0.14671353300660847
1761468579333082600,5.06308251953125,-0.9682944125354289,-1.8676647803179918,-0.1374528065778315
1761468579343037700,5.07303759765625,-1.0925193426191806,-1.9063963697724042,-0.12587225889936088
1761468579352993800,5.082993896484375,-1.2248141819119454,-1.8991630575180052,-0.13025412724539637
1761468579362948600,5.092948486328125,-1.2657710462003946,-1.8594196606725453,-0.1137450371235609
1761468579372903700,5.102903564453125,-1.1992460254132746,-1.7929267885893583,-0.05747881389185786
1761468579382858800,5.112858642578125,-1.1426736588418482,-1.7106136854313312,-0.002901274399459362
1761468579392813600,5.1228134765625,-1.1340250729620456,-1.586008669988811,0.030800796455144882
1761468579402769200,5.13276904296875,-1.072592991399765,-1.3980759684957562,0.051834378264099354
1761468579412724000,5.142723876953125,-1.020104094749689,-1.1725472574494777,0.04902472767084837
1761468579422679000,5.152678955078125,-0.9735971951186656,-0.9637693363264203,0.036106501647830004
1761468579432634000,5.162634033203125,-0.9091495651274919,-0.7352936120428144,-0.025253829852491617
1761468579442589000,5.1725888671875,-0.8234434585303068,-0.49394861544445157,-0.0436195076264441
1761468579452544000,5.1825439453125,-0.6681821696698665,-0.3293050196021795,-0.030700624016299843
1761468579462500000,5.1925,-0.49489714834094045,-0.20615107975080607,-0.028816344639658927
1761468579472455000,5.202454833984375,-0.4313414987534284,-0.13396248024404048,-0.09922887438461184
1761468579482410000,5.212409912109375,-0.6141308460086584,-0.05345569585561752,-0.19321268772259353
1761468579492365000,5.222364990234375,-0.9833394214540719,0.0978081939317286,-0.3392236254177987
1761468579502320000,5.232320068359375,-1.4122896411567925,0.3753475165918469,-0.5148344593457878
1761468579512276200,5.242276123046875,-1.7960142332106828,0.7058391156300902,-0.6425882942080497
1761468579522231000,5.25223095703125,-2.113180486729741,1.057855440995097,-0.7171053366623819
1761468579532186000,5.26218603515625,-2.2651591006577014,1.3961601980023086,-0.7488917831540107
1761468579542141000,5.272140869140625,-2.072428205102682,1.7328944908224044,-0.7237173021480441
1761468579552096300,5.28209619140625,-1.549191681984067,1.9638423043079674,-0.6149329561717808
1761468579562052000,5.292052001953125,-0.7282733580172062,2.0134702585689723,-0.4557913187466561
1761468579572007200,5.302007080078125,0.11851648930907249,1.9384885212123393,-0.29903964519798754
1761468579581962000,5.3119619140625,0.8243015366643667,1.8426900596678255,-0.2170971289180219
1761468579591917000,5.3219169921875,1.4322674303025007,1.7063250483267007,-0.18047442137636244
1761468579601872000,5.331871826171875,1.947689480277896,1.550454979918152,-0.12449117980450392
1761468579611827200,5.3418271484375,2.3473832103580237,1.3838897683635354,-0.11999942134320735
1761468579621783000,5.351782958984375,2.6067384954214097,1.2005386955723165,-0.08797054439783096
1761468579631737900,5.36173779296875,2.637954302418232,1.028124465728551,-0.09133381028585136
1761468579641693200,5.371693115234375,2.408043723025918,0.9714930624462663,-0.12157083537839353
1761468579651648000,5.38164794921875,2.0144798740029333,0.9959100030831992,-0.18440145862698554
1761468579661603000,5.39160302734375,1.5971943731307983,1.0481310425773263,-0.26665070276856423
1761468579671559200,5.40155908203125,1.2389566890329122,1.0967898595452308,-0.27512568564712997
1761468579681514000,5.411513916015625,0.9539736262381077,1.1357426905348895,-0.25250308108106256
1761468579691469000,5.421468994140625,0.7747913635641336,1.161505200561881,-0.20191271152868867
1761468579701424000,5.431424072265625,0.7312918290555477,1.1977300678923726,-0.14337050618901848
1761468579711379000,5.44137890625,0.7272901921987533,1.1270336066395044,-0.010901479373127222
1761468579721334000,5.451333984375,0.7055623445153236,1.007639311582595,0.09148030608445405
1761468579731290000,5.4612900390625,0.6275783566027879,0.9196727127075195,0.1563661813624203
1761468579741245000,5.471244873046875,0.5235305376291275,0.8415595454573631,0.1674875870965421
1761468579751200000,5.481199951171875,0.36108313665688035,0.7820017333343625,0.16187530017271637
1761468579761155000,5.491155029296875,0.14085808497667313,0.7360344935379922,0.18125819216519592
1761468579771110100,5.501110107421875,-0.11936930674612521,0.6995696799717843,0.16455460238456726
1761468579781066200,5.511066162109375,-0.3753589147686958,0.6570562338910997,0.0955270972572267
1761468579791021000,5.52102099609375,-0.558789482536912,0.5999008067347109,-0.0023186522059142588
1761468579800976100,5.53097607421875,-0.6327811859428882,0.5355410011574626,-0.08133446738421916
1761468579810931000,5.540930908203125,-0.5677127937048674,0.4282933632291853,-0.14296514025852083
1761468579820886000,5.550885986328125,-0.36069092246890067,0.3056583326853812,-0.20656682094484566
1761468579830841000,5.560841064453125,-0.05921966620981693,0.14182210770323872,-0.256803847014904
1761468579840797000,5.570796875,0.301508081138134,-0.07936389796361326,-0.2758960854977369
1761468579850752000,5.580751953125,0.646646045166254,-0.25053368070423604,-0.27080972214415666
1761468579860707000,5.59070703125,0.9240086960852145,-0.41134003647118805,-0.25543299705311656
1761468579870662000,5.600661865234375,1.1532044052064419,-0.540312745603919,-0.2588034963995218
1761468579880617200,5.6106171875,1.290835929352045,-0.6878526464320719,-0.24817776522785423
1761468579890573000,5.620572998046875,1.3393816413342952,-0.8275240058422089,-0.28005291291624307
1761468579900527900,5.63052783203125,1.316065647676587,-0.9209468242965638,-0.28414865779727694
1761468579910483200,5.640483154296875,1.2658476185679435,-0.978102397583425,-0.23217779367193578
1761468579920438000,5.65043798828125,1.211640227562189,-0.9822212310791015,-0.17549831346422431
1761468579930393000,5.66039306640625,1.1185592082828282,-0.9897693083710968,-0.0886648102723062
1761468579940348200,5.67034814453125,1.008550435078144,-1.0411997820094228,-0.05130933147668838
1761468579950304000,5.680303955078125,0.8305740410625934,-1.0720498244337737,-0.0600181231111288
1761468579960259000,5.690259033203125,0.5850479593873024,-1.0950530988804996,-0.11127163274735212
1761468579970214100,5.700214111328125,0.28827158294618127,-1.0848837331742047,-0.15047157036587594
1761468579980169000,5.7101689453125,-0.0342681803047657,-1.041859414961934,-0.17506167561262845
1761468579990124000,5.7201240234375,-0.3233709533780813,-1.0047542576655746,-0.17457579179182647
1761468580000080100,5.730080078125,-0.6257002877712249,-1.0209429567266255,-0.16421294934004543
1761468580010035000,5.740034912109375,-0.9492436751067638,-1.0182643121019006,-0.20257146769836543
1761468580019990000,5.749989990234375,-1.2284873174667357,-0.9592202947199344,-0.23543021959662436
1761468580029945000,5.759945068359375,-1.452590087363124,-0.908420081809163,-0.22424130158424377
1761468580039900200,5.769900146484375,-1.572830331724882,-0.9109478467211126,-0.2338939499400556
1761468580049856000,5.77985595703125,-1.6052485002487897,-0.9046425360318273,-0.26737390247657894
1761468580059811000,5.78981103515625,-1.6018763934671878,-0.8973375467807054,-0.3007819588206708
1761468580069766100,5.79976611328125,-1.5782167009383439,-0.8998426614694297,-0.3250973387792706
1761468580079721000,5.809720947265625,-1.4854425556510686,-0.9688241354979574,-0.4011629258498549
1761468580089676000,5.819676025390625,-1.384306240209937,-1.021502124979347,-0.5199963721536099
1761468580099631000,5.829631103515625,-1.3257055826812982,-1.0309726947665214,-0.6193829213179648
1761468580109587000,5.8395869140625,-1.2231424493074416,-0.9887881883792579,-0.6812576320812106
1761468580119542000,5.8495419921875,-1.094221470361948,-0.890985109014064,-0.7110926522441208
1761468580129497000,5.8594970703125,-1.000853450834751,-0.8003470989726483,-0.6243577871210872
1761468580139452000,5.869451904296875,-0.9381605555564164,-0.7075128940612078,-0.5062761820979416
1761468580149407200,5.8794072265625,-0.7551601958990096,-0.5745819488219917,-0.48023894678279755
1761468580159363000,5.889363037109375,-0.4416331756651401,-0.48107393630221484,-0.5201555082380771
1761468580169318000,5.89931787109375,-0.2229717200398445,-0.42699660141691564,-0.601361965328455
1761468580179273200,5.909273193359375,-0.2154775648921728,-0.4198784399747848,-0.7623582907095551
1761468580189228000,5.91922802734375,-0.37546295966506005,-0.4374085437074303,-1.0001473483920096
1761468580199183000,5.92918310546875,-0.6954770038306712,-0.37420886795073743,-1.225417116241157
1761468580209138200,5.93913818359375,-1.1122779360562562,-0.2153054231956601,-1.4012960995860397
1761468580219094000,5.949093994140625,-1.5169272427171467,0.10656827736198901,-1.4193427745386957
1761468580229049000,5.959049072265625,-1.7252029134064912,0.4866222180791199,-1.2319764747567474
1761468580239004200,5.969004150390625,-1.710965713739395,0.8584965056024492,-0.9086534521736204
1761468580248959000,5.978958984375,-1.4120920727580786,1.195446633130312,-0.5231725179716944
1761468580258914000,5.9889140625,-0.9981588049232959,1.5210149504221975,-0.18057663964182138
1761468580268870100,5.9988701171875,-0.5100929639071226,1.7800012560427187,0.07311024439632892
1761468580278825000,6.008824951171875,-0.01183247661292553,1.9245868371099233,0.25434008724987506
1761468580288780000,6.018780029296875,0.4226110798090696,1.968918438528478,0.38472938518226146
1761468580298735000,6.028735107421875,0.7617331445485354,1.918530459680408,0.43966063348315654
1761468580308690200,6.038690185546875,0.9843933144211768,1.7940734744064508,0.4342010529030114
1761468580318645000,6.04864501953125,1.0999287420928479,1.70193923445791,0.35199367514178154
1761468580328601000,6.05860107421875,1.1475503249675034,1.64392806725502,0.24648740098811683
1761468580338556200,6.06855615234375,1.1742816800266505,1.6056640953123569,0.1428786310188472
1761468580348511000,6.078510986328125,1.1700929961651563,1.5413191950432956,0.03887318988218903
1761468580358466000,6.088466064453125,1.128002159410715,1.4376101065047084,-0.08685366919711232
1761468580368421000,6.098421142578125,1.0656360118687151,1.3606050466269255,-0.15888737040311096
1761468580378377000,6.108376953125,0.9898866511404514,1.2641681410484016,-0.1969133688714355
1761468580388332000,6.11833203125,1.0107271945953369,1.1941766131944953,-0.14699220381751657
1761468580398287000,6.128287109375,0.9976245519161224,1.065876104234904,-0.12799071235805748
1761468580408243000,6.138242919921875,0.9882827230751514,0.9138540895566344,-0.1558137351114303
1761468580418198000,6.148197998046875,0.9818301859349012,0.7529660468555986,-0.18796236597895621
1761468580428154000,6.158154052734375,0.9267360752224921,0.6110303957752883,-0.22564546929374335
1761468580438109000,6.16810888671875,0.7732441341221332,0.47457361449748275,-0.26686829104200005
1761468580448064000,6.17806396484375,0.5871650976717472,0.3666515844389796,-0.28381825679913164
1761468580458019000,6.18801904296875,0.37668694850206375,0.33761049113273617,-0.2579967100612819
1761468580467974000,6.197973876953125,0.16876491355597972,0.3222407803043723,-0.2662577579282224
1761468580477929200,6.20792919921875,-0.06548749443292617,0.3009957477018237,-0.2668681449115276
1761468580487885000,6.217885009765625,-0.20653437997996807,0.28371654999032614,-0.2481355335213244
1761468580497839900,6.22783984375,-0.2606505855709314,0.2635261410072446,-0.1893387688986957
1761468580507795200,6.237795166015625,-0.19051205046176908,0.20875337120369075,-0.08040281255729496
1761468580517750000,6.24775,0.012132920864224433,0.1539450916953385,0.0375227981865406
1761468580527704800,6.257704833984375,0.27998189350664615,0.02745952320322394,0.1683462497524917
1761468580537661200,6.2676611328125,0.49990766997933384,-0.16402414876967666,0.25073577914759515
1761468580547616000,6.277615966796875,0.6864169145405292,-0.34564708259403704,0.24249811215624212
1761468580557570800,6.28757080078125,0.8221464044570922,-0.5323366521582007,0.1743175061818212
1761468580567526100,6.297526123046875,0.895046220973134,-0.7342820969127118,0.04861841189227998
1761468580577481000,6.30748095703125,0.9374065223187208,-0.9423927862986922,-0.037019086448103186
1761468580587436000,6.31743603515625,0.9781266552418469,-1.1465462624914944,-0.10856741528995334
1761468580597392100,6.32739208984375,1.016833110255003,-1.2685204910390078,-0.13569997156113386
1761468580607347000,6.337346923828125,1.1104080505311489,-1.3918654234178363,-0.15221454157568515
1761468580617302000,6.347302001953125,1.1998054128617048,-1.4862696541249751,-0.157599522549659
1761468580627257000,6.357257080078125,1.2341349679648876,-1.569663684387505,-0.16770035306438802
1761468580637212200,6.367212158203125,1.111761803227663,-1.6156202566593885,-0.18045622813254594
1761468580647168000,6.37716796875,0.8199176224917173,-1.6138441868975757,-0.1306136082075536
1761468580657123000,6.387123046875,0.4261322396725416,-1.4962112024247645,-0.057926630724593996
1761468580667078100,6.397078125,0.14336100770831106,-1.322647071893513,0.014154635950177907
1761468580677033000,6.407032958984375,-0.010630699607729912,-1.2497368801139295,0.09648132924214005
1761468580686988000,6.416988037109375,-0.10900690268576145,-1.2244311739437281,0.10608743504248559
1761468580696943900,6.42694384765625,-0.15344401030540467,-1.2665123660869895,0.017715104910731316
1761468580706899000,6.43689892578125,-0.1986994485706091,-1.3789508506566286,-0.1104579782769084
1761468580716854000,6.44685400390625,-0.23609365194141863,-1.460161399400234,-0.22695158345624802
1761468580726809000,6.45680908203125,-0.3111503542304039,-1.4955838643066584,-0.31684535100162026
1761468580736764000,6.466763916015625,-0.3945815016329288,-1.470322435669601,-0.3683439214400947
1761468580746719200,6.47671923828125,-0.4366974728286266,-1.4152088896043598,-0.4318198568549007
1761468580756675000,6.486675048828125,-0.5302537084043025,-1.3888948831744492,-0.5289496400684118
1761468580766630000,6.4966298828125,-0.6617921763718128,-1.3691339516498147,-0.6949141092509031
1761468580776585200,6.506585205078125,-0.7586585594087839,-1.2840877702660858,-0.8613502145331352
1761468580786540000,6.5165400390625,-0.8413847734123467,-1.1816155300460756,-0.8919469397835433
1761468580796494800,6.526494873046875,-0.9887269597113132,-1.0116134759105742,-0.8536454123094678
1761468580806451200,6.536451171875,-1.159992457911372,-0.8448506959572434,-0.7654450046785175
1761468580816406000,6.546406005859375,-1.2810142080396414,-0.6995655883185565,-0.5788984237816185
1761468580826360800,6.55636083984375,-1.2781383603423833,-0.651771133095026,-0.3776340200938284
1761468580836316200,6.566316162109375,-1.1852438035458326,-0.7009108654476702,-0.2983201718170196
1761468580846271000,6.57627099609375,-1.2045821257442235,-0.7189983108021318,-0.2912196190968156
1761468580856226000,6.58622607421875,-1.581961732685566,-0.6879653130263089,-0.32759536614008244
1761468580866182100,6.59618212890625,-2.304806051391363,-0.4735545005828142,-0.46068223259337243
1761468580876137000,6.606136962890625,-3.1471687299251556,-0.07090265134945511,-0.6536992516133934
1761468580886092000,6.616092041015625,-3.927152401435375,0.4134041293941438,-0.847033958280459
1761468580896047000,6.626047119140625,-4.428455325165391,0.9525723811380564,-0.9543727085582911
1761468580906002000,6.636001953125,-4.4064387236684555,1.4729264806881546,-1.0286901367872954
1761468580915958000,6.6459580078125,-3.7808120856553313,1.8209958219930529,-0.9138819274116307
1761468580925913000,6.6559130859375,-2.5728788959175346,1.9763015345171093,-0.6701402449350804
1761468580935868000,6.665867919921875,-1.0937690504193305,1.933968121178448,-0.4214952275216579
1761468580945823000,6.675822998046875,0.3364461235284805,1.7918579903140663,-0.2273551958210766
1761468580955778000,6.685778076171875,1.586127620193362,1.6149726064056158,-0.08165851170681417
1761468580965733000,6.695733154296875,2.5286229900836945,1.4436973174639045,0.0406545203410089
1761468580975689000,6.70568896484375,3.1658219924688336,1.2658502489164472,0.12790062292180954
1761468580985644000,6.71564404296875,3.5589509572058913,1.081731406623125,0.16569010922051966
1761468580995599000,6.72559912109375,3.6842145826876163,0.9094649146869778,0.1905632691923529
1761468581005554000,6.735553955078125,3.6087779411703345,0.787522104191035,0.23035832315981386
1761468581015509200,6.74550927734375,3.346876478755474,0.7364674781277776,0.23201434673853216
1761468581025465000,6.755465087890625,2.8794056820005176,0.7712367398224771,0.17830906003601849
1761468581035420000,6.765419921875,2.350535536909103,0.8353831949099898,0.09135675277002155
1761468581045375200,6.775375244140625,1.740097115677595,0.9453262094020843,-0.038382702951505775
1761468581055330000,6.785330078125,1.1977040566682815,1.0415718301922083,-0.1500230228807777
1761468581065284900,6.795284912109375,0.6957961527824401,1.1100766266196966,-0.270079946564883
1761468581075241200,6.8052412109375,0.23257599920928476,1.1808696801148355,-0.36481297083497044
1761468581085196000,6.815196044921875,-0.22055998272299765,1.1626796511687338,-0.33817280119061466
1761468581095150800,6.82515087890625,-0.6099234574466943,1.0842675009720026,-0.34226474667936563
1761468581105106200,6.835106201171875,-0.8988613953471183,0.9942552216134964,-0.32492607386559247
1761468581115061000,6.84506103515625,-1.1158669004589319,0.914772373445332,-0.26989552990868687
1761468581125016000,6.85501611328125,-1.2658014413386582,0.8448721771366894,-0.15353724154680967
1761468581134972200,6.86497216796875,-1.3424866216123104,0.7897007634043693,-0.015344137995690106
1761468581144927000,6.874927001953125,-1.3575702089756727,0.7609305959939956,0.08666691445335745
1761468581154882000,6.884882080078125,-1.3314438340723513,0.753666596340388,0.16928265381976962
1761468581164837000,6.894837158203125,-1.3054770336449146,0.7321693425424397,0.2058184867955744
1761468581174792000,6.9047919921875,-1.2576403467148543,0.7613910531125962,0.14370061492621897
1761468581184748000,6.914748046875,-1.041760630762577,0.7764993365257978,0.06451528839990496
1761468581194703000,6.924703125,-0.6791553991049528,0.7140029867328703,-0.001880406919121742
1761468581204658000,6.934657958984375,-0.2550175481200218,0.5841220767140388,-0.07120835629776119
1761468581214613000,6.944613037109375,0.174525376778841,0.44701399192065,-0.15896818055436016
1761468581224568000,6.954568115234375,0.6107067167788743,0.3191720403835177,-0.3127136580243707
1761468581234524000,6.96452392578125,1.0432260271400213,0.17528291714787483,-0.4281388302545994
1761468581244479000,6.97447900390625,1.4506266783356665,-0.005176525855064392,-0.5136030178546905
1761468581254434000,6.98443408203125,1.8264198928683995,-0.17807722404152154,-0.5564578247189521
1761468581264389000,6.99438916015625,2.0871663400292397,-0.34399142434149976,-0.5944200372360646
1761468581274344000,7.004343994140625,2.246496485763788,-0.49718730510473247,-0.6156697460137307
1761468581284299000,7.014299072265625,2.2334347596168516,-0.6239689339339732,-0.6392219595801085
1761468581294255000,7.024255126953125,2.094534238448739,-0.6463071686007082,-0.6325748497158289
1761468581304210000,7.0342099609375,1.9031424825429915,-0.6217822375446558,-0.5918980444777756
1761468581314165000,7.0441650390625,1.6652765602320432,-0.5669546688139439,-0.47270424042902887
1761468581324120000,7.0541201171875,1.442293149754405,-0.5334953206740319,-0.36750381735414267
1761468581334075000,7.064074951171875,1.2649714202553033,-0.5025010474734009,-0.311448095067963
1761468581344031000,7.074031005859375,1.028282140508294,-0.4875836104571819,-0.2575301154628396
1761468581353986000,7.083986083984375,0.7878115886569023,-0.5564738990709185,-0.2555324388395995
1761468581363940900,7.09394091796875,0.634566315793991,-0.6584601093396544,-0.27763934896849096
1761468581373896200,7.103896240234375,0.5568599757790565,-0.7723905860327184,-0.35598895532302555
1761468581383851000,7.11385107421875,0.41645197265744205,-0.8872356933526694,-0.38479207515493036
1761468581393806800,7.123806884765625,0.16287117934226988,-0.9831607038863003,-0.4473218888260424
1761468581403762200,7.13376220703125,-0.04433832342028617,-0.9929406318835914,-0.46135275226607914
1761468581413717200,7.14371728515625,-0.25060440785288807,-1.038014137710631,-0.4454094793334603
1761468581423672300,7.15367236328125,-0.5286813445210456,-1.0690713931448756,-0.44128903840258715
1761468581433627100,7.163627197265625,-0.7667799065440892,-1.0380360572814942,-0.3944254342883825
1761468581443582200,7.173582275390625,-0.9411299267560244,-1.0032074666149913,-0.3640199207611382
1761468581453538300,7.183538330078125,-1.0673580133557319,-0.947084597376734,-0.31620442274957894
1761468581463493000,7.1934931640625,-1.1716332113444805,-0.9232761440269649,-0.2834440166592598
1761468581473448200,7.2034482421875,-1.2693851450443268,-0.888485985674709,-0.25877353965267536
1761468581483403300,7.2134033203125,-1.3134054885566233,-0.9089449824661016,-0.24115911863744258
1761468581493358000,7.223358154296875,-1.3706518088668584,-0.9505354684829711,-0.25231793377250433
1761468581503314200,7.233314208984375,-1.4301099600076674,-0.9518032964617014,-0.23780849303528664
1761468581513269200,7.243269287109375,-1.4746289006918667,-0.9742255561500787,-0.14246230530291795
1761468581523224000,7.25322412109375,-1.4689508550554513,-1.0505291897602378,0.0062229661680758
1761468581533179400,7.263179443359375,-1.4295634320408106,-1.024001248318702,0.03663198682665825
1761468581543134200,7.27313427734375,-1.4427601827442644,-0.95343308962062,-0.017596739228069782
1761468581553090000,7.283090087890625,-1.650315722465515,-0.9207327431544661,-0.1123766713798046
1761468581563045400,7.29304541015625,-2.045909616011381,-0.8294174183733761,-0.2552572020947933
1761468581573000200,7.303000244140625,-2.598150699818134,-0.6510569934763014,-0.42901451711058614
1761468581582955000,7.312955078125,-3.102389092478156,-0.34723318274170156,-0.5718718130804598
1761468581592910300,7.322910400390625,-3.4574645131528374,0.015990473075211047,-0.6289698109611869
1761468581602865200,7.332865234375,-3.670857088464498,0.37792058195024725,-0.6441307013444603
1761468581612821000,7.342821044921875,-3.6169209156155584,0.8220126950748264,-0.5324747454546391
1761468581622776300,7.3527763671875,-3.2148388290941714,1.2413688647411762,-0.3281006853137165
1761468581632731100,7.362731201171875,-2.5147920331299303,1.607392088148743,-0.1222687545146793
1761468581642686200,7.372686279296875,-1.647967698034644,1.8621632602922618,0.08376710135862231
1761468581652641300,7.382641357421875,-0.6883423296451568,1.98946248325482,0.23297625057324767
1761468581662597000,7.39259716796875,0.22310908268392085,2.0214668102808298,0.2838700600516051
1761468581672552200,7.40255224609375,1.0965355925232172,1.9482237332850694,0.30326807654798027
1761468581682507300,7.41250732421875,1.8243641293823718,1.7767952996082603,0.2849725414007902
1761468581692462000,7.422462158203125,2.3378677785158155,1.5936004402920603,0.2220616194576025
1761468581702417200,7.432417236328125,2.6349913609594107,1.414203219693154,0.10230554188359528
1761468581712373200,7.442373291015625,2.735290641054511,1.298806031448394,-0.06240878110732883
1761468581722328000,7.452328125,2.6622692439854143,1.2046459847606719,-0.20738672249298543
1761468581732283100,7.462283203125,2.4918524715691803,1.1436565323993564,-0.2961162685645744
1761468581742238200,7.47223828125,2.2599422427922486,1.1448917732827364,-0.38132483743578194
1761468581752193300,7.482193359375,2.0385832186460493,1.166060818039626,-0.42044926213268186
1761468581762148000,7.492148193359375,1.7625784120768309,1.1708859001085161,-0.4222448037799448
1761468581772104200,7.502104248046875,1.5306529857307671,1.1623384365156293,-0.405506873338297
1761468581782059300,7.512059326171875,1.2922744377225637,1.164219574087113,-0.39151217719018455
1761468581792014000,7.52201416015625,1.049041435420513,1.1277519840419292,-0.3655849050555378
1761468581801969400,7.531969482421875,0.835207546082139,1.0376194393046199,-0.32449462364576753
1761468581811924200,7.54192431640625,0.6328717868357896,0.925501857252419,-0.27740101016797125
1761468581821880000,7.551880126953125,0.5537199241876601,0.8151976082324981,-0.21604761986508964
1761468581831835400,7.56183544921875,0.5671878930479288,0.6856055981576442,-0.07326521576233208
1761468581841790200,7.571790283203125,0.5893769285023213,0.5578145000249147,0.08818170293048024
1761468581851745000,7.5817451171875,0.5527005180120468,0.42026115568205713,0.21551146716177463
1761468581861700400,7.591700439453125,0.4091115467667579,0.26023031433224675,0.2366773701135069
1761468581871656200,7.60165625,0.19006430669426916,0.1412353938564658,0.20669906902238724
1761468581881611000,7.611611083984375,-0.06825462105870246,0.01819865064397454,0.16149448416158557
1761468581891566300,7.62156640625,-0.2512678401976824,-0.0900689779818058,0.15471103456653654
1761468581901521200,7.631521240234375,-0.2906459108620882,-0.16050488860234619,0.19604265045151115
1761468581911476200,7.641476318359375,-0.2254939319938421,-0.27582506608814,0.28487134604863823
1761468581921431300,7.651431396484375,-0.13782792350053785,-0.4075385983616113,0.3475552543029189
1761468581931387100,7.66138720703125,-0.014418401452898978,-0.49823286863490934,0.3769595548983663
1761468581941342200,7.67134228515625,0.1458265210390091,-0.6214454068057239,0.45072077401671556
1761468581951297300,7.68129736328125,0.32008067966103554,-0.7910295277900994,0.4675731246182695
1761468581961252000,7.691252197265625,0.5363531943231821,-0.9675070615500211,0.42248493267875165
1761468581971207200,7.701207275390625,0.7227297524154186,-1.177511601858586,0.3386490404002368
1761468581981163300,7.711163330078125,0.8239286116987466,-1.3367194363877177,0.2707899579977617
1761468581991118000,7.7211181640625,0.7850175740242004,-1.4393871991798282,0.17763780971094964
1761468582001073200,7.7310732421875,0.7073357839286327,-1.4948168254569172,0.03279609845820814
1761468582011028200,7.7410283203125,0.6751105076283216,-1.5579352526709436,-0.09239376766756176
1761468582020983300,7.7509833984375,0.5831085157573223,-1.6414920722797512,-0.19499610054064542
1761468582030939100,7.760939208984375,0.4581768987089395,-1.6596083053372799,-0.3121026865191758
1761468582040894200,7.770894287109375,0.30619360860586164,-1.6343718650110064,-0.4202544336803257
1761468582050849300,7.780849365234375,0.15341478421092034,-1.591219390374422,-0.503253838602081
1761468582060804000,7.79080419921875,-0.13370470609068869,-1.4649002644903957,-0.547860019178316
1761468582070759400,7.800759521484375,-0.4716016129493713,-1.2968138347178697,-0.5901407524816692
1761468582080715300,7.81071533203125,-0.6976426574319601,-1.1341210806824267,-0.6557741581913084
1761468582090670000,7.820670166015625,-0.8325614154875278,-1.021264078439772,-0.7046252097956835
1761468582100625200,7.830625244140625,-0.9176923525452614,-0.9451979068472981,-0.7577944899253547
1761468582110580200,7.840580322265625,-0.8866396271556616,-0.8923435378856956,-0.7228137043718248
1761468582120535000,7.85053515625,-0.7651713023036718,-0.8313350885629653,-0.7204197949726134
1761468582130490400,7.860490478515625,-0.6113701491236686,-0.8257200251601636,-0.6772261846080422
1761468582140446200,7.8704462890625,-0.44928164459168907,-0.7974360338315367,-0.5914476703617721
1761468582150401000,7.880401123046875,-0.3119984954923391,-0.7665418600045144,-0.5460295888807625
1761468582160356400,7.8903564453125,-0.2641191384643316,-0.7539663099393248,-0.49473457819037137
1761468582170311200,7.900311279296875,-0.3676981708824634,-0.6797251618169248,-0.4679649004148319
1761468582180266200,7.910266357421875,-0.5244277787297964,-0.5646867238819598,-0.4773470977988094
1761468582190222300,7.920222412109375,-0.7271446462482214,-0.39399025774151086,-0.44239670738354325
1761468582200177200,7.93017724609375,-0.9240192174792289,-0.29700974680557846,-0.32891244008801873
1761468582210132200,7.94013232421875,-1.0094406619161367,-0.30436814674437046,-0.22156243776381015
1761468582220087300,7.95008740234375,-0.930830066537857,-0.1720930350653827,-0.22826672117542474
1761468582230042000,7.9600419921875,-0.8579466166347265,-0.09726020466014743,-0.29302210194151845
1761468582239998200,7.969998291015625,-0.8627093009918928,-0.1917237643390894,-0.40983186039794234
1761468582249953300,7.979953369140625,-1.04822661190629,-0.303741393148154,-0.5099427783140912
1761468582259908000,7.989908203125,-1.2967653194010258,-0.2544178286612034,-0.6356067647576332
1761468582271729200,8.001729248046875,-1.4870985061645507,-0.10882482411712407,-0.7100798219397664
1761468582281684200,8.011684326171874,-1.5567068799197672,0.1521359964467585,-0.6851783126562834
1761468582291640300,8.021640380859376,-1.4320195930212736,0.43196065356507896,-0.5327127919942141
1761468582301595100,8.03159521484375,-1.2089473352164029,0.7599277025617659,-0.3574204128982499
1761468582311550200,8.04155029296875,-0.9202239168494939,1.097506629512459,-0.20219141887221484
1761468582321505000,8.051505126953124,-0.6050608198463916,1.333136024942994,-0.11781009460538625
1761468582331460400,8.06146044921875,-0.2846504698395729,1.3792717531740664,-0.15025032883062958
1761468582341416200,8.071416259765625,0.1485404561728239,1.3602214541368185,-0.25013876310251654
1761468582351371300,8.081371337890625,0.6985802305430173,1.267013009085506,-0.32246030480656773
1761468582361326300,8.091326416015624,1.2067810970932245,1.1247612777933478,-0.2586566718073562
1761468582371281200,8.10128125,1.5857167013049125,0.9775903564080596,-0.00576937718167901
1761468582381236000,8.111236083984375,1.804945143163204,0.8883049300193786,0.23285006691031157
1761468582391191300,8.12119140625,1.8632728289693592,0.8765364585533738,0.30999910183604806
1761468582401147100,8.131147216796874,1.7549030551433562,0.885509600212425,0.30547190673518926
1761468582411101700,8.141101806640625,1.5159054984539746,0.9032187137737869,0.2313819671191275
1761468582421057000,8.15105712890625,1.184646422174573,0.937532779046893,0.1453790329998359
1761468582431011800,8.16101171875,0.7189028876036405,1.0096250785723329,0.07112345449328422
1761468582440967000,8.170966796875,0.3526555000513792,1.0973758427396416,-0.008311682075634598
1761468582450923000,8.180923095703125,0.12936346201598645,1.1599956727817653,-0.055196913499757645
1761468582460877800,8.1908779296875,0.08171031495928764,1.1992444179780781,-0.025441899770498273
1761468582470833000,8.2008330078125,0.22113398321866987,1.2374946536563336,0.1704416876617819
1761468582480788000,8.2107880859375,0.38155835393071175,1.1628446324720978,0.43173707394227384
1761468582490743000,8.220742919921875,0.46266778038740153,0.9911932036943734,0.4514489056281745
1761468582500699000,8.230698974609375,0.38731998619735236,0.8109595322713256,0.31115408055745064
1761468582510654000,8.240654052734374,0.1508276903271675,0.6618950522243976,0.2248978657968342
1761468582520609000,8.250609130859376,-0.02195464217662811,0.5634815858758986,0.15117526165582237
1761468582530563800,8.260563720703125,-0.07839023062586783,0.4820376667678356,0.019048399341106415
1761468582540519000,8.270518798828125,-0.10100713610351085,0.3995176428608596,-0.0015223872616887092
1761468582550475000,8.28047509765625,-0.06746317842006683,0.38080578199774023,0.00663848816640675
1761468582560429800,8.290429931640626,-0.05516834499239921,0.3579327098019421,-0.03396152550838887
1761468582570385000,8.300385009765625,-0.0030868600994348526,0.31091449964791534,-0.04694324522167444
1761468582580340000,8.310340087890625,0.005382862082123756,0.33715324888452886,-0.0452276004102081
1761468582590294800,8.320294677734376,-0.010228548547625541,0.37284298642501235,-0.018406521240994334
1761468582600250000,8.33025,0.11338146450817585,0.3195525641337037,0.06520538955591619
1761468582610828800,8.340828857421876,0.6507645864009857,0.04860781743302941,0.1379874979764223
1761468582620783900,8.350783935546875,0.8521019822597503,-0.09462781032994388,0.16707593755573033
1761468582630740000,8.360739990234375,0.966250339487195,-0.1802088292427361,0.27756927940696474
1761468582640694800,8.37069482421875,0.8993307664245367,-0.23914646364077924,0.389253365412727
1761468582650649900,8.38064990234375,0.7444938404560089,-0.2676606104634702,0.4149897911503911
1761468582660605000,8.39060498046875,0.6197270585805177,-0.29675051134750247,0.3653730158705264
1761468582670560000,8.40056005859375,0.540469397470355,-0.34393472571820016,0.19770561522766947
1761468582680516000,8.41051611328125,0.4617693702429533,-0.4259568100403994,0.05301693911217153
1761468582690471000,8.420470947265626,0.3080027038544416,-0.5256289712131023,0.07444441560953854
1761468582700426000,8.430426025390625,0.2033119108021259,-0.6547687074758112,0.10901252870894967
1761468582710380800,8.440380859375,0.20451018067598342,-0.7900333563596009,0.18451076422035692
1761468582720336000,8.4503359375,0.3269809605687857,-0.8404665625888854,0.23539032597765325
1761468582730292000,8.4602919921875,0.3233586784183979,-0.8599798760280013,0.22575294825620948
1761468582740247000,8.4702470703125,0.20930852086842058,-0.9051293697007,0.3175431240074336
1761468582750201900,8.480201904296875,0.17210311806797982,-0.8863088608313351,0.3679797643028199
1761468582760157000,8.490156982421874,0.07054302425682545,-0.8813212086118757,0.2974037145592272
1761468582770111700,8.50011181640625,-0.18217793735861776,-0.9212672884225844,0.10394757346957921
1761468582780067800,8.51006787109375,-0.5990080956786871,-0.9968328170165419,-0.2485338851891458
1761468582790023000,8.52002294921875,-1.0812608665019272,-0.9758963389065116,-0.5346824846319854
1761468582799977700,8.529977783203124,-1.544900122269988,-0.9394964072700589,-0.5713280615925789
1761468582809933000,8.53993310546875,-1.8383096526265144,-0.884348593609035,-0.3661333327185362
1761468582819887900,8.549887939453125,-1.7946248246788978,-0.7859487904597073,-0.06964929028749466
1761468582829844000,8.559843994140625,-1.3612182100892065,-0.6431126103430986,0.1385248927887529
1761468582839799000,8.569799072265624,-0.8083429200321436,-0.5331617778707295,0.24698833624757824
1761468582849753900,8.57975390625,-0.3659516194760799,-0.5178880016975105,0.26851423161812127
1761468582859708700,8.589708740234375,-0.1862941405057907,-0.553788824705407,0.18187931973822413
1761468582869664000,8.5996640625,-0.24637656102478503,-0.6205007463667541,0.03424341118969023
1761468582879619800,8.609619873046874,-0.4455827900737524,-0.6078555651314557,-0.17913769287988543
1761468582889575000,8.619574951171876,-0.6463239736050367,-0.5430176937136799,-0.33161621915400025
1761468582899530000,8.629530029296875,-0.8487631932258606,-0.567830867126584,-0.2744794236328453
1761468582909484800,8.63948486328125,-0.9567045125067234,-0.6679761987689882,-0.1985962804570794
1761468582919440000,8.64943994140625,-0.8059814515978098,-0.6779790488019585,-0.2896315461877733
1761468582929396000,8.65939599609375,-0.5753402198433876,-0.6754561061955988,-0.46333530438542364
1761468582939350800,8.669350830078125,-0.45336920616626736,-0.6787088243812323,-0.5331098284877837
1761468582949306000,8.67930615234375,-0.517246342793107,-0.6888048325903713,-0.6597932576395571
1761468582959261000,8.689260986328126,-0.769313224413991,-0.6476948235668242,-0.896102232832089
1761468582969215700,8.6992158203125,-1.1414122606039045,-0.4634668218106031,-1.1240445808913557
1761468582979172000,8.709172119140625,-1.5247627586483954,-0.19392595055848358,-1.189251650947705
1761468582989127000,8.719126953125,-1.817041823670268,0.09061214494779705,-1.1224038279470057
1761468582999081700,8.729081787109376,-1.913671475341916,0.4108427544735372,-0.8777841205269098
1761468583009036800,8.739036865234375,-1.835940000885725,0.6665086834996938,-0.5708241306584328
1761468583018991900,8.748991943359375,-1.6359528505921364,0.9257584623619913,-0.2767513871528208
1761468583028947700,8.75894775390625,-1.2723860804259777,1.1682485373422502,-0.04501476137712598
1761468583038903000,8.768903076171876,-0.8311831128716468,1.3992818371541798,0.17241539888754487
1761468583048857900,8.77885791015625,-0.3506149341344833,1.557993266468495,0.36354178185537456
1761468583058813000,8.78881298828125,0.11902677691876888,1.6130533287808297,0.44947731329426166
1761468583068767700,8.798767822265624,0.544410244050622,1.6517337725698946,0.4316853437550366
1761468583078723800,8.808723876953126,0.8688789295375346,1.6233799308754502,0.3819412157684564
1761468583088679000,8.818678955078125,1.1095821211010217,1.5134809016555546,0.33564094462543725
1761468583098634000,8.828634033203125,1.325562374818325,1.348365742778778,0.3008591887753457
1761468583108589000,8.838589111328124,1.4781874699562787,1.2125889065891504,0.24184103648699817
1761468583118544000,8.8485439453125,1.51555946149528,1.1246866051219404,0.09369505952447653
1761468583128500000,8.8585,1.365915427994728,1.067050993233174,0.016343743492290376
1761468583138455000,8.868455078125,1.0421569366037844,1.075475414968282,-0.10133717177547513
1761468583148409900,8.878409912109374,0.6535358046799897,1.1303227113127707,-0.20004333746023475
1761468583158365000,8.888364990234376,0.3219745305836201,1.2174094586133957,-0.21490685233213006
1761468583168320000,8.898320068359375,0.14600246212780474,1.3080509757861494,-0.3212573222249746
1761468583178275800,8.90827587890625,0.04438450064957142,1.2040940499663353,-0.46445378702133894
1761468583188231000,8.91823095703125,0.06502747570574283,1.0701200254149734,-0.579315553215146
1761468583198186000,8.92818603515625,0.2536199562817812,0.9670807989619672,-0.6623421384047716
1761468583208140800,8.938140869140625,0.4830535658121109,0.8252620522595941,-0.5987219722136855
1761468583218095900,8.948095947265625,0.5744605143994093,0.6773359285928309,-0.5946390137489884
1761468583228052000,8.958052001953124,0.8649433436542749,0.48774391558542846,-0.5037061124142259
1761468583238006800,8.9680068359375,0.9283879340827464,0.24871318727880715,-0.06736008337177336
1761468583247962000,8.977962158203125,0.8692927710354328,0.3704056762754917,-0.054530996936932204
1761468583257917000,8.9879169921875,0.7523579979598521,0.39578050215914845,0.12222513456866145
1761468583267871700,8.997871826171876,0.6175456228882074,0.3177906690277159,0.23747385425344109
1761468583277828000,9.007828125,0.4832002808064222,0.29299364303201436,0.21237579948455093
1761468583287783000,9.017782958984375,0.3092974198400974,0.30936317855268713,0.2482091832794249
1761468583297737700,9.02773779296875,0.09750877259373664,0.2366018937245011,0.26785949403643605
