time,seconds_elapsed,z,y,x
1761468574333096700,0.0630966796875,0.14759884774684906,-0.23634344339370728,-0.19538037478923798
1761468574343052000,0.073052001953125,0.1431344747543335,-0.17435266077518463,-0.19346746802330017
1761468574353006800,0.0830068359375,0.1357351541519165,-0.09478594362735748,-0.17687784135341644
1761468574362961700,0.092961669921875,0.1237526461482048,-0.02329573594033718,-0.13910119235515594
1761468574372916700,0.102916748046875,0.10662079602479935,0.007561780046671629,-0.07888790965080261
1761468574382871800,0.112871826171875,0.09140152484178543,-0.006796782836318016,-0.005192562937736511
1761468574392827600,0.12282763671875,0.08498623222112656,-0.056255679577589035,0.0654270127415657
1761468574402783200,0.132783203125,0.07754615694284439,-0.12264370173215866,0.11291226744651794
1761468574412738000,0.142738037109375,0.07187309116125107,-0.1754818707704544,0.13312272727489471
1761468574422693000,0.152693115234375,0.06974463909864426,-0.18025627732276917,0.12331950664520264
1761468574432648000,0.16264794921875,0.07442780584096909,-0.14902912080287933,0.09763544797897339
1761468574442603000,0.17260302734375,0.08439581096172333,-0.09827210009098053,0.056098759174346924
1761468574452559000,0.18255908203125,0.09538161754608154,-0.036166392266750336,0.015482354909181595
1761468574462514200,0.19251416015625,0.10827812552452087,0.024734942242503166,-0.013630006462335587
1761468574472469000,0.202468994140625,0.12306639552116394,0.07334934920072556,-0.021867962554097176
1761468574482424000,0.212424072265625,0.13175101578235626,0.09324903041124344,-0.025396469980478287
1761468574492379000,0.22237890625,0.13000372052192688,0.09032408148050308,-0.0193987637758255
1761468574502334200,0.232334228515625,0.1219804659485817,0.0746009573340416,-0.010878226719796658
1761468574512290000,0.2422900390625,0.11240720003843307,0.05049801990389824,0.0017811093712225556
1761468574522245000,0.2522451171875,0.10738042742013931,0.013616519048810005,0.0036085499450564384
1761468574532200200,0.2622001953125,0.10427411645650864,-0.035898834466934204,-0.007067796774208546
1761468574542155000,0.272155029296875,0.09554038941860199,-0.0696738064289093,-0.0214771069586277
1761468574552110000,0.282110107421875,0.08215667307376862,-0.06805300712585449,-0.028056979179382324
1761468574562065200,0.292065185546875,0.0650561973452568,-0.03693051263689995,-0.028876613825559616
1761468574572020000,0.30202001953125,0.05874530225992203,0.00535329757258296,-0.04008825868368149
1761468574581976000,0.31197607421875,0.06577669084072113,0.03029351681470871,-0.06771352887153625
1761468574591931100,0.32193115234375,0.07834494858980179,0.043204519897699356,-0.09473049640655518
1761468574601886000,0.331885986328125,0.08356767147779465,0.05735629424452782,-0.10402865707874298
1761468574611841000,0.341841064453125,0.08013459295034409,0.0670885518193245,-0.09308946132659912
1761468574621796000,0.351796142578125,0.06953024864196777,0.06256172060966492,-0.06337085366249084
1761468574631751200,0.361751220703125,0.059620898216962814,0.04519231617450714,-0.031672317534685135
1761468574641707000,0.37170703125,0.04931339994072914,0.018577514216303825,-0.004112991504371166
1761468574651662000,0.381662109375,0.04153936728835106,-0.006509729195386171,0.014464687556028366
1761468574661617200,0.3916171875,0.04180973023176193,-0.021949755027890205,0.019459465518593788
1761468574671572000,0.401572021484375,0.04021716117858887,-0.03526609390974045,0.009988998994231224
1761468574681527000,0.411527099609375,0.030916709452867508,-0.04121256619691849,-0.006696753669530153
1761468574691482000,0.421482177734375,0.014945467002689838,-0.04302804172039032,-0.02163628861308098
1761468574701438000,0.43143798828125,-0.0008207667851820588,-0.05153897777199745,-0.03466039523482323
1761468574711393000,0.44139306640625,-0.010054212994873524,-0.06014018878340721,-0.04417134076356888
1761468574721348000,0.45134814453125,-0.01805376261472702,-0.07304716110229492,-0.05145581066608429
1761468574731303000,0.461302978515625,-0.0258051585406065,-0.08830760419368744,-0.05562339350581169
1761468574741258200,0.47125830078125,-0.04055070877075195,-0.0862158015370369,-0.04545966163277626
1761468574751213000,0.481213134765625,-0.06148821488022804,-0.04821515828371048,-0.030976856127381325
1761468574761169000,0.4911689453125,-0.07682344317436218,-0.012365365400910378,-0.02319641038775444
1761468574771124200,0.501124267578125,-0.08842416852712631,0.016609562560915947,-0.02025015652179718
1761468574781079000,0.5110791015625,-0.08940038084983826,0.029955029487609863,-0.023851266130805016
1761468574791033900,0.521033935546875,-0.08855988830327988,0.030874084681272507,-0.026364490389823914
1761468574800989200,0.5309892578125,-0.08719182014465332,0.019028758630156517,-0.02311815321445465
1761468574810944000,0.540944091796875,-0.08527781069278717,-0.0023670766968280077,-0.018972940742969513
1761468574820899800,0.55089990234375,-0.08052821457386017,-0.03200709819793701,-0.015380027703940868
1761468574830855200,0.560855224609375,-0.0797007754445076,-0.06888602674007416,-0.01692892238497734
1761468574840810000,0.57081005859375,-0.08838187903165817,-0.09963245689868927,-0.0200185626745224
1761468574850765000,0.58076513671875,-0.10458748042583466,-0.1038447767496109,-0.014794772490859032
1761468574860720000,0.59072021484375,-0.12319722026586533,-0.07558104395866394,0.0013741679722443223
1761468574870675200,0.60067529296875,-0.1333950012922287,-0.0300857312977314,0.01842159405350685
1761468574880631000,0.610631103515625,-0.1337561160326004,0.019593941047787666,0.030604224652051926
1761468574890586000,0.620586181640625,-0.12976405024528503,0.056703224778175354,0.038777463138103485
1761468574900541200,0.630541259765625,-0.1207520142197609,0.07773289829492569,0.03764566034078598
1761468574910496000,0.64049609375,-0.11170072853565216,0.0782594084739685,0.03374892473220825
1761468574920451000,0.650451171875,-0.10064025223255157,0.0535903163254261,0.01943948306143284
1761468574930406100,0.66040625,-0.09955847263336182,0.01329562533646822,-0.0008998780976980925
1761468574940362000,0.670362060546875,-0.09673552960157394,-0.012565919198095798,-0.012762983329594135
1761468574950317000,0.680317138671875,-0.0972583070397377,-0.025658018887043,-0.017528709024190903
1761468574960272100,0.690272216796875,-0.09628864377737045,-0.034283846616744995,-0.017444096505641937
1761468574970227000,0.70022705078125,-0.09512457996606827,-0.03667536750435829,-0.02083776332437992
1761468574980182300,0.710182373046875,-0.09602770954370499,-0.03294564411044121,-0.025509266182780266
1761468574990137000,0.72013720703125,-0.0966373085975647,-0.03291768208146095,-0.029905878007411957
1761468575000092000,0.730091796875,-0.09186902642250061,-0.04243195429444313,-0.03651362285017967
1761468575010048300,0.74004833984375,-0.08724737167358398,-0.053220685571432114,-0.03528404235839844
1761468575020003000,0.750003173828125,-0.07813131809234619,-0.05344631150364876,-0.026715964078903198
1761468575029958000,0.7599580078125,-0.07104437798261642,-0.0413086898624897,-0.012619853019714355
1761468575039913200,0.769913330078125,-0.06688063591718674,-0.03684600815176964,-0.007284705992788076
1761468575049868000,0.779867919921875,-0.061632610857486725,-0.045243486762046814,-0.008451437577605247
1761468575059823000,0.789822998046875,-0.05594857409596443,-0.0431695319712162,-0.01027770433574915
1761468575069779200,0.799779296875,-0.04803179204463959,-0.030670784413814545,-0.012729411013424397
1761468575079734000,0.809734130859375,-0.04042074456810951,-0.028190050274133682,-0.01091153733432293
1761468575089689000,0.819689208984375,-0.036820683628320694,-0.03244072198867798,-0.01711723394691944
1761468575099644000,0.829643798828125,-0.030055297538638115,-0.03222791850566864,-0.018084989860653877
1761468575109599200,0.83959912109375,-0.025558816269040108,-0.018609577789902687,-0.011991145089268684
1761468575119554000,0.849553955078125,-0.02438553422689438,-0.0011208470677956939,-0.0013887975364923477
1761468575129510100,0.85951025390625,-0.027600502595305443,0.00045414635678753257,0.00626858975738287
1761468575139465200,0.86946533203125,-0.02769525721669197,-0.013653322122991085,0.006217824295163155
1761468575149420000,0.879419921875,-0.027166619896888733,-0.0295444056391716,-0.002735456917434931
1761468575159374800,0.889374755859375,-0.02974088490009308,-0.02718079462647438,-0.005091710016131401
1761468575169330200,0.899330078125,-0.028572289273142815,-0.015190180391073227,-0.007691222243010998
1761468575179285000,0.909284912109375,-0.02564462274312973,-0.00982982199639082,-0.014826741069555283
1761468575189241000,0.919240966796875,-0.02137291245162487,-0.01637427508831024,-0.02727408893406391
1761468575199196200,0.929196044921875,-0.02100539579987526,-0.021543588489294052,-0.0387536995112896
1761468575209151000,0.93915087890625,-0.02641880325973034,-0.021696453914046288,-0.04178597405552864
1761468575219106000,0.94910595703125,-0.02822096459567547,-0.0239337757229805,-0.040854666382074356
1761468575229061000,0.95906103515625,-0.03201517090201378,-0.04052979499101639,-0.03926928713917732
1761468575239016000,0.969015869140625,-0.03640400618314743,-0.041113998740911484,-0.039404209703207016
1761468575248972300,0.97897216796875,-0.04268001392483711,-0.03430376574397087,-0.03660549223423004
1761468575258927000,0.988927001953125,-0.04272022843360901,-0.023090938106179237,-0.02971743978559971
1761468575268882000,0.9988818359375,-0.04079556092619896,-0.009236374869942665,-0.023260604590177536
1761468575278837000,1.0088369140625,-0.04001631587743759,-0.0024865337181836367,-0.021559616550803185
1761468575288792000,1.0187919921875,-0.039627231657505035,0.002670677611604333,-0.015711313113570213
1761468575298747100,1.0287470703125,-0.04303447902202606,0.005919408518821001,-0.008518409915268421
1761468575308703000,1.038702880859375,-0.047687556594610214,-0.005332180764526129,-0.007199079729616642
1761468575318658000,1.048657958984375,-0.05003561079502106,-0.02638363465666771,-0.011661930941045284
1761468575328613000,1.058613037109375,-0.053810641169548035,-0.04144194349646568,-0.02315373718738556
1761468575338568000,1.06856787109375,-0.061536312103271484,-0.047830406576395035,-0.03194524720311165
1761468575348523300,1.078523193359375,-0.06908982992172241,-0.04270515218377113,-0.035531725734472275
1761468575358478000,1.08847802734375,-0.07256750017404556,-0.03393114358186722,-0.039958421140909195
1761468575368433000,1.098432861328125,-0.06997144967317581,-0.02751825377345085,-0.043153680860996246
1761468575378389200,1.10838916015625,-0.07032521814107895,-0.027935227379202843,-0.04128381609916687
1761468575388344000,1.118343994140625,-0.07694876939058304,-0.02269066497683525,-0.03507145494222641
1761468575398298600,1.128298583984375,-0.08294013887643814,-0.007979989983141422,-0.022834332659840584
1761468575408253700,1.138253662109375,-0.0874888226389885,-0.0023548612371087074,-0.012669580057263374
1761468575418208800,1.148208740234375,-0.08492264896631241,-0.013010263442993164,-0.005181138403713703
1761468575428163800,1.158163818359375,-0.08135374635457993,-0.03126569837331772,0.001960660330951214
1761468575438120000,1.168119873046875,-0.07393598556518555,-0.0454622358083725,0.006376761011779308
1761468575448074800,1.17807470703125,-0.07373971492052078,-0.05666562169790268,0.008289443328976631
1761468575458029800,1.18802978515625,-0.07390078157186508,-0.05886426195502281,0.00910351425409317
1761468575467984600,1.197984619140625,-0.07364405691623688,-0.05999663844704628,0.002176366513594985
1761468575477940000,1.20793994140625,-0.0770534798502922,-0.05888358876109123,-0.004043308552354574
1761468575487894800,1.217894775390625,-0.0812559500336647,-0.04600001499056816,-0.004101631697267294
1761468575497850600,1.2278505859375,-0.08391767740249634,-0.03711679205298424,-0.003227619221433997
1761468575507806000,1.237805908203125,-0.08672917634248734,-0.04184310510754585,-0.0025581002701073885
1761468575517760800,1.2477607421875,-0.0824834555387497,-0.049064021557569504,-0.005555259063839912
1761468575527715600,1.257715576171875,-0.08489201962947845,-0.058687884360551834,-0.00896543636918068
1761468575537671000,1.2676708984375,-0.08580740541219711,-0.0688859298825264,-0.014482091180980206
1761468575547625700,1.277625732421875,-0.08924687653779984,-0.07242021709680557,-0.018219836056232452
1761468575557580800,1.287580810546875,-0.0957195833325386,-0.06058461219072342,-0.02016771025955677
1761468575567537000,1.297536865234375,-0.1000746488571167,-0.04884885996580124,-0.02209530584514141
1761468575577491700,1.30749169921875,-0.10264412313699722,-0.04394214227795601,-0.02330637350678444
1761468575587446800,1.31744677734375,-0.102773018181324,-0.03493053838610649,-0.022060547024011612
1761468575597401900,1.32740185546875,-0.10283762216567993,-0.01851050741970539,-0.023560449481010437
1761468575607356700,1.337356689453125,-0.10369223356246948,0.0053626010194420815,-0.027108578011393547
1761468575617311700,1.347311767578125,-0.10183584690093994,0.027019592002034187,-0.026405788958072662
1761468575627267800,1.357267822265625,-0.09495797008275986,0.031390901654958725,-0.027789298444986343
1761468575637222700,1.36722265625,-0.08138442039489746,0.018218282610177994,-0.02633531577885151
1761468575647177700,1.377177734375,-0.0626823753118515,-0.00035460322396829724,-0.02134295366704464
1761468575657132800,1.3871328125,-0.04820644482970238,-0.026751967146992683,-0.014384251087903976
1761468575667088000,1.397087890625,-0.03843237832188606,-0.0503837950527668,-0.012020163238048553
1761468575677042700,1.407042724609375,-0.038901250809431076,-0.058125682175159454,-0.013592823408544064
1761468575686998800,1.416998779296875,-0.04469389468431473,-0.043680693954229355,-0.010402090847492218
1761468575696953900,1.426953857421875,-0.050062134861946106,-0.022675586864352226,-0.009801537729799747
1761468575706908700,1.43690869140625,-0.05585850402712822,-0.01463470421731472,-0.013262048363685608
1761468575716863700,1.44686376953125,-0.05780703201889992,-0.01585078053176403,-0.013432289473712444
1761468575726818800,1.45681884765625,-0.053580597043037415,-0.012175618670880795,-0.004589262418448925
1761468575736773600,1.466773681640625,-0.04394048824906349,-0.008710253983736038,0.014139178209006786
1761468575746729700,1.476729736328125,-0.0335078202188015,-0.01043305266648531,0.03161883354187012
1761468575756684800,1.486684814453125,-0.026493797078728676,-0.022747594863176346,0.0376778170466423
1761468575766639600,1.4966396484375,-0.02849569544196129,-0.036107342690229416,0.03127450868487358
1761468575776595000,1.506594970703125,-0.036112230271101,-0.03752303496003151,0.020338229835033417
1761468575786549800,1.5165498046875,-0.04766502231359482,-0.03222760558128357,0.008487693965435028
1761468575796504800,1.5265048828125,-0.06004424765706062,-0.026000285521149635,-0.006879698485136032
1761468575806461000,1.5364609375,-0.06968995183706284,-0.010194157250225544,-0.018883630633354187
1761468575816415700,1.546415771484375,-0.07601431757211685,0.012772839516401291,-0.02444879524409771
1761468575826370800,1.556370849609375,-0.07881490141153336,0.032233625650405884,-0.02799213118851185
1761468575836326000,1.566325927734375,-0.08009103685617447,0.04100164398550987,-0.0314786396920681
1761468575846280700,1.57628076171875,-0.07536765187978745,0.0453103706240654,-0.036272864788770676
1761468575856235800,1.58623583984375,-0.06399717181921005,0.04907869175076485,-0.04166646674275398
1761468575866190600,1.596190673828125,-0.05426119267940521,0.039257220923900604,-0.0509268082678318
1761468575876146700,1.606146728515625,-0.04609237238764763,0.010680480860173702,-0.06556808203458786
1761468575886101800,1.616101806640625,-0.04403747618198395,-0.01679615117609501,-0.07897762954235077
1761468575896056600,1.626056640625,-0.03873054310679436,-0.040132537484169006,-0.08723492920398712
1761468575906012000,1.636011962890625,-0.03453633189201355,-0.05592454969882965,-0.09318949282169342
1761468575915966700,1.645966796875,-0.030080808326601982,-0.0606582835316658,-0.09932320564985275
1761468575925922800,1.6559228515625,-0.02911514602601528,-0.056278448551893234,-0.1130555272102356
1761468575935878000,1.6658779296875,-0.03590519726276398,-0.04173703119158745,-0.1332806944847107
1761468575945832700,1.675832763671875,-0.048596758395433426,-0.020053841173648834,-0.16060951352119446
1761468575955787800,1.685787841796875,-0.06735739856958389,-0.0017649090150371194,-0.18870216608047485
1761468575965742800,1.695742919921875,-0.08892633765935898,0.0005674874992109835,-0.21629011631011963
1761468575975697700,1.70569775390625,-0.10516761988401413,-0.0032766659278422594,-0.24200688302516937
1761468575985653800,1.71565380859375,-0.11430413275957108,-0.014913082122802734,-0.265104740858078
1761468575995608800,1.72560888671875,-0.12436757236719131,-0.03826526924967766,-0.2798561453819275
1761468576005563600,1.735563720703125,-0.13089817762374878,-0.049855876713991165,-0.28868716955184937
1761468576015518700,1.745518798828125,-0.13631552457809448,-0.04450608417391777,-0.29048898816108704
1761468576025473800,1.755473876953125,-0.14128738641738892,-0.02729380875825882,-0.2869586944580078
1761468576035428900,1.765428955078125,-0.1518813818693161,-0.006871821358799934,-0.2800747752189636
1761468576045385000,1.775385009765625,-0.16204187273979187,0.012102934531867504,-0.2759455442428589
1761468576055339800,1.78533984375,-0.16834935545921326,0.02050946094095707,-0.2710753083229065
1761468576065294800,1.795294921875,-0.17625655233860016,0.03526337444782257,-0.26526057720184326
1761468576075249700,1.805249755859375,-0.1831481158733368,0.041123468428850174,-0.2602607011795044
1761468576085204700,1.815204833984375,-0.18575002253055573,0.03398113697767258,-0.26042553782463074
1761468576095159800,1.825159912109375,-0.18731442093849182,0.016810374334454536,-0.26017847657203674
1761468576105115600,1.83511572265625,-0.1872640997171402,0.002496148692443967,-0.2556934356689453
1761468576115070700,1.84507080078125,-0.18207338452339172,0.006274573039263487,-0.2363268882036209
1761468576125025800,1.85502587890625,-0.18028825521469116,0.014748751185834408,-0.2137661874294281
1761468576134980600,1.864980712890625,-0.178341805934906,0.028092751279473305,-0.19208413362503052
1761468576144936000,1.87493603515625,-0.18214267492294312,0.04614286124706268,-0.16960784792900085
1761468576154890800,1.884890869140625,-0.18382158875465393,0.07085482776165009,-0.15618878602981567
1761468576164846600,1.8948466796875,-0.184228777885437,0.09206211566925049,-0.15064701437950134
1761468576174802000,1.904802001953125,-0.18042360246181488,0.1049591600894928,-0.15447811782360077
1761468576184756700,1.9147568359375,-0.17632979154586792,0.10569978505373001,-0.16642744839191437
1761468576194711800,1.9247119140625,-0.17722807824611664,0.10110994428396225,-0.1792723387479782
1761468576204667000,1.9346669921875,-0.17379392683506012,0.08929616212844849,-0.18493714928627014
1761468576214621700,1.94462158203125,-0.1684267520904541,0.0682862251996994,-0.18925721943378448
1761468576224577800,1.954577880859375,-0.16223064064979553,0.04408768191933632,-0.18883004784584045
1761468576234532900,1.964532958984375,-0.15741191804409027,0.03914272412657738,-0.1846960186958313
1761468576244487700,1.97448779296875,-0.1478210836648941,0.05359303578734398,-0.17312991619110107
1761468576254442800,1.98444287109375,-0.1368984431028366,0.07302863150835037,-0.15374623239040375
1761468576264397800,1.994397705078125,-0.1198992133140564,0.08940094709396362,-0.13499091565608978
1761468576274353700,2.004353759765625,-0.10126923769712448,0.09787211567163467,-0.12187916785478592
1761468576284308700,2.014308837890625,-0.08242523670196533,0.09651044011116028,-0.11701223999261856
1761468576294263800,2.024263916015625,-0.06763014942407608,0.08308339864015579,-0.11383450031280518
1761468576304219000,2.034218994140625,-0.05717218667268753,0.06496671587228775,-0.11386166512966156
1761468576314173700,2.044173583984375,-0.04745271056890488,0.047348182648420334,-0.11220443248748779
1761468576324128800,2.054128662109375,-0.0368456095457077,0.036580223590135574,-0.10215046256780624
1761468576334084900,2.0640849609375,-0.019030073657631874,0.02366516925394535,-0.09741360694169998
1761468576344039700,2.074039794921875,-0.001080633606761694,0.00690270122140646,-0.10136840492486954
1761468576353994800,2.083994873046875,0.01931140013039112,-0.0011093331268057227,-0.1046513020992279
1761468576363949800,2.09394970703125,0.03413429111242294,0.013045634143054485,-0.09378986060619354
1761468576373904600,2.103904541015625,0.04451598599553108,0.03139642998576164,-0.07073111832141876
1761468576383860000,2.11385986328125,0.04725984111428261,0.0505639985203743,-0.041050985455513
1761468576393815800,2.12381591796875,0.05480697751045227,0.07288631051778793,-0.016314079985022545
1761468576403770400,2.133770263671875,0.07050604373216629,0.10491135716438293,0.008104977197945118
1761468576413725700,2.1437255859375,0.08911801874637604,0.14449027180671692,0.03758455067873001
1761468576423680500,2.153680419921875,0.11657281219959259,0.20953159034252167,0.06812036037445068
1761468576433635600,2.163635498046875,0.15191669762134552,0.28515246510505676,0.09024984389543533
1761468576443591700,2.173591796875,0.1975608766078949,0.3418775498867035,0.1044415608048439
1761468576453546500,2.18354638671875,0.23482324182987213,0.3677932024002075,0.11453510075807571
1761468576463501600,2.19350146484375,0.26376673579216003,0.38320091366767883,0.12332699447870255
1761468576473456600,2.20345654296875,0.2714833617210388,0.3779391348361969,0.11569252610206604
1761468576483411500,2.213411376953125,0.264676034450531,0.36283740401268005,0.11366000026464462
1761468576493366500,2.223366455078125,0.2484108954668045,0.358081579208374,0.12653717398643494
1761468576503322600,2.233322509765625,0.2540951669216156,0.41242390871047974,0.16343100368976593
1761468576513277400,2.24327734375,0.25544288754463196,0.5254834890365601,0.22454988956451416
1761468576523232500,2.253232421875,0.2968989610671997,0.6383277773857117,0.3209054470062256
1761468576533187600,2.2631875,0.3690505027770996,0.7625546455383301,0.42622172832489014
1761468576543142700,2.273142578125,0.4539598226547241,0.8638128638267517,0.4948492646217346
1761468576553097500,2.283097412109375,0.5259305834770203,0.9014810919761658,0.5079277157783508
1761468576563053600,2.293053466796875,0.5273005366325378,0.9490485787391663,0.4723747670650482
1761468576573008600,2.303008544921875,0.5351419448852539,0.8379126787185669,0.43996843695640564
1761468576582963500,2.31296337890625,0.5175264477729797,0.663142740726471,0.37040188908576965
1761468576592918500,2.32291845703125,0.4868086576461792,0.46395066380500793,0.2823123633861542
1761468576602873600,2.33287353515625,0.44335946440696716,0.29337868094444275,0.2338409721851349
1761468576612829400,2.342829345703125,0.3871558904647827,0.11202655732631683,0.21208354830741882
1761468576622784500,2.352784423828125,0.33129048347473145,-0.12591569125652313,0.2115783393383026
1761468576632739600,2.362739501953125,0.29711470007896423,-0.358287513256073,0.25793740153312683
1761468576642694400,2.3726943359375,0.3059755563735962,-0.46163731813430786,0.38994577527046204
1761468576652649500,2.3826494140625,0.3439449965953827,-0.40991705656051636,0.5778576731681824
1761468576662604500,2.3926044921875,0.3881739675998688,-0.2631305456161499,0.7873251438140869
1761468576672560400,2.402560302734375,0.4762870967388153,-0.11854783445596695,0.9864853620529175
1761468576682515700,2.412515625,0.5741524696350098,0.0036854047793895006,1.089565396308899
1761468576692470500,2.422470458984375,0.6649918556213379,0.01827983744442463,1.057565689086914
1761468576702425600,2.432425537109375,0.7343354821205139,-0.0645734965801239,0.9233575463294983
1761468576712380400,2.44238037109375,0.7710044384002686,-0.1837800145149231,0.7712308168411255
1761468576722336500,2.45233642578125,0.8123798370361328,-0.30259162187576294,0.6660157442092896
1761468576732291600,2.46229150390625,0.8338692784309387,-0.4067575931549072,0.5958542227745056
1761468576742246700,2.47224658203125,0.8709165453910828,-0.48314133286476135,0.5730053186416626
1761468576752201500,2.482201416015625,0.9211090207099915,-0.5173123478889465,0.6041642427444458
1761468576762156500,2.492156494140625,0.9510562419891357,-0.510401725769043,0.654365599155426
1761468576772112600,2.502112548828125,0.9635208249092102,-0.5098859667778015,0.6816442608833313
1761468576782067500,2.5120673828125,0.9613673686981201,-0.5296066999435425,0.6806301474571228
1761468576792022500,2.5220224609375,0.9506698250770569,-0.5377464294433594,0.6568988561630249
1761468576801977600,2.5319775390625,0.929283857345581,-0.5355578660964966,0.6078101396560669
1761468576811932700,2.5419326171875,0.9106672406196594,-0.5129733681678772,0.5160921812057495
1761468576821887500,2.551887451171875,0.9057382941246033,-0.4969858229160309,0.38821330666542053
1761468576831843600,2.561843505859375,0.9015603065490723,-0.49306440353393555,0.23963455855846405
1761468576841798700,2.571798583984375,0.8830220699310303,-0.5076199769973755,0.08804343640804291
1761468576851753500,2.58175341796875,0.8440018892288208,-0.51796555519104,-0.04390987753868103
1761468576861708300,2.591708251953125,0.7745231986045837,-0.5084609985351562,-0.1491614580154419
1761468576871663600,2.60166357421875,0.6840187311172485,-0.4857103228569031,-0.24822647869586945
1761468576881619500,2.611619384765625,0.594164252281189,-0.457668274641037,-0.33339568972587585
1761468576891574500,2.621574462890625,0.5141975283622742,-0.44389820098876953,-0.39473170042037964
1761468576901529600,2.631529541015625,0.44927558302879333,-0.42329171299934387,-0.41856539249420166
1761468576911484400,2.641484375,0.4059833586215973,-0.3638229966163635,-0.40061670541763306
1761468576921439500,2.651439453125,0.3765290677547455,-0.26834651827812195,-0.35785165429115295
1761468576931394600,2.66139453125,0.3657054603099823,-0.16854435205459595,-0.30642470717430115
1761468576941350400,2.671350341796875,0.3710608184337616,-0.07759127765893936,-0.2551620602607727
1761468576951305700,2.6813056640625,0.3832313120365143,0.03113245777785778,-0.20091192424297333
1761468576961260500,2.691260498046875,0.39998605847358704,0.15198111534118652,-0.15796658396720886
1761468576971215400,2.70121533203125,0.4029180109500885,0.24791528284549713,-0.15146960318088531
1761468576981170400,2.71117041015625,0.3950193524360657,0.3193223774433136,-0.18561425805091858
1761468576991126500,2.72112646484375,0.37519702315330505,0.3972267210483551,-0.23728282749652863
1761468577001081300,2.731081298828125,0.34102386236190796,0.46533361077308655,-0.2984609305858612
1761468577011036700,2.74103662109375,0.2869626581668854,0.5212647914886475,-0.36524900794029236
1761468577020991500,2.750991455078125,0.22362950444221497,0.5803384780883789,-0.43509411811828613
1761468577030946600,2.760946533203125,0.15512484312057495,0.6343197226524353,-0.49313855171203613
1761468577040901400,2.7709013671875,0.07468459755182266,0.6425228118896484,-0.5369808673858643
1761468577050857500,2.780857421875,0.005444808397442102,0.6187261939048767,-0.5544805526733398
1761468577060812500,2.7908125,-0.0344216488301754,0.5604370832443237,-0.5449813008308411
1761468577070767400,2.800767333984375,-0.04149404540657997,0.4506840705871582,-0.519681453704834
1761468577080722700,2.81072265625,-0.03468407690525055,0.33233052492141724,-0.48328298330307007
1761468577090677500,2.820677490234375,-0.028181759640574455,0.21521149575710297,-0.44407856464385986
1761468577100633600,2.830633544921875,-0.03923548012971878,0.11263851076364517,-0.40248507261276245
1761468577110588700,2.840588623046875,-0.060204192996025085,0.025633150711655617,-0.3709445893764496
1761468577120543500,2.85054345703125,-0.09590519964694977,-0.029422910884022713,-0.33856961131095886
1761468577130498300,2.860498291015625,-0.12555508315563202,-0.050567712634801865,-0.32206520438194275
1761468577140453600,2.87045361328125,-0.13834384083747864,-0.05440239980816841,-0.3239520788192749
1761468577150408400,2.880408447265625,-0.13930928707122803,-0.035372406244277954,-0.3384608328342438
1761468577160364500,2.890364501953125,-0.13981448113918304,-0.013089468702673912,-0.3582683503627777
1761468577170319600,2.900319580078125,-0.15546640753746033,0.005536679644137621,-0.3819430470466614
1761468577180274400,2.9102744140625,-0.1845657080411911,0.0026143931318074465,-0.4047032296657562
1761468577190229500,2.9202294921875,-0.22611267864704132,-0.04064049571752548,-0.4135951101779938
1761468577200184600,2.9301845703125,-0.27592045068740845,-0.09453116357326508,-0.3857160806655884
1761468577210140400,2.940140380859375,-0.3272414803504944,-0.13576370477676392,-0.3256981074810028
1761468577220095700,2.950095703125,-0.3770918548107147,-0.17311720550060272,-0.2563973367214203
1761468577230050600,2.960050537109375,-0.41156113147735596,-0.2133207619190216,-0.20390614867210388
1761468577240005400,2.97000537109375,-0.43066638708114624,-0.2680913209915161,-0.16866426169872284
1761468577249960400,2.97996044921875,-0.43709394335746765,-0.2918218970298767,-0.13876253366470337
1761468577259915500,2.98991552734375,-0.45179298520088196,-0.27721527218818665,-0.12048979103565216
1761468577269871400,2.999871337890625,-0.4715560972690582,-0.2360764741897583,-0.10940943658351898
1761468577279826400,3.009826416015625,-0.48211872577667236,-0.16176335513591766,-0.10529404878616333
1761468577289781500,3.019781494140625,-0.4821440875530243,-0.08195894956588745,-0.09376642107963562
1761468577299736600,3.029736572265625,-0.47091221809387207,-0.00236026244238019,-0.0757429450750351
1761468577309691400,3.03969140625,-0.44440022110939026,0.053146932274103165,-0.05228094384074211
1761468577319647500,3.0496474609375,-0.41230249404907227,0.08570700138807297,-0.01658020354807377
1761468577329602600,3.0596025390625,-0.3809574842453003,0.06164807453751564,0.006251492537558079
1761468577339557400,3.069557373046875,-0.35738930106163025,-0.028885019943118095,0.004327358677983284
1761468577349512700,3.0795126953125,-0.35370635986328125,-0.1528168022632599,-0.019425194710493088
1761468577359467500,3.089467529296875,-0.3904225826263428,-0.2687167823314667,-0.060143593698740005
1761468577369423600,3.099423583984375,-0.4636397957801819,-0.3635532855987549,-0.10748527944087982
1761468577379378400,3.10937841796875,-0.5512663722038269,-0.4188897907733917,-0.14285631477832794
1761468577389333500,3.11933349609375,-0.6513257026672363,-0.3682553768157959,-0.1591825932264328
1761468577399288000,3.1292880859375,-0.7368922829627991,-0.1905844509601593,-0.13898465037345886
1761468577409243100,3.1392431640625,-0.7922107577323914,0.039304111152887344,-0.0883290097117424
1761468577419198200,3.1491982421875,-0.7973194718360901,0.254830002784729,0.006642246153205633
1761468577429154000,3.159154052734375,-0.7570807337760925,0.432472825050354,0.13473829627037048
1761468577439109000,3.169109130859375,-0.700860321521759,0.565557062625885,0.24482671916484833
1761468577449064200,3.179064208984375,-0.6266040205955505,0.650099515914917,0.3315102756023407
1761468577459019300,3.189019287109375,-0.5324863195419312,0.6721827387809753,0.3939312994480133
1761468577468974000,3.19897412109375,-0.4238484501838684,0.624845564365387,0.427424818277359
1761468577478930200,3.20893017578125,-0.30739614367485046,0.5154508948326111,0.44025591015815735
1761468577488885200,3.21888525390625,-0.2059251219034195,0.3424096703529358,0.43686288595199585
1761468577498840000,3.228840087890625,-0.1349625438451767,0.14125604927539825,0.41966313123703003
1761468577508795100,3.238795166015625,-0.09663171321153641,-0.04583889991044998,0.39507347345352173
1761468577518750200,3.248750244140625,-0.0778295248746872,-0.20016589760780334,0.3611661195755005
1761468577528705000,3.258705078125,-0.05968770012259483,-0.30832698941230774,0.3250770568847656
1761468577538661000,3.2686611328125,-0.04213507100939751,-0.3449974060058594,0.30354219675064087
1761468577548616200,3.2786162109375,-0.02707904949784279,-0.30569279193878174,0.29319092631340027
1761468577558571000,3.288571044921875,-0.01697501726448536,-0.21472054719924927,0.27953529357910156
1761468577568526300,3.2985263671875,-0.014378649182617664,-0.10786604881286621,0.2504015266895294
1761468577578481200,3.308481201171875,-0.019835466518998146,-0.008236665278673172,0.19623920321464539
1761468577588437000,3.31843701171875,-0.03164860978722572,0.05341256782412529,0.12116546928882599
1761468577598392300,3.328392333984375,-0.04367943853139877,0.08422373980283737,0.031822800636291504
1761468577608347100,3.33834716796875,-0.05751541256904602,0.09416623413562775,-0.05895516648888588
1761468577618302200,3.34830224609375,-0.0755910873413086,0.09226527065038681,-0.14723150432109833
1761468577628257300,3.35825732421875,-0.10425223410129547,0.08767841756343842,-0.22411160171031952
1761468577638212000,3.368212158203125,-0.1369478553533554,0.0753123015165329,-0.2935143709182739
1761468577648168200,3.378168212890625,-0.18160177767276764,0.054629821330308914,-0.35662752389907837
1761468577658123300,3.388123291015625,-0.233521968126297,0.0283055379986763,-0.40362247824668884
1761468577668078000,3.398078125,-0.28862929344177246,0.02124285325407982,-0.427080363035202
1761468577678033200,3.408033203125,-0.33725541830062866,0.03943037986755371,-0.42740127444267273
1761468577687988200,3.41798828125,-0.3731421232223511,0.09164093434810638,-0.40173473954200745
1761468577697944000,3.427944091796875,-0.3845532238483429,0.17613238096237183,-0.3582088351249695
1761468577707899100,3.437899169921875,-0.3707740008831024,0.25175121426582336,-0.30984896421432495
1761468577717854200,3.447854248046875,-0.3319975733757019,0.2982249855995178,-0.26974496245384216
1761468577727809300,3.457809326171875,-0.28294315934181213,0.32262906432151794,-0.23935279250144958
1761468577737764000,3.46776416015625,-0.2245597392320633,0.31552135944366455,-0.21420510113239288
1761468577747719200,3.47771923828125,-0.1580539494752884,0.26398566365242004,-0.18905556201934814
1761468577757675300,3.48767529296875,-0.09792030602693558,0.19701649248600006,-0.1612473726272583
1761468577767630000,3.497630126953125,-0.046381909400224686,0.11294251680374146,-0.13693693280220032
1761468577777585200,3.507585205078125,-0.010581569746136665,0.023271752521395683,-0.1219947412610054
1761468577787540200,3.517540283203125,0.00418092031031847,-0.054598838090896606,-0.1116616278886795
1761468577797495000,3.5274951171875,0.007319455035030842,-0.12112300097942352,-0.11291943490505219
1761468577807451100,3.537451171875,-0.004854015074670315,-0.1844518631696701,-0.11866627633571625
1761468577817406200,3.54740625,-0.012825921177864075,-0.22610822319984436,-0.11363183706998825
1761468577827361000,3.557361083984375,-0.02401151694357395,-0.2399214506149292,-0.10614451766014099
1761468577837316400,3.56731640625,-0.03380316123366356,-0.22690419852733612,-0.0965944230556488
1761468577847271200,3.577271240234375,-0.031329505145549774,-0.1818929761648178,-0.07483731210231781
1761468577857226200,3.587226318359375,-0.013424808159470558,-0.09333701431751251,-0.03362808749079704
1761468577867182300,3.597182373046875,0.012841202318668365,0.03623418137431145,0.02326861210167408
1761468577877137200,3.60713720703125,0.04937630891799927,0.16611067950725555,0.0826142281293869
1761468577887092200,3.61709228515625,0.08277149498462677,0.2510058283805847,0.130259171128273
1761468577897047300,3.62704736328125,0.11626873165369034,0.2834452688694,0.14720167219638824
1761468577907002000,3.637002197265625,0.15420430898666382,0.2708602845668793,0.15425844490528107
1761468577916958200,3.646958251953125,0.17834052443504333,0.22424377501010895,0.16356779634952545
1761468577926913300,3.656913330078125,0.19039592146873474,0.1531800627708435,0.18164047598838806
1761468577936868000,3.6668681640625,0.18963345885276794,0.06200886517763138,0.21540670096874237
1761468577946823200,3.6768232421875,0.17940029501914978,0.00028552784351632,0.26698559522628784
1761468577956778200,3.6867783203125,0.16438592970371246,-0.03004388138651848,0.32459110021591187
1761468577966733300,3.6967333984375,0.15349195897579193,-0.03938271105289459,0.3735368251800537
1761468577976689200,3.706689208984375,0.14978909492492676,-0.012295435182750225,0.41519588232040405
1761468577986644200,3.716644287109375,0.1656048595905304,0.07148442417383194,0.45578500628471375
1761468577996599300,3.726599365234375,0.20335224270820618,0.20337775349617004,0.4925835132598877
1761468578006554000,3.73655419921875,0.24748384952545166,0.3342334032058716,0.5085970759391785
1761468578016509200,3.74650927734375,0.2939658761024475,0.4329479932785034,0.4920654594898224
1761468578026465300,3.75646533203125,0.32349714636802673,0.4716476500034332,0.42387184500694275
1761468578036420000,3.766420166015625,0.3307896554470062,0.4176137149333954,0.29522010684013367
1761468578046375200,3.776375244140625,0.3129877746105194,0.2564332187175751,0.10487408936023712
1761468578056330200,3.786330322265625,0.2879471480846405,0.03821700066328049,-0.1123407855629921
1761468578066285000,3.79628515625,0.26132330298423767,-0.1569923758506775,-0.29531651735305786
1761468578076240400,3.806240478515625,0.22934511303901672,-0.31099817156791687,-0.4113251268863678
1761468578086196200,3.8161962890625,0.19652827084064484,-0.37280863523483276,-0.3920820355415344
1761468578096151000,3.826151123046875,0.1664356142282486,-0.2518540024757385,-0.20093126595020294
1761468578106106400,3.8361064453125,0.15943334996700287,0.015433330088853836,0.10432545095682144
1761468578116061200,3.846061279296875,0.19810324907302856,0.28653645515441895,0.42245522141456604
1761468578126016300,3.856016357421875,0.27920711040496826,0.4427085518836975,0.6693982481956482
1761468578135972400,3.865972412109375,0.37751609086990356,0.49806421995162964,0.813705325126648
1761468578145927200,3.87592724609375,0.4651874303817749,0.4876331388950348,0.8620390892028809
1761468578155882200,3.88588232421875,0.5503768920898438,0.4295743405818939,0.8254414200782776
1761468578165837300,3.89583740234375,0.6480744481086731,0.32876721024513245,0.7224510908126831
1761468578175792000,3.905792236328125,0.7357672452926636,0.19911038875579834,0.5793623328208923
1761468578185747200,3.915747314453125,0.7972167730331421,0.040305837988853455,0.42136794328689575
1761468578195703300,3.925703369140625,0.8358166217803955,-0.13194076716899872,0.2634107768535614
1761468578205658000,3.935658203125,0.859809160232544,-0.2987684905529022,0.13248758018016815
1761468578215613200,3.94561328125,0.8614440560340881,-0.43993040919303894,0.02390570379793644
1761468578225568300,3.955568359375,0.8348190188407898,-0.5224370956420898,-0.05394729599356651
1761468578235523300,3.9655234375,0.796847403049469,-0.560297429561615,-0.0999843031167984
1761468578245479200,3.975479248046875,0.7586447596549988,-0.5295901298522949,-0.120668925344944
1761468578255434200,3.985434326171875,0.7126349210739136,-0.43008509278297424,-0.11744090914726257
1761468578267255300,3.99725537109375,0.6502695679664612,-0.2969915270805359,-0.09686437249183655
1761468578277210000,4.007210205078125,0.5950714945793152,-0.20241761207580566,-0.08816058933734894
1761468578287165200,4.017165283203125,0.5445970892906189,-0.1245609000325203,-0.09698604047298431
1761468578297120000,4.0271201171875,0.4953000843524933,-0.09040473401546478,-0.14856763184070587
1761468578307076000,4.037076171875,0.4496074318885803,-0.10017933696508408,-0.23534460365772247
1761468578317031200,4.04703125,0.4081136882305145,-0.1265675574541092,-0.3502230942249298
1761468578326986000,4.056986083984375,0.3722369074821472,-0.1523384302854538,-0.4644918739795685
1761468578336941300,4.06694140625,0.33691316843032837,-0.16766315698623657,-0.5515797138214111
1761468578346896100,4.076896240234375,0.30685245990753174,-0.16148994863033295,-0.5971543788909912
1761468578356851200,4.086851318359375,0.28144562244415283,-0.13626733422279358,-0.5971879363059998
1761468578366807300,4.096807373046875,0.2601397931575775,-0.10343081504106522,-0.5541248917579651
1761468578376762000,4.10676220703125,0.2455349564552307,-0.08342240750789642,-0.48805904388427734
1761468578386717200,4.11671728515625,0.2364082932472229,-0.08522377163171768,-0.4098159074783325
1761468578396672300,4.12667236328125,0.23156432807445526,-0.09090760350227356,-0.33325549960136414
1761468578406627600,4.136627685546875,0.22339987754821777,-0.09396224468946457,-0.2639579176902771
1761468578416583700,4.146583740234375,0.19855865836143494,-0.10977965593338013,-0.2257312536239624
1761468578426538800,4.156538818359375,0.16726411879062653,-0.13103806972503662,-0.211002916097641
1761468578436493600,4.16649365234375,0.13192151486873627,-0.12180394679307938,-0.21291212737560272
1761468578446449000,4.176448974609375,0.09774836897850037,-0.09565649926662445,-0.2267448604106903
1761468578456403700,4.18640380859375,0.051742639392614365,-0.06387471407651901,-0.24737121164798737
1761468578466358800,4.19635888671875,0.009279865771532059,-0.03691659867763519,-0.27205607295036316
1761468578476315000,4.20631494140625,-0.02467847801744938,-0.020765068009495735,-0.29304561018943787
1761468578486269700,4.216269775390625,-0.049388621002435684,-0.013952701352536678,-0.31568726897239685
1761468578496224800,4.226224853515625,-0.07894464582204819,-0.03392214700579643,-0.3405630588531494
1761468578506179600,4.2361796875,-0.11216411739587784,-0.05648764595389366,-0.36213067173957825
1761468578516134700,4.246134765625,-0.14676876366138458,-0.07679668068885803,-0.3802919387817383
1761468578526090500,4.256090576171875,-0.1819475144147873,-0.11123454570770264,-0.3848278224468231
1761468578536045800,4.2660458984375,-0.20990847051143646,-0.152988001704216,-0.3694968819618225
1761468578546000600,4.276000732421875,-0.22241121530532837,-0.19982580840587616,-0.3383602797985077
1761468578555955700,4.285955810546875,-0.22647333145141602,-0.2545524537563324,-0.30083996057510376
1761468578565910500,4.29591064453125,-0.22611913084983826,-0.3113632798194885,-0.262787401676178
1761468578575865900,4.305865966796875,-0.22771063446998596,-0.3592444062232971,-0.23324085772037506
1761468578585821700,4.31582177734375,-0.23012106120586395,-0.3828839659690857,-0.2209024429321289
1761468578595776800,4.32577685546875,-0.23956957459449768,-0.3931468725204468,-0.21072791516780853
1761468578605731800,4.33573193359375,-0.258374959230423,-0.3924049139022827,-0.19636203348636627
1761468578616309800,4.346309814453125,-0.2844923138618469,-0.36081793904304504,-0.16702623665332794
1761468578626264600,4.3562646484375,-0.3048282265663147,-0.3053857386112213,-0.1288592666387558
1761468578636219600,4.3662197265625,-0.32014140486717224,-0.22957539558410645,-0.08413945883512497
1761468578646175700,4.37617578125,-0.34625357389450073,-0.16369666159152985,-0.0325155034661293
1761468578656130800,4.386130859375,-0.37774014472961426,-0.1058056578040123,0.026745153591036797
1761468578666085600,4.396085693359375,-0.4156058132648468,-0.05132058635354042,0.0878426805138588
1761468578676040700,4.406040771484375,-0.44336608052253723,0.011658642441034317,0.15131060779094696
1761468578685995500,4.41599560546875,-0.4562339186668396,0.051958661526441574,0.19881820678710938
1761468578695950800,4.425950927734375,-0.44949933886528015,0.06840367615222931,0.22775211930274963
1761468578705906700,4.43590673828125,-0.4301363527774811,0.052329666912555695,0.24896495044231415
1761468578715861800,4.44586181640625,-0.39725375175476074,0.01728166826069355,0.27880966663360596
1761468578725816800,4.45581689453125,-0.348116397857666,-0.02889031358063221,0.3435784578323364
1761468578735771600,4.465771728515625,-0.2848583161830902,-0.12153396755456924,0.4043813645839691
1761468578745726500,4.4757265625,-0.2199774980545044,-0.2518756687641144,0.4057980179786682
1761468578755682800,4.485682861328125,-0.17153194546699524,-0.410756379365921,0.34401801228523254
1761468578765637600,4.4956376953125,-0.16797028481960297,-0.5976555347442627,0.24416202306747437
1761468578775592700,4.5055927734375,-0.22288545966148376,-0.7663449645042419,0.14486312866210938
1761468578785547800,4.5155478515625,-0.33629533648490906,-0.8536245822906494,0.05929402634501457
1761468578795502600,4.525502685546875,-0.48253723978996277,-0.8352509140968323,-0.009593160822987556
1761468578805457700,4.535457763671875,-0.6230179667472839,-0.7052846550941467,-0.06191156804561615
1761468578815413800,4.545413818359375,-0.7254956364631653,-0.47990506887435913,-0.08218327909708023
1761468578825368600,4.55536865234375,-0.7701502442359924,-0.20371048152446747,-0.06020649895071983
1761468578835323600,4.56532373046875,-0.7524058222770691,0.044362980872392654,-0.021296117454767227
1761468578845278700,4.57527880859375,-0.6826643943786621,0.21764971315860748,0.02422386221587658
1761468578855233800,4.58523388671875,-0.5775738954544067,0.29056280851364136,0.06716227531433105
1761468578865190000,4.59518994140625,-0.4553360044956207,0.2670198380947113,0.11060485988855362
1761468578875144700,4.605144775390625,-0.3426792323589325,0.18455956876277924,0.16398872435092926
1761468578885099800,4.615099853515625,-0.25320324301719666,0.11126921325922012,0.2483307272195816
1761468578895054600,4.6250546875,-0.1906634420156479,0.07725398987531662,0.35764577984809875
1761468578905009700,4.635009765625,-0.14719194173812866,0.04682832211256027,0.4560959041118622
1761468578914965500,4.644965576171875,-0.11412878334522247,0.0008126274333335459,0.5154308676719666
1761468578924920800,4.6549208984375,-0.09347410500049591,-0.04324029013514519,0.5386044979095459
1761468578934875600,4.664875732421875,-0.08772167563438416,-0.06229094788432121,0.536129891872406
1761468578944830700,4.674830810546875,-0.09910892695188522,-0.0687260702252388,0.5049763321876526
1761468578954785500,4.68478564453125,-0.12170478701591492,-0.0731130987405777,0.4521421492099762
1761468578964740900,4.694740966796875,-0.14209458231925964,-0.07024059444665909,0.3728282153606415
1761468578974696700,4.70469677734375,-0.16043710708618164,-0.07183263450860977,0.2733412981033325
1761468578984651800,4.71465185546875,-0.17437699437141418,-0.07749124616384506,0.15949709713459015
1761468578994606800,4.72460693359375,-0.19537974894046783,-0.08404022455215454,0.036394596099853516
1761468579004561700,4.734561767578125,-0.23170877993106842,-0.08244507759809494,-0.0739770159125328
1761468579014516500,4.7445166015625,-0.26993846893310547,-0.06761979311704636,-0.16826437413692474
1761468579024472800,4.754472900390625,-0.30511805415153503,-0.05040953680872917,-0.2349947988986969
1761468579034427600,4.764427734375,-0.32598766684532166,-0.022464457899332047,-0.2725083529949188
1761468579044382500,4.774382568359375,-0.32869449257850647,0.010723529383540154,-0.2797758877277374
1761468579054337800,4.784337890625,-0.3217470943927765,0.04873162880539894,-0.2620171308517456
1761468579064292600,4.794292724609375,-0.30597519874572754,0.08929630368947983,-0.232101172208786
1761468579074247700,4.80424755859375,-0.2796735465526581,0.11854793131351471,-0.20771726965904236
1761468579084203800,4.814203857421875,-0.23420320451259613,0.12141432613134384,-0.1958187371492386
1761468579094158600,4.82415869140625,-0.16939464211463928,0.11589092761278152,-0.18939146399497986
1761468579104113700,4.83411376953125,-0.09743623435497284,0.1255129873752594,-0.17663095891475677
1761468579114068700,4.84406884765625,-0.034602951258420944,0.12615108489990234,-0.16046209633350372
1761468579124023600,4.8540234375,0.00927597563713789,0.1383332908153534,-0.1312483549118042
1761468579133980000,4.86397998046875,0.035272423177957535,0.1729421317577362,-0.10202816128730774
1761468579143934700,4.873934814453125,0.05247830972075462,0.19767339527606964,-0.09101366996765137
1761468579153889500,4.8838896484375,0.05219867825508118,0.19894984364509583,-0.10181811451911926
1761468579163844600,4.8938447265625,0.03356374055147171,0.18782076239585876,-0.12461983412504196
1761468579173799700,4.903799560546875,0.00013441318878903985,0.16538630425930023,-0.14669422805309296
1761468579183754800,4.913754638671875,-0.034034259617328644,0.13303671777248383,-0.16618071496486664
1761468579193710800,4.9237109375,-0.056189630180597305,0.11087895929813385,-0.18046776950359344
1761468579203665700,4.933665771484375,-0.06800879538059235,0.11538644880056381,-0.19297853112220764
1761468579213620700,4.943620849609375,-0.0623202845454216,0.13177581131458282,-0.21253438293933868
1761468579223575600,4.953575439453125,-0.04041168466210365,0.15004654228687286,-0.23908431828022003
1761468579233531000,4.96353076171875,-0.005721613764762878,0.14534632861614227,-0.26013797521591187
1761468579243486700,4.97348681640625,0.03570635989308357,0.11872103810310364,-0.26912540197372437
1761468579253441500,4.983441650390625,0.07613341510295868,0.05834504961967468,-0.25960883498191833
1761468579263396900,4.99339697265625,0.11063822358846664,-0.0252835750579834,-0.22956512868404388
1761468579273351700,5.0033515625,0.1338045299053192,-0.10807566344738007,-0.17927639186382294
1761468579283306500,5.013306396484375,0.14182838797569275,-0.15428094565868378,-0.11261970549821854
1761468579293262800,5.023262939453125,0.14859893918037415,-0.15778326988220215,-0.0451197549700737
1761468579303217700,5.0332177734375,0.1577807515859604,-0.12994372844696045,0.01199332531541586
1761468579313172500,5.04317236328125,0.1676056832075119,-0.08614165335893631,0.05486063286662102
1761468579323127800,5.0531279296875,0.17556104063987732,-0.041938163340091705,0.08977227658033371
1761468579333082600,5.06308251953125,0.17605826258659363,0.0064389584586024284,0.12577103078365326
1761468579343037700,5.07303759765625,0.17652584612369537,0.06701072305440903,0.17083512246608734
1761468579352993800,5.082993896484375,0.18026518821716309,0.14947469532489777,0.22003276646137238
1761468579362948600,5.092948486328125,0.19154943525791168,0.23467250168323517,0.2679279148578644
1761468579372903700,5.102903564453125,0.20284415781497955,0.29496192932128906,0.3046436011791229
1761468579382858800,5.112858642578125,0.21285036206245422,0.3239779472351074,0.3423875868320465
1761468579392813600,5.1228134765625,0.22390486299991608,0.32854101061820984,0.3771575391292572
1761468579402769200,5.13276904296875,0.24021977186203003,0.313546746969223,0.41042912006378174
1761468579412724000,5.142723876953125,0.25927841663360596,0.2854277491569519,0.43779391050338745
1761468579422679000,5.152678955078125,0.28390440344810486,0.27593734860420227,0.4591997563838959
1761468579432634000,5.162634033203125,0.31816303730010986,0.29275840520858765,0.46975624561309814
1761468579442589000,5.1725888671875,0.35581913590431213,0.3033454716205597,0.45372214913368225
1761468579452544000,5.1825439453125,0.39099016785621643,0.2521989345550537,0.398449569940567
1761468579462500000,5.1925,0.3999798595905304,0.1241595670580864,0.3055330812931061
1761468579472455000,5.202454833984375,0.38153746724128723,-0.04170609638094902,0.21320794522762299
1761468579482410000,5.212409912109375,0.3499002456665039,-0.19773972034454346,0.15516570210456848
1761468579492365000,5.222364990234375,0.3100194036960602,-0.32309526205062866,0.14442011713981628
1761468579502320000,5.232320068359375,0.27040499448776245,-0.3846648037433624,0.17671146988868713
1761468579512276200,5.242276123046875,0.24141435325145721,-0.36450308561325073,0.2588622570037842
1761468579522231000,5.25223095703125,0.24027691781520844,-0.2450951486825943,0.38525670766830444
1761468579532186000,5.26218603515625,0.26973119378089905,-0.037403739988803864,0.523730456829071
1761468579542141000,5.272140869140625,0.32884496450424194,0.2082497626543045,0.6309547424316406
1761468579552096300,5.28209619140625,0.4102359712123871,0.4032727777957916,0.6689748167991638
1761468579562052000,5.292052001953125,0.48928844928741455,0.5316060185432434,0.6479775905609131
1761468579572007200,5.302007080078125,0.5449458360671997,0.6064502000808716,0.6042444705963135
1761468579581962000,5.3119619140625,0.5787567496299744,0.6322695016860962,0.5483901500701904
1761468579591917000,5.3219169921875,0.5961927175521851,0.5962361097335815,0.4907819926738739
1761468579601872000,5.331871826171875,0.5881446003913879,0.4844529926776886,0.42072412371635437
1761468579611827200,5.3418271484375,0.5497905611991882,0.30260011553764343,0.33059611916542053
1761468579621783000,5.351782958984375,0.49499422311782837,0.09492497891187668,0.22627617418766022
1761468579631737900,5.36173779296875,0.4290977418422699,-0.08909972012042999,0.1316966712474823
1761468579641693200,5.371693115234375,0.355324387550354,-0.2279370129108429,0.0668303519487381
1761468579651648000,5.38164794921875,0.28254181146621704,-0.3001912534236908,0.015275010839104652
1761468579661603000,5.39160302734375,0.2133958786725998,-0.298528254032135,-0.02847149409353733
1761468579671559200,5.40155908203125,0.16245466470718384,-0.2340288758277893,-0.06762634962797165
1761468579681514000,5.411513916015625,0.1331215351819992,-0.1319573074579239,-0.1188381165266037
1761468579691469000,5.421468994140625,0.11996205896139145,-0.028150219470262527,-0.19018606841564178
1761468579701424000,5.431424072265625,0.11001019924879074,0.03596598282456398,-0.2750166654586792
1761468579711379000,5.44137890625,0.09650477766990662,0.06894044578075409,-0.36409592628479004
1761468579721334000,5.451333984375,0.08479694277048111,0.0734851211309433,-0.4461595416069031
1761468579731290000,5.4612900390625,0.06867869198322296,0.04327981173992157,-0.5201520323753357
1761468579741245000,5.471244873046875,0.05154651775956154,-0.009367065504193306,-0.5748871564865112
1761468579751200000,5.481199951171875,0.03712363541126251,-0.07125626504421234,-0.6014420986175537
1761468579761155000,5.491155029296875,0.03517164662480354,-0.1319252848625183,-0.5971760749816895
1761468579771110100,5.501110107421875,0.03713945671916008,-0.15990711748600006,-0.5710757374763489
1761468579781066200,5.511066162109375,0.03401034697890282,-0.14360927045345306,-0.5181592702865601
1761468579791021000,5.52102099609375,0.030694978311657906,-0.08701123297214508,-0.45284417271614075
1761468579800976100,5.53097607421875,0.03335990384221077,0.0035466712433844805,-0.38803407549858093
1761468579810931000,5.540930908203125,0.04540032148361206,0.09847318381071091,-0.3312664031982422
1761468579820886000,5.550885986328125,0.05357387661933899,0.16579751670360565,-0.2901180386543274
1761468579830841000,5.560841064453125,0.04859403520822525,0.2046242654323578,-0.26809900999069214
1761468579840797000,5.570796875,0.040619947016239166,0.21430924534797668,-0.2645760476589203
1761468579850752000,5.580751953125,0.01915859431028366,0.195755273103714,-0.26561787724494934
1761468579860707000,5.59070703125,-0.006694095209240913,0.15003114938735962,-0.27385538816452026
1761468579870662000,5.600661865234375,-0.0336785763502121,0.09004184603691101,-0.28727397322654724
1761468579880617200,5.6106171875,-0.07105513662099838,0.03527771309018135,-0.29949870705604553
1761468579890573000,5.620572998046875,-0.11348754912614822,-0.0037386633921414614,-0.3077361285686493
1761468579900527900,5.63052783203125,-0.15493766963481903,-0.0417487695813179,-0.30814898014068604
1761468579910483200,5.640483154296875,-0.18608413636684418,-0.08933758735656738,-0.3104153275489807
1761468579920438000,5.65043798828125,-0.19785994291305542,-0.14208340644836426,-0.3157014548778534
1761468579930393000,5.66039306640625,-0.20129622519016266,-0.19030499458312988,-0.3341076076030731
1761468579940348200,5.67034814453125,-0.2096617966890335,-0.21980318427085876,-0.3526175618171692
1761468579950304000,5.680303955078125,-0.21949179470539093,-0.2483336329460144,-0.3611716330051422
1761468579960259000,5.690259033203125,-0.23099806904792786,-0.27825167775154114,-0.3568463921546936
1761468579970214100,5.700214111328125,-0.23972605168819427,-0.2972964942455292,-0.33607611060142517
1761468579980169000,5.7101689453125,-0.23949569463729858,-0.30261558294296265,-0.30722302198410034
1761468579990124000,5.7201240234375,-0.24156230688095093,-0.3076289892196655,-0.2670100927352905
1761468580000080100,5.730080078125,-0.2406141757965088,-0.2930958569049835,-0.21482329070568085
1761468580010035000,5.740034912109375,-0.24070899188518524,-0.2511763870716095,-0.15282143652439117
1761468580019990000,5.749989990234375,-0.23095117509365082,-0.19736376404762268,-0.08336130529642105
1761468580029945000,5.759945068359375,-0.21977761387825012,-0.15862010419368744,-0.010137420147657394
1761468580039900200,5.769900146484375,-0.21012231707572937,-0.13613809645175934,0.06032257899641991
1761468580049856000,5.77985595703125,-0.20134827494621277,-0.12736937403678894,0.12705367803573608
1761468580059811000,5.78981103515625,-0.19960127770900726,-0.14563119411468506,0.18772855401039124
1761468580069766100,5.79976611328125,-0.21360790729522705,-0.17261648178100586,0.23706574738025665
1761468580079721000,5.809720947265625,-0.24148759245872498,-0.1848597526550293,0.2729039788246155
1761468580089676000,5.819676025390625,-0.2837525010108948,-0.1667603850364685,0.294420450925827
1761468580099631000,5.829631103515625,-0.3300752639770508,-0.11981674283742905,0.3005879521369934
1761468580109587000,5.8395869140625,-0.3831842839717865,-0.057399433106184006,0.29378196597099304
1761468580119542000,5.8495419921875,-0.4238615334033966,0.012611349113285542,0.2841752767562866
1761468580129497000,5.8594970703125,-0.4412218928337097,0.08510179817676544,0.28514495491981506
1761468580139452000,5.869451904296875,-0.44033247232437134,0.1222943440079689,0.2796954810619354
1761468580149407200,5.8794072265625,-0.43434035778045654,0.10284740477800369,0.22361969947814941
1761468580159363000,5.889363037109375,-0.43127351999282837,0.051250044256448746,0.1127859577536583
1761468580169318000,5.89931787109375,-0.4533761441707611,-0.012555565685033798,-0.024827824905514717
1761468580179273200,5.909273193359375,-0.5249477028846741,-0.06848330050706863,-0.15134692192077637
1761468580189228000,5.91922802734375,-0.6405384540557861,-0.1202080100774765,-0.25713247060775757
1761468580199183000,5.92918310546875,-0.7837091088294983,-0.13307151198387146,-0.3125845491886139
1761468580209138200,5.93913818359375,-0.9243258833885193,-0.07756243646144867,-0.30285441875457764
1761468580219094000,5.949093994140625,-1.0273171663284302,0.0317981094121933,-0.2356414943933487
1761468580229049000,5.959049072265625,-1.09276282787323,0.15304943919181824,-0.1231306716799736
1761468580239004200,5.969004150390625,-1.1067824363708496,0.2454698085784912,-0.002372164512053132
1761468580248959000,5.978958984375,-1.0689746141433716,0.3410991430282593,0.09200413525104523
1761468580258914000,5.9889140625,-0.9846076965332031,0.42787837982177734,0.16095110774040222
1761468580268870100,5.9988701171875,-0.8800357580184937,0.4719773828983307,0.2048591673374176
1761468580278825000,6.008824951171875,-0.7622162103652954,0.4489959180355072,0.22850680351257324
1761468580288780000,6.018780029296875,-0.6566197276115417,0.3626818060874939,0.2412782609462738
1761468580298735000,6.028735107421875,-0.5787320733070374,0.23543667793273926,0.2525668144226074
1761468580308690200,6.038690185546875,-0.5274896621704102,0.08892712742090225,0.2599967420101166
1761468580318645000,6.04864501953125,-0.4925878047943115,-0.04353295639157295,0.2719845771789551
1761468580328601000,6.05860107421875,-0.46237289905548096,-0.14932383596897125,0.2743252217769623
1761468580338556200,6.06855615234375,-0.4396429657936096,-0.23742040991783142,0.26866304874420166
1761468580348511000,6.078510986328125,-0.43445059657096863,-0.2955702841281891,0.25224199891090393
1761468580358466000,6.088466064453125,-0.43657487630844116,-0.30859753489494324,0.2335590422153473
1761468580368421000,6.098421142578125,-0.43736183643341064,-0.2825065553188324,0.20810721814632416
1761468580378377000,6.108376953125,-0.4284711480140686,-0.2515188157558441,0.16867752373218536
1761468580388332000,6.11833203125,-0.4221077859401703,-0.23090939223766327,0.11220359057188034
1761468580398287000,6.128287109375,-0.4270957410335541,-0.21592657268047333,0.04075213521718979
1761468580408243000,6.138242919921875,-0.4397055506706238,-0.20037850737571716,-0.041047390550374985
1761468580418198000,6.148197998046875,-0.4598636031150818,-0.20058080554008484,-0.1265360414981842
1761468580428154000,6.158154052734375,-0.49186602234840393,-0.22351381182670593,-0.21594661474227905
1761468580438109000,6.16810888671875,-0.530444860458374,-0.22905686497688293,-0.28405314683914185
1761468580448064000,6.17806396484375,-0.5649386644363403,-0.22006256878376007,-0.33231788873672485
1761468580458019000,6.18801904296875,-0.5850840210914612,-0.20348894596099854,-0.3567287027835846
1761468580467974000,6.197973876953125,-0.5989590883255005,-0.1620648056268692,-0.3591361939907074
1761468580477929200,6.20792919921875,-0.6025996804237366,-0.07203542441129684,-0.34116703271865845
1761468580487885000,6.217885009765625,-0.5861075520515442,0.03820266202092171,-0.3082863390445709
1761468580497839900,6.22783984375,-0.5502171516418457,0.1378861963748932,-0.2720757722854614
1761468580507795200,6.237795166015625,-0.4959928095340729,0.22372494637966156,-0.2441386580467224
1761468580517750000,6.24775,-0.4314640164375305,0.2785998284816742,-0.22851796448230743
1761468580527704800,6.257704833984375,-0.3637845814228058,0.30047929286956787,-0.21994657814502716
1761468580537661200,6.2676611328125,-0.30088338255882263,0.2948352098464966,-0.21158641576766968
1761468580547616000,6.277615966796875,-0.2516457736492157,0.26804351806640625,-0.1972721815109253
1761468580557570800,6.28757080078125,-0.21284277737140656,0.24119833111763,-0.18355043232440948
1761468580567526100,6.297526123046875,-0.19634076952934265,0.22633814811706543,-0.1663900911808014
1761468580577481000,6.30748095703125,-0.18698370456695557,0.21844731271266937,-0.1492709219455719
1761468580587436000,6.31743603515625,-0.18193675577640533,0.20541433990001678,-0.13387678563594818
1761468580597392100,6.32739208984375,-0.18059945106506348,0.19386880099773407,-0.12611883878707886
1761468580607347000,6.337346923828125,-0.1792076826095581,0.16644036769866943,-0.1404287964105606
1761468580617302000,6.347302001953125,-0.17843160033226013,0.12490332126617432,-0.17325447499752045
1761468580627257000,6.357257080078125,-0.1763351559638977,0.07677493989467621,-0.21290308237075806
1761468580637212200,6.367212158203125,-0.17403024435043335,0.026769978925585747,-0.2327422946691513
1761468580647168000,6.37716796875,-0.15743902325630188,-0.009275374934077263,-0.22053436934947968
1761468580657123000,6.387123046875,-0.11431536823511124,-0.02428434044122696,-0.1836002618074417
1761468580667078100,6.397078125,-0.04685882851481438,-0.03282483294606209,-0.13775767385959625
1761468580677033000,6.407032958984375,0.03597065433859825,-0.04577130824327469,-0.09218396991491318
1761468580686988000,6.416988037109375,0.10439924895763397,-0.06244189664721489,-0.05088712275028229
1761468580696943900,6.42694384765625,0.14225181937217712,-0.0825941264629364,-0.0218905471265316
1761468580706899000,6.43689892578125,0.1645030677318573,-0.08937293291091919,0.001228887471370399
1761468580716854000,6.44685400390625,0.17274779081344604,-0.09140107035636902,0.023611867800354958
1761468580726809000,6.45680908203125,0.1664896160364151,-0.10368436574935913,0.04557149112224579
1761468580736764000,6.466763916015625,0.16473247110843658,-0.12273392826318741,0.06252694129943848
1761468580746719200,6.47671923828125,0.15378795564174652,-0.14444215595722198,0.07427387684583664
1761468580756675000,6.486675048828125,0.1252155900001526,-0.13655228912830353,0.08262328803539276
1761468580766630000,6.4966298828125,0.07690077275037766,-0.09400375932455063,0.08298734575510025
1761468580776585200,6.506585205078125,0.026506895199418068,-0.04927554726600647,0.06821917742490768
1761468580786540000,6.5165400390625,-0.007171972654759884,-0.0033823582343757153,0.05070729926228523
1761468580796494800,6.526494873046875,-0.016233481466770172,0.06067248433828354,0.03850816935300827
1761468580806451200,6.536451171875,0.002800396643579006,0.15200185775756836,0.03187796100974083
1761468580816406000,6.546406005859375,0.043197669088840485,0.22091490030288696,0.007864952087402344
1761468580826360800,6.55636083984375,0.07786563038825989,0.20473167300224304,-0.05294966325163841
1761468580836316200,6.566316162109375,0.08501367270946503,0.041571713984012604,-0.155336394906044
1761468580846271000,6.57627099609375,0.0473770834505558,-0.23502659797668457,-0.254734605550766
1761468580856226000,6.58622607421875,-0.018440820276737213,-0.4989328384399414,-0.2919929325580597
1761468580866182100,6.59618212890625,-0.09000794589519501,-0.6836821436882019,-0.24142271280288696
1761468580876137000,6.606136962890625,-0.14883743226528168,-0.7454392313957214,-0.11106050759553909
1761468580886092000,6.616092041015625,-0.16562652587890625,-0.6270753145217896,0.09655100852251053
1761468580896047000,6.626047119140625,-0.14225846529006958,-0.3399156630039215,0.33628758788108826
1761468580906002000,6.636001953125,-0.0750591978430748,0.053925108164548874,0.5586223602294922
1761468580915958000,6.6459580078125,0.02659052051603794,0.4404056966304779,0.7130010724067688
1761468580925913000,6.6559130859375,0.1345958113670349,0.7348743081092834,0.7729848027229309
1761468580935868000,6.665867919921875,0.22980430722236633,0.922071635723114,0.7441521286964417
1761468580945823000,6.675822998046875,0.3055818974971771,1.0037742853164673,0.6570156216621399
1761468580955778000,6.685778076171875,0.3674473762512207,0.9844217300415039,0.5437565445899963
1761468580965733000,6.695733154296875,0.41786181926727295,0.8637099862098694,0.43274936079978943
1761468580975689000,6.70568896484375,0.4455011188983917,0.635326087474823,0.3356698751449585
1761468580985644000,6.71564404296875,0.442907452583313,0.32327499985694885,0.2490641474723816
1761468580995599000,6.72559912109375,0.4163267910480499,-0.018264705315232277,0.1783476173877716
1761468581005554000,6.735553955078125,0.3771844208240509,-0.35500332713127136,0.11911384761333466
1761468581015509200,6.74550927734375,0.33783575892448425,-0.6530624032020569,0.07093770802021027
1761468581025465000,6.755465087890625,0.30407458543777466,-0.8696775436401367,0.023757146671414375
1761468581035420000,6.765419921875,0.2731742560863495,-0.9794421792030334,-0.008324306458234787
1761468581045375200,6.775375244140625,0.25021886825561523,-0.975884735584259,-0.0331827849149704
1761468581055330000,6.785330078125,0.23279184103012085,-0.8847739696502686,-0.07641956210136414
1761468581065284900,6.795284912109375,0.22650597989559174,-0.7256215810775757,-0.1427687555551529
1761468581075241200,6.8052412109375,0.23612132668495178,-0.5109173655509949,-0.22217948734760284
1761468581085196000,6.815196044921875,0.24220186471939087,-0.30107012391090393,-0.3013986647129059
1761468581095150800,6.82515087890625,0.23053784668445587,-0.10246635973453522,-0.3676621913909912
1761468581105106200,6.835106201171875,0.2082197666168213,0.04917909577488899,-0.41322195529937744
1761468581115061000,6.84506103515625,0.18808865547180176,0.1353292167186737,-0.43440258502960205
1761468581125016000,6.85501611328125,0.17650683224201202,0.1745152473449707,-0.4291955828666687
1761468581134972200,6.86497216796875,0.16875331103801727,0.17310497164726257,-0.4009522795677185
1761468581144927000,6.874927001953125,0.16214361786842346,0.13886897265911102,-0.3517032265663147
1761468581154882000,6.884882080078125,0.17191405594348907,0.09678402543067932,-0.28839465975761414
1761468581164837000,6.894837158203125,0.18802431225776672,0.082238107919693,-0.2049167901277542
1761468581174792000,6.9047919921875,0.2089415192604065,0.10385953634977341,-0.11789032816886902
1761468581184748000,6.914748046875,0.23398321866989136,0.13745158910751343,-0.04412342607975006
1761468581194703000,6.924703125,0.25058382749557495,0.17563028633594513,0.007479971274733543
1761468581204658000,6.934657958984375,0.26067134737968445,0.2252684235572815,0.042939428240060806
1761468581214613000,6.944613037109375,0.2621910572052002,0.274601012468338,0.06311627477407455
1761468581224568000,6.954568115234375,0.24748215079307556,0.31127727031707764,0.06330455839633942
1761468581234524000,6.96452392578125,0.2251146286725998,0.3230449855327606,0.04357185587286949
1761468581244479000,6.97447900390625,0.186265766620636,0.3088032007217407,0.006620761007070541
1761468581254434000,6.98443408203125,0.13551396131515503,0.26458117365837097,-0.046308957040309906
1761468581264389000,6.99438916015625,0.07464369386434555,0.19860750436782837,-0.1065555214881897
1761468581274344000,7.004343994140625,0.00006650638533756137,0.11622342467308044,-0.166642963886261
1761468581284299000,7.014299072265625,-0.0764588937163353,0.04136223345994949,-0.20749105513095856
1761468581294255000,7.024255126953125,-0.14554710686206818,-0.01994546689093113,-0.23722156882286072
1761468581304210000,7.0342099609375,-0.1881808489561081,-0.08056433498859406,-0.2498481422662735
1761468581314165000,7.0441650390625,-0.2056790441274643,-0.11832410842180252,-0.2521268427371979
1761468581324120000,7.0541201171875,-0.20818907022476196,-0.1251726895570755,-0.26094749569892883
1761468581334075000,7.064074951171875,-0.19464567303657532,-0.11713146418333054,-0.2604749798774719
1761468581344031000,7.074031005859375,-0.17535293102264404,-0.11894028633832932,-0.24806411564350128
1761468581353986000,7.083986083984375,-0.168137788772583,-0.12695473432540894,-0.22671234607696533
1761468581363940900,7.09394091796875,-0.18226638436317444,-0.14284634590148926,-0.21095921099185944
1761468581373896200,7.103896240234375,-0.20580367743968964,-0.17092032730579376,-0.20273403823375702
1761468581383851000,7.11385107421875,-0.23688888549804688,-0.18296900391578674,-0.1878136694431305
1761468581393806800,7.123806884765625,-0.2718665897846222,-0.18395890295505524,-0.16810016334056854
1761468581403762200,7.13376220703125,-0.30481868982315063,-0.20456138253211975,-0.14666303992271423
1761468581413717200,7.14371728515625,-0.33751872181892395,-0.20965270698070526,-0.11242037266492844
1761468581423672300,7.15367236328125,-0.3681011497974396,-0.1979270726442337,-0.07272915542125702
1761468581433627100,7.163627197265625,-0.39068493247032166,-0.19131885468959808,-0.03493969887495041
1761468581443582200,7.173582275390625,-0.4053022265434265,-0.17763419449329376,-0.008588518016040325
1761468581453538300,7.183538330078125,-0.41496244072914124,-0.14879150688648224,0.014677479863166809
1761468581463493000,7.1934931640625,-0.42885029315948486,-0.11825089156627655,0.03644349426031113
1761468581473448200,7.2034482421875,-0.44894033670425415,-0.09586293995380402,0.052444398403167725
1761468581483403300,7.2134033203125,-0.4771120250225067,-0.06687550246715546,0.0641937330365181
1761468581493358000,7.223358154296875,-0.5125245451927185,-0.035683270543813705,0.07382894307374954
1761468581503314200,7.233314208984375,-0.5504873991012573,-0.020951729267835617,0.08570131659507751
1761468581513269200,7.243269287109375,-0.5713256597518921,-0.0194289181381464,0.08816023916006088
1761468581523224000,7.25322412109375,-0.5833317041397095,-0.03171407803893089,0.062066592276096344
1761468581533179400,7.263179443359375,-0.601441502571106,-0.08844201266765594,-0.003432496218010783
1761468581543134200,7.27313427734375,-0.642531156539917,-0.1765391230583191,-0.08847256004810333
1761468581553090000,7.283090087890625,-0.704133927822113,-0.24204082787036896,-0.15854798257350922
1761468581563045400,7.29304541015625,-0.7793591618537903,-0.2664436399936676,-0.18825314939022064
1761468581573000200,7.303000244140625,-0.8633974194526672,-0.23236136138439178,-0.18190251290798187
1761468581582955000,7.312955078125,-0.9375584125518799,-0.1412506252527237,-0.13356800377368927
1761468581592910300,7.322910400390625,-0.9926183223724365,0.019551031291484833,-0.03959689289331436
1761468581602865200,7.332865234375,-1.015821099281311,0.23594991862773895,0.0894273966550827
1761468581612821000,7.342821044921875,-0.9865870475769043,0.4693905711174011,0.22951418161392212
1761468581622776300,7.3527763671875,-0.9087995886802673,0.6901711225509644,0.3510376811027527
1761468581632731100,7.362731201171875,-0.7886754870414734,0.8823637366294861,0.45020976662635803
1761468581642686200,7.372686279296875,-0.6449840664863586,1.0188461542129517,0.5271173119544983
1761468581652641300,7.382641357421875,-0.4994397759437561,1.081664800643921,0.5734156966209412
1761468581662597000,7.39259716796875,-0.358310341835022,1.069553256034851,0.5943995714187622
1761468581672552200,7.40255224609375,-0.23889601230621338,0.9701959490776062,0.5982435941696167
1761468581682507300,7.41250732421875,-0.15096908807754517,0.7875427603721619,0.5830281376838684
1761468581692462000,7.422462158203125,-0.10438480973243713,0.5490507483482361,0.5550743341445923
1761468581702417200,7.432417236328125,-0.0983000174164772,0.287699818611145,0.5211498737335205
1761468581712373200,7.442373291015625,-0.12043439596891403,0.039474163204431534,0.48715922236442566
1761468581722328000,7.452328125,-0.1554483026266098,-0.16240249574184418,0.4523535668849945
1761468581732283100,7.462283203125,-0.1966049075126648,-0.30625709891319275,0.40898868441581726
1761468581742238200,7.47223828125,-0.23052985966205597,-0.3968546390533447,0.3413446545600891
1761468581752193300,7.482193359375,-0.25773775577545166,-0.42131343483924866,0.2612171471118927
1761468581762148000,7.492148193359375,-0.2713305354118347,-0.40273550152778625,0.16441310942173004
1761468581772104200,7.502104248046875,-0.2802576720714569,-0.3470611274242401,0.06185203045606613
1761468581782059300,7.512059326171875,-0.27752819657325745,-0.25906601548194885,-0.04191484674811363
1761468581792014000,7.52201416015625,-0.26948732137680054,-0.15833935141563416,-0.13634730875492096
1761468581801969400,7.531969482421875,-0.26489415764808655,-0.05512508004903793,-0.21560138463974
1761468581811924200,7.54192431640625,-0.2632835805416107,0.034656669944524765,-0.2787799835205078
1761468581821880000,7.551880126953125,-0.2582944333553314,0.06819065660238266,-0.3265048861503601
1761468581831835400,7.56183544921875,-0.24372123181819916,0.03797083720564842,-0.36340442299842834
1761468581841790200,7.571790283203125,-0.22197571396827698,-0.028645208105444908,-0.3881734311580658
1761468581851745000,7.5817451171875,-0.20622625946998596,-0.09885234385728836,-0.4015650749206543
1761468581861700400,7.591700439453125,-0.19452379643917084,-0.14167465269565582,-0.40028756856918335
1761468581871656200,7.60165625,-0.18061044812202454,-0.13739712536334991,-0.38140761852264404
1761468581881611000,7.611611083984375,-0.16388419270515442,-0.08818138390779495,-0.34363678097724915
1761468581891566300,7.62156640625,-0.1429930180311203,-0.018310485407710075,-0.3041152358055115
1761468581901521200,7.631521240234375,-0.11000817269086838,0.04979533329606056,-0.27000707387924194
1761468581911476200,7.641476318359375,-0.06623002141714096,0.1236574575304985,-0.2334422618150711
1761468581921431300,7.651431396484375,-0.014889598824083805,0.19866299629211426,-0.19571883976459503
1761468581931387100,7.66138720703125,0.04079832881689072,0.25387629866600037,-0.15924477577209473
1761468581941342200,7.67134228515625,0.0978163480758667,0.28018301725387573,-0.12838885188102722
1761468581951297300,7.68129736328125,0.1411435753107071,0.2732732892036438,-0.10388505458831787
1761468581961252000,7.691252197265625,0.16861939430236816,0.23633337020874023,-0.09578026086091995
1761468581971207200,7.701207275390625,0.1849653422832489,0.1616528481245041,-0.09173540025949478
1761468581981163300,7.711163330078125,0.18888792395591736,0.06256356090307236,-0.07895249128341675
1761468581991118000,7.7211181640625,0.18083755671977997,-0.035376518964767456,-0.05657033622264862
1761468582001073200,7.7310732421875,0.15997542440891266,-0.12833602726459503,-0.03208176791667938
1761468582011028200,7.7410283203125,0.1269647479057312,-0.21884502470493317,-0.022869843989610672
1761468582020983300,7.7509833984375,0.09016331285238266,-0.27645769715309143,-0.022333215922117233
1761468582030939100,7.760939208984375,0.05034192278981209,-0.30325520038604736,-0.023466849699616432
1761468582040894200,7.770894287109375,0.009996099397540092,-0.3221423327922821,-0.03513868525624275
1761468582050849300,7.780849365234375,-0.016485517844557762,-0.32043078541755676,-0.0338778980076313
1761468582060804000,7.79080419921875,-0.028944849967956543,-0.2651912271976471,-0.009954719804227352
1761468582070759400,7.800759521484375,-0.023914996534585953,-0.1671043038368225,0.02690098248422146
1761468582080715300,7.81071533203125,-0.011995485983788967,-0.058997273445129395,0.0673285648226738
1761468582090670000,7.820670166015625,0.004626583307981491,0.0562627911567688,0.10728567838668823
1761468582100625200,7.830625244140625,0.024573659524321556,0.1588754504919052,0.14806747436523438
1761468582110580200,7.840580322265625,0.03759779408574104,0.2173268049955368,0.17983600497245789
1761468582120535000,7.85053515625,0.05516400188207626,0.22837385535240173,0.20106352865695953
1761468582130490400,7.860490478515625,0.07461823523044586,0.19786030054092407,0.21205590665340424
1761468582140446200,7.8704462890625,0.08879078179597855,0.15305741131305695,0.20754903554916382
1761468582150401000,7.880401123046875,0.10438663512468338,0.11211669445037842,0.18979202210903168
1761468582160356400,7.8903564453125,0.1177264079451561,0.08221632242202759,0.16963589191436768
1761468582170311200,7.900311279296875,0.1320878565311432,0.08609461039304733,0.14243187010288239
1761468582180266200,7.910266357421875,0.16012988984584808,0.14686980843544006,0.12448110431432724
1761468582190222300,7.920222412109375,0.20799529552459717,0.24206556379795074,0.11728407442569733
1761468582200177200,7.93017724609375,0.2559671103954315,0.30917295813560486,0.11827477067708969
1761468582210132200,7.94013232421875,0.2992508113384247,0.3269849717617035,0.10532572120428085
1761468582220087300,7.95008740234375,0.320221871137619,0.2760317921638489,0.07892581075429916
1761468582230042000,7.9600419921875,0.3091624975204468,0.16033264994621277,0.04098663479089737
1761468582239998200,7.969998291015625,0.26548880338668823,0.015417274087667465,0.003419284475967288
1761468582249953300,7.979953369140625,0.1893407255411148,-0.11286427080631256,-0.0180108193308115
1761468582259908000,7.989908203125,0.09102533757686615,-0.2028261125087738,-0.02102125808596611
1761468582271729200,8.001729248046875,-0.02875444106757641,-0.2585770785808563,-0.005575072951614857
1761468582281684200,8.011684326171874,-0.08698035031557083,-0.23865363001823425,0.017587654292583466
1761468582291640300,8.021640380859376,-0.08778728544712067,-0.15843228995800018,0.04793650656938553
1761468582301595100,8.03159521484375,-0.037471551448106766,-0.05282500758767128,0.08436832576990128
1761468582311550200,8.04155029296875,0.04025866091251373,0.05345802381634712,0.1180165633559227
1761468582321505000,8.051505126953124,0.11144933104515076,0.1910831183195114,0.14691869914531708
1761468582331460400,8.06146044921875,0.15655234456062317,0.33921319246292114,0.15824991464614868
1761468582341416200,8.071416259765625,0.1771480292081833,0.44624564051628113,0.1347149908542633
1761468582351371300,8.081371337890625,0.17521296441555023,0.46896612644195557,0.10283854603767395
1761468582361326300,8.091326416015624,0.16301894187927246,0.38325777649879456,0.07753881067037582
1761468582371281200,8.10128125,0.13706643879413605,0.20061978697776794,0.05585455149412155
1761468582381236000,8.111236083984375,0.10467296838760376,-0.01891082152724266,0.02971331775188446
1761468582391191300,8.12119140625,0.06979754567146301,-0.23145504295825958,-0.0035474321339279413
1761468582401147100,8.131147216796874,0.03329572454094887,-0.4078654944896698,-0.0347231924533844
1761468582411101700,8.141101806640625,0.0038550097960978746,-0.5396178960800171,-0.046857886016368866
1761468582421057000,8.15105712890625,-0.018085172399878502,-0.5960957407951355,-0.030023833736777306
1761468582431011800,8.16101171875,-0.027184661477804184,-0.5684976577758789,0.00016735936515033245
1761468582440967000,8.170966796875,-0.02709065191447735,-0.48671409487724304,0.02224975824356079
1761468582450923000,8.180923095703125,-0.0031596447806805372,-0.39099588990211487,0.016598200425505638
1761468582460877800,8.1908779296875,0.05531682074069977,-0.2857830226421356,-0.03996846824884415
1761468582470833000,8.2008330078125,0.14610610902309418,-0.18232771754264832,-0.13240332901477814
1761468582480788000,8.2107880859375,0.21831052005290985,-0.11609726399183273,-0.247010737657547
1761468582490743000,8.220742919921875,0.24161531031131744,-0.0851992666721344,-0.34896108508110046
1761468582500699000,8.230698974609375,0.23165185749530792,-0.0671069473028183,-0.4084286093711853
1761468582510654000,8.240654052734374,0.19480276107788086,-0.07927333563566208,-0.4337555468082428
1761468582520609000,8.250609130859376,0.14208640158176422,-0.09628681093454361,-0.4444815218448639
1761468582530563800,8.260563720703125,0.0954722911119461,-0.10087836533784866,-0.44141489267349243
1761468582540519000,8.270518798828125,0.05662751942873001,-0.1255553811788559,-0.4299877882003784
1761468582550475000,8.28047509765625,0.02123677358031273,-0.13982033729553223,-0.40157878398895264
1761468582560429800,8.290429931640626,0.0017430678708478808,-0.11642862111330032,-0.37400174140930176
1761468582570385000,8.300385009765625,0.00007086910773068666,-0.076309435069561,-0.34055882692337036
1761468582580340000,8.310340087890625,0.019539007917046547,-0.01745314709842205,-0.303150475025177
1761468582590294800,8.320294677734376,0.057601701468229294,0.06745695322751999,-0.27078935503959656
1761468582600250000,8.33025,0.10437341034412384,0.14079517126083374,-0.26561298966407776
1761468582610828800,8.340828857421876,0.14662952721118927,0.1764996349811554,-0.29310184717178345
1761468582620783900,8.350783935546875,0.1567612737417221,0.1581496149301529,-0.3223424255847931
1761468582630740000,8.360739990234375,0.15948568284511566,0.07622119784355164,-0.336209237575531
1761468582640694800,8.37069482421875,0.16561035811901093,-0.03508384898304939,-0.32880738377571106
1761468582650649900,8.38064990234375,0.17609655857086182,-0.11365322768688202,-0.31030985713005066
1761468582660605000,8.39060498046875,0.1940801441669464,-0.14164447784423828,-0.30358293652534485
1761468582670560000,8.40056005859375,0.21689598262310028,-0.10576289892196655,-0.32688960433006287
1761468582680516000,8.41051611328125,0.24459218978881836,-0.03266049176454544,-0.34666332602500916
1761468582690471000,8.420470947265626,0.2579716742038727,0.0034386583138257265,-0.32149139046669006
1761468582700426000,8.430426025390625,0.24673397839069366,-0.012667100876569748,-0.2749478220939636
1761468582710380800,8.440380859375,0.2295515239238739,-0.03920656815171242,-0.2323521375656128
1761468582720336000,8.4503359375,0.21738570928573608,-0.08090518414974213,-0.2185094654560089
1761468582730292000,8.4602919921875,0.20718660950660706,-0.1317039132118225,-0.2192724496126175
1761468582740247000,8.4702470703125,0.20293493568897247,-0.16611716151237488,-0.22026421129703522
1761468582750201900,8.480201904296875,0.20784100890159607,-0.20171964168548584,-0.23258478939533234
1761468582760157000,8.490156982421874,0.21970155835151672,-0.20468172430992126,-0.25225937366485596
1761468582770111700,8.50011181640625,0.22033193707466125,-0.1425563097000122,-0.27807632088661194
1761468582780067800,8.51006787109375,0.20099635422229767,-0.03012828901410103,-0.2755120098590851
1761468582790023000,8.52002294921875,0.16137996315956116,0.07739949971437454,-0.19374339282512665
1761468582799977700,8.529977783203124,0.09566045552492142,0.1388559192419052,-0.03209381923079491
1761468582809933000,8.53993310546875,0.02888515777885914,0.13323558866977692,0.17628388106822968
1761468582819887900,8.549887939453125,-0.014940348453819752,0.09571465849876404,0.3701465129852295
1761468582829844000,8.559843994140625,-0.014123822562396526,0.07480085641145706,0.4849340617656708
1761468582839799000,8.569799072265624,0.024197464808821678,0.06652061641216278,0.5065299272537231
1761468582849753900,8.57975390625,0.06473582983016968,0.03380315378308296,0.44531184434890747
1761468582859708700,8.589708740234375,0.08575551956892014,-0.030513055622577667,0.35198974609375
1761468582869664000,8.5996640625,0.07426132261753082,-0.07873278111219406,0.27238571643829346
1761468582879619800,8.609619873046874,0.04613003507256508,-0.08249690383672714,0.2299555242061615
1761468582889575000,8.619574951171876,0.018138613551855087,-0.06984582543373108,0.22876349091529846
1761468582899530000,8.629530029296875,-0.007733997423201799,-0.06805425137281418,0.2721213698387146
1761468582909484800,8.63948486328125,-0.01891208440065384,-0.08428329229354858,0.3344888687133789
1761468582919440000,8.64943994140625,-0.029984554275870323,-0.15532977879047394,0.35924312472343445
1761468582929396000,8.65939599609375,-0.0667036920785904,-0.24746263027191162,0.3145315647125244
1761468582939350800,8.669350830078125,-0.11540406197309494,-0.29369422793388367,0.20396360754966736
1761468582949306000,8.67930615234375,-0.18718157708644867,-0.30511438846588135,0.05106300860643387
1761468582959261000,8.689260986328126,-0.2856792211532593,-0.2615133225917816,-0.10775519907474518
1761468582969215700,8.6992158203125,-0.40202048420906067,-0.15558397769927979,-0.2331530600786209
1761468582979172000,8.709172119140625,-0.5113508105278015,0.002871994860470295,-0.2916698753833771
1761468582989127000,8.719126953125,-0.6027925610542297,0.17661529779434204,-0.2565150856971741
1761468582999081700,8.729081787109376,-0.658675491809845,0.260073184967041,-0.15747496485710144
1761468583009036800,8.739036865234375,-0.701937735080719,0.24847780168056488,-0.008772315457463264
1761468583018991900,8.748991943359375,-0.7229759097099304,0.21643829345703125,0.16252069175243378
1761468583028947700,8.75894775390625,-0.7164162993431091,0.17452946305274963,0.3135432302951813
1761468583038903000,8.768903076171876,-0.6626377105712891,0.12499286979436874,0.4370291233062744
1761468583048857900,8.77885791015625,-0.5760743021965027,0.09111906588077545,0.527920663356781
1761468583058813000,8.78881298828125,-0.47521254420280457,0.06615020334720612,0.5676096081733704
1761468583068767700,8.798767822265624,-0.3738270699977875,0.0636870488524437,0.5635097026824951
1761468583078723800,8.808723876953126,-0.2786453366279602,0.08305007964372635,0.5255992412567139
1761468583088679000,8.818678955078125,-0.20155294239521027,0.09139269590377808,0.4632008671760559
1761468583098634000,8.828634033203125,-0.14731469750404358,0.08827614784240723,0.3808850646018982
1761468583108589000,8.838589111328124,-0.12077709287405014,0.054816994816064835,0.28506001830101013
1761468583118544000,8.8485439453125,-0.123239666223526,-0.0007953057065606117,0.17172236740589142
1761468583128500000,8.8585,-0.1457819789648056,-0.06615593284368515,0.07426772266626358
1761468583138455000,8.868455078125,-0.17621132731437683,-0.1062544509768486,0.006268331315368414
1761468583148409900,8.878409912109374,-0.19314102828502655,-0.10941189527511597,-0.004171526059508324
1761468583158365000,8.888364990234376,-0.18710976839065552,-0.10176660865545273,0.033963557332754135
1761468583168320000,8.898320068359375,-0.1775418370962143,-0.10279778391122818,0.06273634731769562
1761468583178275800,8.90827587890625,-0.18494242429733276,-0.04930144548416138,0.07653642445802689
1761468583188231000,8.91823095703125,-0.2089201956987381,0.08591176569461823,0.07195498794317245
1761468583198186000,8.92818603515625,-0.23608440160751343,0.2410905361175537,0.03339996933937073
1761468583208140800,8.938140869140625,-0.2671549618244171,0.3547803461551666,-0.03922070562839508
1761468583218095900,8.948095947265625,-0.3412344455718994,0.478622168302536,-0.0334402397274971
1761468583228052000,8.958052001953124,-0.4488424062728882,0.31696510314941406,-0.14320161938667297
1761468583238006800,8.9680068359375,-0.5091255903244019,0.2239535003900528,-0.21041259169578552
1761468583247962000,8.977962158203125,-0.5200003385543823,0.10581940412521362,-0.2779061794281006
1761468583257917000,8.9879169921875,-0.486442893743515,0.04416251927614212,-0.3397827446460724
1761468583267871700,8.997871826171876,-0.4422256350517273,0.02257227525115013,-0.4008578062057495
1761468583277828000,9.007828125,-0.4106701612472534,0.013594336807727814,-0.45950260758399963
1761468583287783000,9.017782958984375,-0.3611832857131958,0.05715300142765045,-0.4931303560733795
1761468583297737700,9.02773779296875,-0.2961519956588745,0.1586941033601761,-0.4562380909919739
