time,seconds_elapsed,z,y,x
1761508309126728000,0.10972802734375,-0.0024602911435067654,-0.00017859903164207935,-0.002152710920199752
1761508309136698600,0.11969873046875,-0.0003425455652177334,-0.001487010158598423,0.00154695229139179
1761508309146670800,0.1296708984375,0.0004332331009209156,-0.0010308106429874897,0.0032013077288866043
1761508309156642000,0.13964208984375,-0.00010934751480817795,-0.001782456529326737,0.00016921001952141523
1761508309166614000,0.149614013671875,0.0006198259070515633,0.0033846083097159863,0.000698113813996315
1761508309176585000,0.1595849609375,-0.0012709423899650574,0.0027761750388890505,0.0017643471946939826
1761508309186556200,0.16955615234375,-0.001876278780400753,0.0002722711069509387,0.0006069374503567815
1761508309196527900,0.17952783203125,-0.00036794040352106094,-0.0008945587323978543,0.0008235487621277571
1761508309206499000,0.1894990234375,0.0009884070605039597,-0.000861002947203815,-0.0019924778025597334
1761508309216470000,0.199469970703125,-0.002192598767578602,-0.0009094065753743052,-0.0010456106392666698
1761508309226442000,0.20944189453125,0.0008143763989210129,-0.0010598752414807677,0.00008037395309656858
1761508309236413000,0.219412841796875,-0.0031973719596862793,-0.0003192005679011345,-0.00242024939507246
1761508309246385200,0.22938525390625,-0.0018580686300992966,-0.00015541620086878538,-0.002219979651272297
1761508309256356000,0.239356201171875,-0.0003238348290324211,-0.0007999925874173641,0.001596267567947507
1761508309266326800,0.249326904296875,0.001013871282339096,-0.0018444843590259552,-0.0015071140369400382
1761508309276299000,0.259299072265625,-0.00006153993308544159,0.0004240802372805774,0.0018044018652290106
1761508309286270000,0.26927001953125,-0.0006604846566915512,-0.0019519920460879803,-0.001934410072863102
1761508309296241200,0.2792412109375,0.0006248606368899345,-0.00214110198430717,-0.001926822355017066
1761508309306212900,0.289212890625,-0.003349906764924526,0.0018999786116182804,-0.00035316048888489604
1761508309316184000,0.29918408203125,0.0008157696574926376,-0.0018937026616185904,0.0014911575708538294
1761508309326155800,0.30915576171875,-0.0014045080170035362,-0.002080123871564865,0.00035691726952791214
1761508309336127000,0.319126953125,-0.0015229680575430393,-0.0007539946818724275,-0.0005223113112151623
1761508309346098000,0.329097900390625,0.00024137645959854126,0.0005775858880952001,0.001748832524754107
1761508309356070100,0.339070068359375,-0.0008738646283745766,-0.0013237614184617996,-0.0020793932490050793
1761508309366040800,0.349040771484375,0.0012156511656939983,-0.0020667833741754293,0.0008295776788145304
1761508309376013000,0.359012939453125,-0.003265498671680689,-0.0022011147812008858,-0.0000781182898208499
1761508309385984000,0.36898388671875,0.0007217861711978912,-0.0002860358217731118,-0.000587048358283937
1761508309395955200,0.378955078125,0.0012302347458899021,0.00039188016671687365,-0.0005525464075617492
1761508309405927000,0.388927001953125,-0.0009170724079012871,0.0017261238535866141,-0.0016993035096675158
1761508309415898000,0.398898193359375,-0.0009145638905465603,0.0014580946881324053,0.0010514635359868407
1761508309425869800,0.408869873046875,0.0009184898808598518,-0.0007699058623984456,0.0018261770019307733
1761508309435841000,0.418841064453125,-0.0003528762608766556,0.001645230338908732,0.0015863513108342886
1761508309445812000,0.42881201171875,0.0006213085725903511,-0.00008742220234125853,0.001096862368285656
1761508309455784200,0.4387841796875,0.001104708295315504,-0.0032820994965732098,0.002473801374435425
1761508309465755000,0.4487548828125,-0.00012141093611717224,0.0005374060128815472,0.00011317536700516939
1761508309475726000,0.45872607421875,0.001370812300592661,-0.001472648698836565,-0.0020623772870749235
1761508309485698000,0.468697998046875,0.002119692973792553,-0.0004806211218237877,-0.0008120231213979423
1761508309495669200,0.478669189453125,-0.002388747874647379,-0.00015069730579853058,-0.0013417033478617668
1761508309505641000,0.488640869140625,0.000018483959138393402,-0.001547258929349482,-0.0003467464121058583
1761508309515612200,0.498612060546875,0.0002570473589003086,-0.0019031546544283628,0.0003030807711184025
1761508309525583000,0.5085830078125,-0.0004098084755241871,0.00023323309142142534,-0.000391471607144922
1761508309535555000,0.51855517578125,-0.0011313315480947495,-0.0009048371575772762,-0.0012387923197820783
1761508309545526000,0.528526123046875,0.0001634969376027584,-0.0005844589322805405,0.0031961698550730944
1761508309555498200,0.538498291015625,0.00048450892791152,-0.003237483324483037,-0.0004872201825492084
1761508309565469000,0.548468994140625,0.0006879745051264763,-0.000010797171853482723,-0.002545577473938465
1761508309575440000,0.55843994140625,-0.00205804780125618,-0.0013986211270093918,0.0009470738004893064
1761508309585412000,0.568412109375,-0.0009965114295482635,0.000841363740619272,0.0005896774819120765
1761508309595383000,0.578383056640625,0.00009993836283683777,0.0004820198519155383,0.0008521238341927528
1761508309605354000,0.58835400390625,0.000293816439807415,0.0008146486361511052,0.002039627404883504
1761508309615326000,0.598325927734375,0.0013899058103561401,0.0003294979687780142,0.0025676856748759747
1761508309625297200,0.608297119140625,0.000014116521924734116,-0.0011381700169295073,-0.0031506535597145557
1761508309635268900,0.618268798828125,0.0011107921600341797,0.0010679020779207349,-0.00009793485514819622
1761508309645240000,0.628239990234375,0.0010623224079608917,-0.001457573613151908,0.0036001307889819145
1761508309655211000,0.6382109375,-0.00034355465322732925,-0.0012115425197407603,-0.0005758691113442183
1761508309665183000,0.648182861328125,0.0015922971069812775,-0.0007343039615079761,-0.001107702380977571
1761508309675154000,0.65815380859375,0.00042742490768432617,-0.0022804902400821447,0.000530571211129427
1761508309685126100,0.668126220703125,0.002386712469160557,-0.0007137525826692581,0.0005963512230664492
1761508309695097000,0.67809716796875,0.0019539487548172474,0.0007901344215497375,-0.0011815751204267144
1761508309705068000,0.688068115234375,0.0010798992589116096,0.0003397938562557101,-0.000695015536621213
1761508309715040000,0.6980400390625,-0.0003477144055068493,-0.001028832863084972,-0.0023881220258772373
1761508309725011200,0.70801123046875,0.0009431191720068455,0.0004273836384527385,0.0012028844794258475
1761508309734983000,0.71798291015625,-0.0006858352571725845,-0.00216784980148077,-0.0020791669376194477
1761508309744954000,0.7279541015625,0.0009682541713118553,0.0007432515849359334,0.0004833267303183675
1761508309754925000,0.737925048828125,0.0006301654502749443,-0.0010592237813398242,0.002147706225514412
1761508309764897000,0.74789697265625,0.0014568106271326542,0.0027232638094574213,-0.0010904312366619706
1761508309774868000,0.757867919921875,-0.0027721328660845757,-0.0009725599084049463,-0.0016075773164629936
1761508309784839000,0.7678388671875,-0.0008171061053872108,0.00045649230014532804,-0.0006365887238644063
1761508309794811100,0.77781103515625,-0.0015229550190269947,0.0010875362204387784,-0.003428673604503274
1761508309804781800,0.78778173828125,0.0004943897947669029,0.0012550490209832788,-0.0015884293243288994
1761508309814754000,0.797754150390625,-0.0005245027132332325,-0.0012145929504185915,0.0012671472504734993
1761508309824725000,0.80772509765625,-0.0001926724798977375,0.0005825082189403474,-0.0035185532178729773
1761508309834696000,0.817696044921875,-0.0003990740515291691,0.00105772796086967,-0.0011995466193184257
1761508309844668000,0.82766796875,0.0007471502758562565,-0.0006986268563196063,-0.000008048373274505138
1761508309854639000,0.83763916015625,-0.0025662099942564964,0.0005160067230463028,0.0011956142261624336
1761508309864610800,0.84761083984375,0.0002902969717979431,0.0003865770995616913,0.0003900080919265747
1761508309874582000,0.85758203125,0.0003041350282728672,-0.0004434135043993592,-0.0015651386929675937
1761508309884553000,0.867552978515625,0.0015662070363759995,0.0001360903261229396,-0.0026399902999401093
1761508309894525000,0.87752490234375,-0.003576240036636591,0.0006445810431614518,-0.0004560459638014436
1761508309904495900,0.887495849609375,-0.000020653940737247467,-0.00019884202629327774,0.00044889620039612055
1761508309914468000,0.897468017578125,0.00030331267043948174,-0.00027773925103247166,0.0011102791177108884
1761508309924439000,0.90743896484375,0.0014005349949002266,-0.0007347377249971032,0.0012580844340845942
1761508309934410000,0.917409912109375,0.0010087513364851475,-0.00020098628010600805,0.001366458716802299
1761508309944382000,0.9273818359375,-0.0038326093927025795,0.0006706663407385349,0.000413845875300467
1761508309954353200,0.937353271484375,-0.000001094769686460495,-0.0013189157471060753,0.0011996981920674443
1761508309964324900,0.947324951171875,-0.00129219563677907,-0.0011138524860143661,-0.001564396545290947
1761508309974296000,0.957296142578125,0.0009919269941747189,-0.0012053633108735085,-0.0008767861872911453
1761508309984267000,0.96726708984375,0.001483812928199768,0.0012300974922254682,-0.0005609352956525981
1761508309994239000,0.977239013671875,0.00008891476318240166,-0.0022581424564123154,-0.001556674367748201
1761508310004210000,0.9872099609375,0.0019454043358564377,-0.0015004730084910989,-0.00014200317673385143
1761508310014181000,0.99718115234375,-0.0004444294609129429,-0.0007286648033186793,0.001463717082515359
1761508310024153000,1.007153076171875,0.0007249643094837666,0.0008529865881428123,0.0010788904037326574
1761508310034124000,1.0171240234375,-0.003677191212773323,0.00152439228259027,-0.0040013911202549934
1761508310044096000,1.027095947265625,-0.0015599783509969711,-0.0008692567935213447,0.002172082429751754
1761508310054067200,1.037067138671875,-0.00014491286128759384,-0.0030541049782186747,0.0007013593567535281
1761508310064038100,1.0470380859375,-0.0017143134027719498,0.00041040126234292984,-0.0024954990949481726
1761508310074010000,1.057010009765625,0.0005315002053976059,-0.00012038927525281906,-0.000922035425901413
1761508310083981000,1.06698095703125,-0.001062401570379734,0.0006481989985331893,0.00037652195896953344
1761508310093953000,1.076953125,0.0014189612120389938,-0.00009064481128007174,-0.0018638267647475004
1761508310103924000,1.086924072265625,-0.000921956729143858,0.0003024376928806305,0.0017522134585306048
1761508310113895000,1.09689501953125,0.0002388102002441883,-0.00001911446452140808,0.000947078107856214
1761508310123867100,1.1068671875,-0.003732229582965374,-0.0010691988281905651,0.0035372688435018063
1761508310133837800,1.116837890625,0.0024554100818932056,0.002565126633271575,-0.0024375575594604015
1761508310143810000,1.12681005859375,-0.000008014030754566193,0.0003855956019833684,0.00005356327164918184
1761508310153780700,1.13678076171875,0.0005002943798899651,-0.00036382535472512245,0.002012951299548149
1761508310163751700,1.146751708984375,-0.0010379473678767681,-0.0013345475308597088,-0.0018558228621259332
1761508310173723600,1.1567236328125,-0.0005478751845657825,0.0005838765064254403,0.0013901968486607075
1761508310183694600,1.166694580078125,0.0021493742242455482,-0.0013591657625511289,0.0015696939080953598
1761508310193666800,1.176666748046875,0.0008677211590111256,0.00010440987534821033,-0.0005731940036639571
1761508310203637500,1.186637451171875,-0.00037783943116664886,-0.00033314747270196676,-0.00012551661347970366
1761508310213608700,1.196608642578125,0.0002631768584251404,-0.0009165239753201604,0.0004267650656402111
1761508310223580700,1.20658056640625,0.0011404221877455711,0.0003146554809063673,0.0017924340208992362
1761508310233551600,1.216551513671875,0.0032284888438880444,-0.0017489969031885266,0.0001255366951227188
1761508310243523600,1.226523681640625,-0.0020126118324697018,0.0012814141809940338,-0.0014214935945346951
1761508310253494800,1.236494873046875,0.0018443982116878033,0.0006482531316578388,0.00010500545613467693
1761508310263465700,1.2464658203125,-0.0007452596910297871,-0.002796012908220291,-0.0036971895024180412
1761508310273437700,1.256437744140625,0.0007745870389044285,-0.0006702614482492208,-0.0013841440668329597
1761508310283408600,1.26640869140625,-0.00035379454493522644,-0.000783978495746851,-0.0004038345068693161
1761508310293379600,1.276379638671875,0.0001421011984348297,0.001578075927682221,-0.00022899132454767823
1761508310303351600,1.2863515625,0.0010270695202052593,-0.00016789243090897799,-0.00023857870837673545
1761508310313322500,1.296322509765625,-0.001190172042697668,-0.0015256894985213876,0.0014495768118649721
1761508310323294700,1.306294677734375,0.0007238420657813549,0.0005339994095265865,0.00016060692723840475
1761508310333265700,1.316265625,0.001213163137435913,-0.0010982443345710635,0.0016862472984939814
1761508310343236600,1.326236572265625,0.0007617571391165257,0.005042472388595343,-0.0003814309020526707
1761508310353208600,1.33620849609375,-0.0007774988189339638,-0.0019899834878742695,0.0007313690148293972
1761508310363179800,1.3461796875,0.002550653647631407,-0.0013300521532073617,-0.003210908267647028
1761508310373151500,1.3561513671875,0.00014241831377148628,0.000012982985936105251,0.0011452777544036508
1761508310383122700,1.366122802734375,-0.0013281791470944881,0.001999967498704791,0.0010555292246863246
1761508310393093600,1.37609375,0.0011907117441296577,-0.0006254359614104033,0.0007843290222808719
1761508310403065600,1.386065673828125,-0.0010442128404974937,-0.00040093145798891783,-0.0006756159127689898
1761508310413036500,1.39603662109375,-0.000010317657142877579,-0.0021164240315556526,-0.00012109114322811365
1761508310423008800,1.4060087890625,-0.000984768383204937,0.00022316293325275183,-0.00029899028595536947
1761508310432979500,1.4159794921875,0.0030857142992317677,0.0010830741375684738,0.00029790843836963177
1761508310442950700,1.42595068359375,-0.0008429810404777527,0.0020284962374716997,-0.0025878928136080503
1761508310452922600,1.435922607421875,0.0012652897275984287,0.0008107058238238096,0.000975744565948844
1761508310462893800,1.445893798828125,-0.0007861428894102573,0.00024691468570381403,-0.0008637008722871542
1761508310472865500,1.455865478515625,0.001002502627670765,0.0025560325011610985,-0.0009473221143707633
1761508310482836700,1.465836669921875,0.0012539047747850418,-0.002279735403135419,-0.0022123237140476704
1761508310492807700,1.4758076171875,-0.000899014063179493,0.0006323348497971892,0.001494620111770928
1761508310502779600,1.485779541015625,-0.0004963437095284462,-0.0003730084281414747,-0.002290530828759074
1761508310512750600,1.49575048828125,-0.0011917287483811378,0.0008447672007605433,0.00010979210492223501
1761508310522722800,1.505722900390625,0.00001761317253112793,0.0028234957717359066,0.0011867745779454708
1761508310532693500,1.515693603515625,-0.001077856868505478,-0.000578084378503263,-0.00007642561104148626
1761508310542664400,1.52566455078125,-0.0015369858592748642,-0.0001996492501348257,-0.00010518776252865791
1761508310552636700,1.53563671875,0.000878648366779089,0.0010140552185475826,-0.0011081099510192871
1761508310562607600,1.545607666015625,0.0003699846565723419,-0.0008096775272861123,-0.0007224843138828874
1761508310572578600,1.55557861328125,0.0012231185100972652,-0.0004220781847834587,0.001218001008965075
1761508310582550800,1.56555078125,-0.00001578405499458313,-0.0003443139139562845,0.0013181358808651567
1761508310592521700,1.575521728515625,0.0000357520766556263,0.00027919665444642305,0.0019003372872248292
1761508310602493700,1.58549365234375,-0.0011189947836101055,0.002275502309203148,0.000346382730640471
1761508310612464600,1.595464599609375,-0.001042730174958706,0.0004936247714795172,0.002166957827284932
1761508310622435600,1.605435546875,-0.0037362510338425636,-0.0011572687653824687,-0.0008671816904097795
1761508310632407600,1.615407470703125,-0.0006132284179329872,-0.0006863115122541785,-0.002128513529896736
1761508310642378500,1.62537841796875,0.0015780199319124222,-0.0011672783875837922,-0.001199869206175208
1761508310652350700,1.635350830078125,-0.00006951345130801201,-0.0004279215354472399,0.0005213005933910608
1761508310662321700,1.64532177734375,-0.000340090598911047,-0.0027999989688396454,0.0005085174925625324
1761508310672292600,1.655292724609375,0.0013777301646769047,0.001795582938939333,-0.0015406174352392554
1761508310682264600,1.6652646484375,-0.00034932978451251984,-0.0010263025760650635,0.0022290870547294617
1761508310692235800,1.67523583984375,-0.0010674996301531792,-0.002212667837738991,-0.0009711010497994721
1761508310702207500,1.68520751953125,0.0003871191293001175,0.0018374673090875149,0.0014707512455061078
1761508310712178700,1.6951787109375,-0.0020846794359385967,0.0012105867499485612,-0.0006270430749282241
1761508310722149600,1.705149658203125,-0.0008995733223855495,-0.002968179527670145,0.0020936422515660524
1761508310732121600,1.71512158203125,-0.0005584657192230225,0.0005318726180121303,0.0005610637599602342
1761508310742092500,1.725092529296875,0.0021505015902221203,0.0005704884533770382,-0.0022997038904577494
1761508310752064800,1.735064697265625,0.0005680639296770096,-0.00012693472672253847,0.000010377145372331142
1761508310762035700,1.74503564453125,-0.0023635434918105602,0.0004765376215800643,-0.00039735285099595785
1761508310772006700,1.755006591796875,0.0023489324375987053,-0.0009698328794911504,-0.0006779532413929701
1761508310781978600,1.764978515625,-0.0007813470438122749,0.0014400616055354476,0.0008549622725695372
1761508310791949800,1.77494970703125,0.0004651225171983242,0.00019504863303154707,-0.0011608332861214876
1761508310801921500,1.784921630859375,-0.0012478223070502281,-0.00022599718067795038,-0.00019517116015776992
1761508310811892700,1.794892822265625,-0.0015105782076716423,-0.0009847712935879827,-0.0012185989180579782
1761508310821863700,1.80486376953125,-0.000041046179831027985,-0.0001461418578401208,0.0009249793365597725
1761508310831835600,1.814835693359375,-0.00029795849695801735,0.003136715618893504,-0.0010329182259738445
1761508310841806600,1.824806640625,0.0007084500975906849,-0.0007938437629491091,0.0003021244192495942
1761508310851777500,1.834777587890625,0.00015708059072494507,-0.0002302753273397684,0.0010385650675743818
1761508310861749800,1.844749755859375,0.0018194257281720638,-0.0005647683283314109,0.0027214165311306715
1761508310871720400,1.854720458984375,-0.0000721062533557415,-0.001229461864568293,-0.0004627998569048941
1761508310881692700,1.864692626953125,0.0013404344208538532,-0.004271058365702629,0.00028847786597907543
1761508310891663600,1.87466357421875,0.0008072871714830399,-0.0001696260878816247,-0.0009405425516888499
1761508310901634800,1.884634765625,-0.00034745922312140465,0.0011257354635745287,-0.0013168472796678543
1761508310911606500,1.8946064453125,-0.0009793741628527641,-0.0004173411289229989,0.0035712902899831533
1761508310921577700,1.90457763671875,-0.0007516741752624512,-0.0017004521796479821,0.000618110760115087
1761508310931549400,1.914549560546875,-0.0005162665620446205,0.0014768604887649417,-0.0015043107559904456
1761508310941520600,1.924520751953125,-0.0008646082133054733,-0.0008171863155439496,0.0018435490783303976
1761508310951491600,1.93449169921875,0.0012105763889849186,0.0012226287508383393,0.002459800336509943
1761508310961463800,1.9444638671875,0.0010063117370009422,0.001390940509736538,-0.0017181667499244213
1761508310971434500,1.9544345703125,-0.0025499509647488594,0.00012745405547320843,-0.002870257943868637
1761508310981406700,1.96440673828125,-0.0003605666570365429,0.0004928397829644382,0.0012520491145551205
1761508310991377700,1.974377685546875,0.00004105735570192337,0.0011148472549393773,-0.0009647597908042371
1761508311001348600,1.9843486328125,0.0018490776419639587,-0.0010039637563750148,0.00349124101921916
1761508311011320600,1.994320556640625,-0.0015741144306957722,-0.0006074722623452544,0.00013165688142180443
1761508311021291800,2.004291748046875,0.0016152872703969479,0.0003193077864125371,-0.0004041711217723787
1761508311031263500,2.014263427734375,-0.001498472411185503,-0.0013522987719625235,0.0008212854154407978
1761508311041234700,2.024234619140625,0.0011042351834475994,0.0004442696226760745,0.0035904403775930405
1761508311051205600,2.03420556640625,0.0006918059661984444,0.0002677571028470993,0.0013606558786705136
1761508311061177900,2.044177734375,0.00003293994814157486,-0.0010814003180712461,0.0006432002410292625
1761508311071148500,2.0541484375,-0.0015705497935414314,0.0012036249972879887,-0.00011554890079423785
1761508311081119500,2.064119384765625,-0.000604887492954731,0.0002491481136530638,-0.00026042485842481256
1761508311091091700,2.074091796875,-0.0007892539724707603,-0.00007560907397419214,-0.0007913352455943823
1761508311101062700,2.084062744140625,-0.0009011067450046539,0.00013424793723970652,-0.0018693828023970127
1761508311111034600,2.09403466796875,-0.0001127920113503933,-0.00036722561344504356,0.0015487933997064829
1761508311121005600,2.104005615234375,-0.0011322498321533203,-0.0011435371125116944,0.00191551074385643
1761508311130976800,2.113976806640625,0.0012183268554508686,0.0017335416050627828,0.002291605342179537
1761508311140948500,2.123948486328125,-0.0002011382021009922,0.0005103517323732376,-0.000167823804076761
1761508311150919700,2.133919677734375,0.00155575480312109,-0.000681803678162396,0.0014955541118979454
1761508311160892000,2.143891845703125,-0.0007617282681167126,-0.0010583746479824185,-0.0005393673782236874
1761508311170862800,2.15386279296875,-0.00036829011514782906,-0.00015475915279239416,-0.0007130948361009359
1761508311180834000,2.163833984375,-0.001085480209439993,0.0008828084100969136,0.0014347446849569678
1761508311190806000,2.173805908203125,0.00032051559537649155,-0.0001959209330379963,-0.0006519083981402218
1761508311200777000,2.18377685546875,0.0004400918260216713,-0.0006827468750998378,0.0009731524623930454
1761508311210749000,2.1937490234375,0.0023697209544479847,0.00023972452618181705,0.00006877328269183636
1761508311220720000,2.20372021484375,0.000969430897384882,0.00017873814795166254,0.003183340188115835
1761508311230691000,2.213691162109375,-0.0007614004425704479,-0.002001721877604723,-0.0014162512961775064
1761508311240663000,2.2236630859375,0.0006969464011490345,-0.0013258117251098156,0.0014671531971544027
1761508311250634000,2.233634033203125,-0.001140571665018797,0.00007876858580857515,-0.002468892838805914
1761508311260606000,2.24360595703125,0.0004663798026740551,-0.0003550603287294507,-0.0002566050970926881
1761508311270577000,2.253576904296875,0.0010447995737195015,0.00087066984269768,-0.0011753450380638242
1761508311280548000,2.263548095703125,-0.0010460480116307735,0.0004917019978165627,0.002912607043981552
1761508311290520000,2.27352001953125,0.000646709930151701,-0.0012567989761009812,0.0015388731844723225
1761508311300491000,2.283490966796875,-0.0009834105148911476,-0.002277588937431574,-0.0017498643137514591
1761508311310463000,2.293462890625,0.001480218954384327,-0.0003084000200033188,-0.0007636075606569648
1761508311320434200,2.30343408203125,-0.0010891985148191452,-0.00045833608601242304,-0.0008823844837024808
1761508311330405000,2.313405029296875,-0.0005349242128431797,0.0015026591718196869,-0.0010020985500887036
1761508311340377000,2.323377197265625,-0.0008784723468124866,0.0005087674362584949,-0.0016063698567450047
1761508311350348000,2.33334814453125,0.0011090505868196487,-0.0008858974324539304,0.0012048108037561178
1761508311360319200,2.3433193359375,0.0003623003140091896,0.0014009588630869985,0.00014620425645262003
1761508311370291000,2.353291015625,-0.002685749903321266,-0.0005545488093048334,-0.0011034058406949043
1761508311380262100,2.36326220703125,0.00153349619358778,-0.0032776312436908484,0.0014449730515480042
1761508311390234000,2.373234130859375,-0.0010128351859748363,-0.002189061837270856,-0.000459067290648818
1761508311400205000,2.383205078125,-0.0002109571360051632,-0.001665750751271844,0.0026238078717142344
1761508311410176000,2.393176025390625,0.0021065259352326393,0.0010011896956712008,0.0006766067817807198
1761508311420148200,2.403148193359375,0.00013046059757471085,-0.0009040357545018196,-0.0011204942129552364
1761508311430119000,2.413118896484375,-0.0005160323344171047,0.0009332966874353588,-0.0015624669613316655
1761508311440091100,2.423091064453125,-0.003623941447585821,0.00017482845578342676,-0.00041997089283540845
1761508311450062000,2.43306201171875,0.002141620498150587,0.0002955050440505147,-0.002301513683050871
1761508311460033000,2.443032958984375,0.0006537120789289474,0.00003265100531280041,-0.0010841826442629099
1761508311470005000,2.4530048828125,0.0009409585036337376,0.00007148506119847298,-0.00023337232414633036
1761508311479976000,2.462975830078125,-0.00024148495867848396,0.0004163644043728709,0.0003546535735949874
1761508311489948200,2.4729482421875,-0.0026197792030870914,-0.000623527797870338,0.0027820453979074955
1761508311499918800,2.4829189453125,-0.000692449975758791,-0.001911965082399547,-0.000052623217925429344
1761508311509890000,2.49289013671875,-0.0014133499935269356,-0.0027749240398406982,-0.0009849810739979148
1761508311519862000,2.502862060546875,0.0004141111858189106,-0.0031504295766353607,0.0012965489877387881
1761508311529833000,2.5128330078125,-0.002307932823896408,-0.00046492961701005697,-0.0018267522100359201
1761508311539805000,2.522804931640625,0.0012713554315268993,0.001094084931537509,0.0020585334859788418
1761508311549776100,2.532776123046875,-0.002140992321074009,0.0012700916267931461,0.0003235641634091735
1761508311559747000,2.5427470703125,-0.00010473886504769325,-0.0006638959748670459,-0.0007129381410777569
1761508311569719000,2.552718994140625,-0.00006841635331511497,0.00033485819585621357,-0.0007868572720326483
1761508311579690000,2.56268994140625,0.001236265990883112,0.0004411182599142194,0.0002736134920269251
1761508311589662000,2.572661865234375,0.0004886444658041,-0.0006548116216436028,0.0006839608540758491
1761508311599633000,2.5826328125,-0.00101550854742527,0.0020451010204851627,0.00131779327057302
1761508311609604000,2.59260400390625,0.00010277377441525459,0.00001543003600090742,-0.0008575356332585216
1761508311619576000,2.602576171875,-0.0011401232331991196,0.000017560552805662155,0.0033752925228327513
1761508311629547000,2.612547119140625,-0.0013921591453254223,0.0008053225465118885,-0.000041962251998484135
1761508311639518000,2.62251806640625,0.000991370528936386,0.00027455459348857403,0.0009601853089407086
1761508311649490200,2.632490234375,0.00042940396815538406,-0.0036763306707143784,0.0024637612514197826
1761508311659461000,2.642461181640625,-0.0016555851325392723,0.0014910008758306503,0.001302356831729412
1761508311669433000,2.65243310546875,0.0007913652807474136,0.0010181453544646502,-0.003097941866144538
1761508311679404000,2.662404052734375,0.00030587101355195045,-0.0007539219222962856,-0.0020513194613158703
1761508311689375000,2.672375,-0.0030196025036275387,-0.0009541662875562906,-0.0009180271299555898
1761508311699347000,2.682346923828125,-0.0011529927141964436,-0.0014708193484693766,-0.001103649497963488
1761508311709318000,2.69231787109375,-0.0013085012324154377,-0.001632623840123415,0.0014027671422809362
1761508311719290000,2.7022900390625,0.0005264170467853546,0.0006395851960405707,0.0010003633797168732
1761508311729260800,2.7122607421875,0.0024005421437323093,-0.0004392113769426942,0.004190684761852026
1761508311739232000,2.72223193359375,0.0003049005754292011,-0.0008890192257240415,0.000031625968404114246
1761508311749204000,2.732203857421875,0.0018845046870410442,-0.00026535207871347666,0.0002094954252243042
1761508311759175200,2.742175048828125,-0.0033826949074864388,0.002202599309384823,0.0001282690791413188
1761508311769147000,2.75214697265625,0.002619583625346422,-0.0002546074101701379,-0.0009493473917245865
1761508311779118000,2.7621181640625,0.0036622113548219204,-0.0022772783413529396,0.0020970425102859735
1761508311789089000,2.772089111328125,0.00013722898438572884,-0.0005694018909707665,0.001073746825568378
1761508311799061000,2.78206103515625,-0.0008923490531742573,0.0006271563470363617,0.0001557550858706236
1761508311809032000,2.792031982421875,-0.0009455094113945961,0.0005260455654934049,-0.0022619685623794794
1761508311819004200,2.802004150390625,0.0013195094652473927,0.00035160849802196026,0.001190287061035633
1761508311828974800,2.811974853515625,0.0013650334440171719,0.0007935823523439467,-0.00134326855186373
1761508311838946000,2.821946044921875,0.002430830616503954,-0.0015199057525023818,-0.0014969329349696636
1761508311848918000,2.83191796875,0.000507099088281393,-0.000651446869596839,0.0014734187861904502
1761508311858889200,2.84188916015625,-0.0014788205735385418,0.00018798152450472116,-0.000698655319865793
1761508311868860000,2.85185986328125,0.0015874984674155712,0.0006247750716283917,0.00005176384001970291
1761508311878832000,2.86183203125,0.0009043975733220577,-0.000700680073350668,0.000001962762326002121
1761508311888803000,2.871802978515625,0.0028179194778203964,0.001483566826209426,-0.0011126138269901276
1761508311898775000,2.881775146484375,0.0018506594933569431,-0.00021766044665127993,-0.0003938266891054809
1761508311908746000,2.89174609375,-0.0006529642269015312,0.0036074321251362562,0.0005335852038115263
1761508311918717000,2.901717041015625,-0.0014234166592359543,0.0007762254681438208,0.0025123138912022114
1761508311928689000,2.91168896484375,0.000966961495578289,-0.0009190159616991878,0.0024776416830718517
1761508311938659800,2.921659912109375,-0.0012328093871474266,0.001067435834556818,0.00007626914884895086
1761508311948632000,2.931632080078125,0.00036568520590662956,-0.000379364937543869,-0.0002760054776445031
1761508311958603000,2.94160302734375,0.0004192148335278034,0.00014181563165038824,0.000688058789819479
1761508311968574000,2.951573974609375,-0.0001542973332107067,-0.0003869103966280818,-0.0010887901298701763
1761508311978546000,2.9615458984375,0.0006699510850012302,-0.00030168925877660513,-0.0004110156442038715
1761508311988517000,2.97151708984375,0.0014300504699349403,-0.0009846228640526533,-0.0005491951014846563
1761508311998488800,2.98148876953125,0.0009320392273366451,-0.00024266610853374004,-0.0024634753353893757
1761508312008460000,2.9914599609375,0.0026832339353859425,0.0003346996381878853,-0.002057083649560809
1761508312018431000,3.001430908203125,0.0006666881963610649,-0.0003252315800637007,0.0025384670589119196
1761508312028403000,3.01140283203125,-0.0015577953308820724,0.0028059398755431175,-0.001040299073792994
1761508312038374000,3.021373779296875,0.001968762371689081,-0.001189334550872445,-0.0002863581757992506
1761508312048346000,3.03134619140625,-0.0010492694564163685,-0.0007218773243948817,0.001554786809720099
1761508312058317000,3.041317138671875,-0.00041277380660176277,0.0015575222205370665,-0.0011746869422495365
1761508312068288000,3.0512880859375,-0.00003721192479133606,-0.0004351179813966155,0.000006579444743692875
1761508312078260000,3.061260009765625,-0.0006177816540002823,0.0016594581538811326,0.00013707426842302084
1761508312088231200,3.071231201171875,-0.0005122972652316093,0.001483810949139297,-0.0014351397985592484
1761508312098203000,3.081202880859375,0.0005268682725727558,0.0012334738858044147,0.00011135789100080729
1761508312108174000,3.091174072265625,0.001156094018369913,0.0008637904538773,0.001987187657505274
1761508312118145000,3.10114501953125,-0.001160056795924902,0.0014997533289715648,-0.002487722085788846
1761508312128117000,3.111116943359375,0.00003603333607316017,0.002651698887348175,0.0011116389650851488
1761508312138088000,3.121087890625,0.00014389166608452797,0.0006894816760905087,0.0000058944569900631905
1761508312148060200,3.13106005859375,-0.00022201519459486008,-0.0011006533168256283,0.00416831998154521
1761508312158030600,3.141030517578125,0.0014595044776797295,0.00015209766570478678,-0.0014315088046714664
1761508312168001500,3.15100146484375,-0.00007841596379876137,0.002287158276885748,-0.0012495690025389194
1761508312177973500,3.160973388671875,-0.0002456624060869217,0.0010131018934771419,0.00033447914756834507
1761508312187944400,3.1709443359375,-0.001520656980574131,-0.001348258345387876,0.0016249720938503742
1761508312197915600,3.18091552734375,-0.0005150474607944489,-0.002696617040783167,0.0005703602219000459
1761508312207887400,3.190887451171875,0.0011354219168424606,0.001111546065658331,0.00007754121907055378
1761508312217858600,3.200858642578125,-0.001399375032633543,0.0012702704407274723,0.001396072213537991
1761508312227830500,3.21083056640625,0.001052608247846365,0.0018228217959403992,0.0005503852153196931
1761508312237801500,3.220801513671875,-0.0011759246699512005,-0.00024698697961866856,-0.0013077022740617394
1761508312247772400,3.2307724609375,0.0013876031152904034,0.0013920007040724158,0.0006223875097930431
1761508312257744600,3.24074462890625,0.0004062280058860779,0.00020529620815068483,-0.0004079894279129803
1761508312267715300,3.25071533203125,0.0004239864647388458,-0.00006561365444213152,-0.0006449686479754746
1761508312277687600,3.2606875,-0.0014133285731077194,0.00022040982730686665,-0.0006870465585961938
1761508312287658500,3.270658447265625,0.0004916498437523842,0.0008536123787052929,0.0005571236833930016
1761508312297629700,3.280629638671875,-0.0008812090381979942,-0.00044467870611697435,-0.0020351973362267017
1761508312307601400,3.290601318359375,-0.0006392225623130798,-0.00034447095822542906,-0.0005418389337137341
1761508312317572600,3.300572509765625,0.0009727892465889454,-0.0008472757181152701,-0.000187372206710279
1761508312327544600,3.310544677734375,-0.0009233769960701466,0.00003940332680940628,0.00017828133422881365
1761508312337515500,3.320515625,0.001455890480428934,0.0026514315977692604,-0.0003008213243447244
1761508312347486500,3.330486572265625,0.0005054092034697533,-0.002592692617326975,0.0024773147888481617
1761508312357458700,3.340458740234375,0.00005959579721093178,-0.0006677600322291255,-0.0006377847748808563
1761508312367429400,3.350429443359375,0.002164890058338642,0.0005357905756682158,-0.0022121076472103596
1761508312377401600,3.360401611328125,-0.0014056097716093063,0.00023804919328540564,0.0011301595950499177
1761508312387372500,3.37037255859375,0.0004719644784927368,-0.0014794274466112256,-0.0008247854420915246
1761508312397343700,3.38034375,-0.0012761340476572514,0.0018929335055872798,-0.0010692635551095009
1761508312407315500,3.3903154296875,0.00019434373825788498,0.0011253178818151355,-0.0010343448957428336
1761508312417286700,3.40028662109375,-0.0028094355948269367,0.00029334635473787785,0.0009390574414283037
1761508312427257600,3.410257568359375,0.0009580440819263458,0.0014815340982750058,-0.0003201415529474616
1761508312437229600,3.4202294921875,-0.0001399773173034191,-0.0007414063438773155,0.0006066384958103299
1761508312447200500,3.430200439453125,0.0003590811975300312,0.0022180175874382257,-0.0014453093754127622
1761508312457172700,3.4401728515625,0.0013582995161414146,-0.001827057683840394,-0.0021624986547976732
1761508312467143400,3.450143310546875,-0.00017244694754481316,0.0018632715800777078,0.0012475833063945174
1761508312477114400,3.4601142578125,0.003661173628643155,0.0011151896324008703,0.0012270767474547029
1761508312487086600,3.470086669921875,-0.00247882679104805,0.0006187791586853564,-0.0004741000011563301
1761508312497057500,3.4800576171875,-0.0004937062039971352,0.0007514046155847609,0.0006513518746942282
1761508312507029500,3.490029541015625,0.0005575031973421574,0.0008262864430435002,-0.0018272210145369172
1761508312517000400,3.50000048828125,-0.000428665429353714,-0.001019017887301743,-0.0029342970810830593
1761508312526971600,3.5099716796875,-0.0015577683225274086,0.0002288429532200098,0.0024466419126838446
1761508312536943400,3.519943359375,0.002558946143835783,0.0013393810950219631,0.0011036098003387451
1761508312546914600,3.52991455078125,-0.0001155841164290905,0.0005763783119618893,0.00046805606689304113
1761508312556886500,3.539886474609375,-0.0003856285475194454,0.0008789134444668889,0.00093517464119941
1761508312566857500,3.549857421875,0.0008101724088191986,0.00013545120600610971,-0.0015412326902151108
1761508312576828400,3.559828369140625,-0.000936062540858984,0.001076612388715148,-0.0008892909390851855
1761508312586800600,3.569800537109375,0.0014929561875760555,-0.001634383574128151,0.002406147075816989
1761508312596771600,3.579771484375,-0.0020969845354557037,0.0005363590316846967,-0.0009728716686367989
1761508312606743600,3.58974365234375,0.001474848948419094,-0.000867413473315537,0.0007404690841212869
1761508312616714500,3.599714599609375,0.00247380044311285,0.0008492602501064539,-0.001686735893599689
1761508312626685700,3.609685791015625,0.0008816961199045181,-0.0009002574952319264,0.0009725196287035942
1761508312636657400,3.619657470703125,-0.0005319095216691494,0.0013186882715672255,-0.0004477442125789821
1761508312646628600,3.629628662109375,-0.0009156567975878716,0.002293114084750414,0.0032539917156100273
1761508312656600600,3.6396005859375,0.002484401222318411,0.001190032809972763,0.0024878005497157574
1761508312666571500,3.649571533203125,-0.0010210676118731499,-0.0007735943654552102,0.0018424183363094926
1761508312676542500,3.65954248046875,0.002284448128193617,-0.0007163364207372069,-0.0002809200086630881
1761508312686514700,3.6695146484375,0.00021746568381786346,-0.001392385340295732,0.00036569777876138687
1761508312696485600,3.679485595703125,0.0010086908005177975,0.0017312363488599658,-0.00018531025853008032
1761508312706456300,3.689456298828125,0.0020901989191770554,-0.000612835749052465,-0.00005659309681504965
1761508312716428500,3.699428466796875,0.0013602268882095814,0.0016993207391351461,-0.0007791086100041866
1761508312726399500,3.7093994140625,0.00005097175016999245,-0.00012172630522400141,-0.0013065255479887128
1761508312736371500,3.719371337890625,-0.001682213507592678,0.0006814831285737455,0.001305502955801785
1761508312746342400,3.72934228515625,-0.000266349408775568,0.0008563402225263417,-0.0014122198335826397
1761508312756313600,3.739313720703125,-0.0011878032237291336,-0.00042410765308886766,-0.0018287382554262877
1761508312766285300,3.749285400390625,-0.0001166248694062233,-0.0019798148423433304,0.0016732955118641257
1761508312776256500,3.759256591796875,0.0001888396218419075,0.0006418009288609028,-0.0006263440591283143
1761508312786228500,3.769228515625,0.0015277974307537079,0.0012677880004048347,-0.00013392523396760225
1761508312796199700,3.77919970703125,-0.0010991445742547512,-0.00058497313875705,-0.004521216731518507
1761508312806170400,3.78917041015625,-0.0016144411638379097,-0.0006848393240943551,-0.0006787925376556814
1761508312816142600,3.799142578125,-0.0015585143119096756,-0.0009335785871371627,0.0013404162600636482
1761508312826113500,3.809113525390625,0.0010469825938344002,-0.003208229783922434,0.0011211828095838428
1761508312836085500,3.81908544921875,0.001130872406065464,0.0027977307327091694,-0.0012117462465539575
1761508312846056400,3.829056396484375,-0.0026574558578431606,0.0015685163671150804,0.0006434383103623986
1761508312856027600,3.839027587890625,0.001240879762917757,-0.0004560187226161361,0.0018322734395042062
1761508312865999400,3.848999267578125,-0.001417770516127348,0.0024873651564121246,0.0001598529051989317
1761508312875970600,3.858970458984375,-0.0014135097153484821,0.0008015841012820601,-0.0004319014842621982
1761508312885941500,3.86894140625,-0.001796999480575323,0.002127705840393901,0.00099885871168226
1761508312895913700,3.878913818359375,-0.0004888544790446758,-0.001507509034126997,0.0012689033756032586
1761508312905884400,3.888884521484375,-0.0001991880126297474,-0.0007921714568510652,-0.002951154951006174
1761508312915856600,3.898856689453125,-0.0011840248480439186,-0.001395377446897328,0.0021874145604670048
1761508312925827600,3.90882763671875,-0.0016370192170143127,-0.0011018505319952965,-0.00038013432640582323
1761508312935798500,3.918798583984375,-0.0011315513402223587,-0.002075502183288336,-0.0011548479087650776
1761508312945770500,3.9287705078125,0.00029232678934931755,-0.0005767288384959102,0.00020007090643048286
1761508312955741400,3.938741455078125,-0.002310913521796465,-0.001040385221131146,0.00031032576225697994
1761508312965713400,3.94871337890625,-0.002881818450987339,-0.000049541937187314034,-0.000968430656939745
1761508312975684400,3.958684326171875,0.001153403427451849,-0.0002735137240961194,-0.002523982897400856
1761508312985655600,3.968655517578125,-0.0020379237830638885,0.0015194558072835207,-0.0012272408930584788
1761508312995627500,3.97862744140625,0.001551218330860138,0.000773770734667778,0.0015384518774226308
1761508313005598500,3.988598388671875,0.000890201423317194,-0.0001831231638789177,-0.0012110364623367786
1761508313015570400,3.9985703125,0.0014457367360591888,0.0014331493293866515,-0.0009228824055753648
1761508313025541600,4.008541748046875,0.0012080813758075237,0.00009900261647999287,0.0010545741533860564
1761508313035512300,4.01851220703125,-0.001276115421205759,0.00008302356582134962,-0.000910838833078742
1761508313045483500,4.0284833984375,-0.0007924619130790234,0.0006307282019406557,-0.0011075861984863877
1761508313055455500,4.03845556640625,0.00032260362058877945,-0.0024361680261790752,-0.0008694995194673538
1761508313065426700,4.0484267578125,0.000050059519708156586,-0.0022190960589796305,0.00032108137384057045
1761508313075397400,4.0583974609375,-0.00370419817045331,-0.0016403913032263517,0.0028343063313513994
1761508313085369600,4.06836962890625,-0.00023197056725621223,0.0025226599536836147,0.0034330827184021473
1761508313095340500,4.078340576171875,0.0003232983872294426,-0.00020015612244606018,-0.00016431522089987993
1761508313105312500,4.0883125,-0.001436813734471798,0.0009066323400475085,-0.00017348723486065865
1761508313115283500,4.098283447265625,0.0003565591759979725,0.00009277032222598791,0.0023144378792494535
1761508313125254700,4.108254638671875,-0.001501158345490694,0.000368639943189919,-0.0006165036465972662
1761508313135226400,4.118226318359375,0.00018728571012616158,-0.0013648116728290915,-0.0007994627812877297
1761508313145197600,4.128197509765625,-0.0013127485290169716,0.001520685269497335,0.0029563442803919315
1761508313155169500,4.13816943359375,0.00036451080814003944,0.0008687434601597488,-0.0039673419669270515
1761508313165141000,4.14814111328125,-0.0016143838874995708,-0.0006126946536824107,-0.001741761458106339
1761508313175112000,4.15811181640625,0.001886341255158186,-0.0006744799902662635,0.0012276631314307451
1761508313185084000,4.168083984375,0.00016656192019581795,0.0018488398054614663,-0.000333872449118644
1761508313195055000,4.17805517578125,0.00009652087464928627,-0.00027103640604764223,0.00028797565028071404
1761508313205026800,4.18802685546875,0.0018978365696966648,0.0016350282821804285,-0.0014035087078809738
1761508313214998000,4.197998046875,-0.0005426839925348759,0.0006741598481312394,-0.00009403238072991371
1761508313224969000,4.207968994140625,0.0024213348515331745,-0.001817343640141189,0.0014345231465995312
1761508313234941000,4.21794091796875,-0.00009055854752659798,-0.0004178524250164628,-0.002204420045018196
1761508313244911900,4.227911865234375,0.0004790201783180237,-0.002343201544135809,-0.0007989313453435898
1761508313254884000,4.237884033203125,0.0005133748054504395,-0.00047605938743799925,-0.0003448624047450721
1761508313264854800,4.247854736328125,-0.00018100952729582787,-0.00200467137619853,-0.0018620721530169249
1761508313274826000,4.257825927734375,-0.0011815591715276241,-0.00006535765714943409,-0.0014570053899660707
1761508313284798000,4.2677978515625,0.0004180897958576679,-0.00006951333489269018,0.0003129431279376149
1761508313294769200,4.27776904296875,-0.00041760969907045364,-0.0029396023601293564,-0.0001666922471486032
1761508313304740900,4.287740966796875,-0.0013797762803733349,-0.0010211013723164797,0.0015616349410265684
1761508313314712000,4.297712158203125,0.0014136130921542645,0.00006173981819301844,-0.0007345425547100604
1761508313324683000,4.30768310546875,0.00102655915543437,0.00006497267168015242,-0.0004996697534807026
1761508313334655000,4.317655029296875,0.0023019472137093544,0.00018694554455578327,-0.000025627086870372295
1761508313344626000,4.3276259765625,-0.0005500041879713535,0.0048431758768856525,-0.0013988679274916649
1761508313354596900,4.337596923828125,0.0021629580296576023,-0.0008482657140120864,0.001233400427736342
1761508313364568800,4.34756884765625,-0.00023785699158906937,-0.0003544975770637393,-0.001431734417565167
1761508313374539800,4.357539794921875,0.0018820194527506828,0.00032380956690758467,-0.0011867235880345106
1761508313384512000,4.367511962890625,-0.0014794492162764072,-0.0008072649361565709,-0.00016037706518545747
1761508313394484000,4.37748388671875,-0.0009324359707534313,-0.0030099651776254177,0.0003064750926569104
1761508313404456000,4.3874560546875,0.002180296927690506,0.002579156309366226,-0.0026303743943572044
1761508313414427100,4.39742724609375,0.0023992089554667473,0.00005767541006207466,0.0005076281959190965
1761508313424397800,4.407397705078125,0.0008766450919210911,0.0007978876237757504,0.0032234247773885727
1761508313434370000,4.4173701171875,-0.0004285704344511032,-0.0007254405645653605,0.00020126951858401299
1761508313444341000,4.427341064453125,-0.0020996234379708767,0.0005345208337530494,0.003759923158213496
1761508313454313000,4.43731298828125,0.0009595495648682117,0.0014937914675101638,0.00236123101785779
1761508313464284000,4.447283935546875,0.0014441930688917637,0.0009901474695652723,0.0006579190958291292
1761508313474254800,4.4572548828125,0.0007453798316419125,-0.0021310774609446526,0.00023740599863231182
1761508313484226800,4.467226806640625,-0.00012019835412502289,-0.000755240791477263,0.0003496987046673894
1761508313494197800,4.47719775390625,0.001214045099914074,0.00009164446964859962,-0.0005685592768713832
1761508313504170000,4.487169921875,0.00018994417041540146,-0.0015336296055465937,0.00022629322484135628
1761508313514141000,4.497140869140625,0.000005919951945543289,-0.000057173194363713264,-0.001228857901878655
1761508313524112000,4.50711181640625,-0.00258617103099823,0.00023517198860645294,0.000767403282225132
1761508313534083800,4.517083740234375,-0.00045564211905002594,0.0012602227507159114,0.002680351957678795
1761508313544055000,4.527054931640625,0.0012158188037574291,-0.0009216467151418328,0.0021820031106472015
1761508313554026800,4.53702685546875,-0.001414851751178503,-0.0005077916430309415,0.0010922376532107592
1761508313563998000,4.546998046875,0.0008248360827565193,0.0009016496478579938,-0.000041218940168619156
1761508313573969000,4.556968994140625,-0.002497989684343338,-0.0024992069229483604,0.0007508052513003349
1761508313583940900,4.56694091796875,-0.0008950033225119114,-0.00063437654171139,-0.0015156271401792765
1761508313593911800,4.576911865234375,0.001102101057767868,-0.00012784323189407587,-0.00019896036246791482
1761508313603884000,4.586884033203125,0.0006294706836342812,0.0008559075649827719,0.0022697439417243004
1761508313613855000,4.59685498046875,0.0005237427540123463,0.0020857553463429213,-0.0010197923984378576
1761508313623826000,4.606825927734375,-0.0005162553861737251,-0.0013737459667026997,0.001291114604100585
1761508313633798000,4.6167978515625,0.002069673966616392,0.0006409354391507804,0.0007928372360765934
1761508313643769000,4.62676904296875,-0.0019050734117627144,0.001970347249880433,-0.0006595576414838433
1761508313653740000,4.636739990234375,0.0004145395942032337,0.00021692202426493168,-0.0008054989157244563
1761508313663712000,4.6467119140625,0.00014601368457078934,-0.0010870253900066018,0.0008867154829204082
1761508313673683000,4.656682861328125,0.0016525639221072197,-0.0006822248687967658,-0.00026377016911283135
1761508313683655000,4.666655029296875,0.001451384276151657,-0.00019774585962295532,0.0015916316770017147
1761508313693625900,4.6766259765625,-0.0013728979974985123,0.0015335751231759787,-0.00016765249893069267
1761508313703596800,4.6865966796875,0.0007056575268507004,-0.00037926819641143084,-0.0012845266610383987
1761508313713569000,4.696569091796875,0.00041510676965117455,-0.0009704899275675416,0.00031709845643490553
1761508313723539700,4.706539794921875,0.00029710540547966957,0.00037814537063241005,0.0020911518950015306
1761508313733512000,4.716511962890625,0.0009101652540266514,0.000015955418348312378,-0.0013094384921714664
1761508313743483000,4.72648291015625,0.0023965593427419662,0.0016586214769631624,-0.0010327190393581986
1761508313753454000,4.7364541015625,-0.0006740652024745941,-0.0011022776598110795,-0.00046626460971310735
1761508313763425800,4.74642578125,0.0012648417614400387,0.001679911743849516,0.0009322026744484901
1761508313773397000,4.75639697265625,-0.0017053820192813873,0.0000977277522906661,-0.002593556186184287
1761508313783368700,4.76636865234375,-0.0020366008393466473,-0.00036049378104507923,0.0008531049825251102
1761508313793340000,4.77633984375,-0.002063232008367777,-0.0012153685092926025,0.0020965347066521645
1761508313803310800,4.786310791015625,-0.0006387527100741863,-0.0004915801109746099,-0.0026640307623893023
1761508313813283000,4.796282958984375,0.0009546168148517609,-0.0008926523150876164,0.0022297941613942385
1761508313823253800,4.806253662109375,-0.0026273736730217934,-0.0012716820929199457,-0.0004405694780871272
1761508313833226000,4.81622607421875,0.00038572680205106735,-0.0005765971727669239,-0.0024754907935857773
1761508313843197000,4.826197021484375,0.0010558976791799068,-0.000744948978535831,-0.0013822977198287845
1761508313853168000,4.836168212890625,-0.0007081795483827591,0.0015030251815915108,-0.0019061414059251547
1761508313863139800,4.846139892578125,0.001512322574853897,-0.00100762490183115,0.0011772358557209373
1761508313873111000,4.856111083984375,-0.0008946424350142479,-0.0002571461955085397,-0.00025820796145126224
1761508313883082800,4.866082763671875,-0.00026993826031684875,0.00009640958160161972,-0.00038371910341084003
1761508313893054000,4.876053955078125,0.00009065354242920876,-0.0005549995694309473,0.0025825095362961292
1761508313903025000,4.88602490234375,0.000276362057775259,0.0002543714363127947,-0.0012819099938496947
1761508313912997000,4.8959970703125,0.0003807581961154938,-0.0002657439326867461,-0.0017450337763875723
1761508313922967800,4.9059677734375,0.0008252696134150028,0.0015674062306061387,-0.0012005951721221209
1761508313932940000,4.91593994140625,-0.0013942085206508636,-0.00008881359826773405,0.0017046473221853375
1761508313942911000,4.925910888671875,-0.0021353159099817276,0.0006642265943810344,0.0008461438119411469
1761508313952882200,4.935882080078125,0.00009561469778418541,0.0018357511144131422,0.0005212381947785616
1761508313962854000,4.94585400390625,-0.0014302302151918411,0.0006058302242308855,-0.00044758914737030864
1761508313972825000,4.9558251953125,0.002476093824952841,-0.0008402661187574267,0.0005122141446918249
1761508313982796000,4.965796142578125,-0.0015717311762273312,0.00007644179277122021,0.003662089817225933
1761508313992768000,4.97576806640625,-0.0008787759579718113,-0.00003114994615316391,-0.0002892418997362256
1761508314002739000,4.985739013671875,0.0007525882683694363,0.0021150268148630857,-0.0014206788036972284
1761508314012711200,4.995711181640625,0.000527817290276289,-0.00025625177659094334,0.0021229232661426067
1761508314022681900,5.005681884765625,0.00017814897000789642,-0.001965134870260954,0.0020702816545963287
1761508314032652800,5.01565283203125,-0.00040215346962213516,-0.0020871073938906193,-0.0014285793295130134
1761508314042625000,5.025625,-0.00099276565015316,-0.000697424984537065,0.000504831550642848
1761508314052596000,5.035595947265625,-0.0014239316806197166,0.0020256571006029844,-0.00002700171899050474
1761508314062568000,5.04556787109375,0.0023758970201015472,-0.000921709812246263,0.0008292233105748892
1761508314072539000,5.055538818359375,-0.00154933612793684,0.0012069548247382045,-0.0013886571396142244
1761508314082510000,5.065510009765625,-0.0003378880210220814,0.000762098643463105,-0.0007274074014276266
1761508314092481800,5.075481689453125,-0.0026713493280112743,-0.001329015358351171,-0.00003338768146932125
1761508314102453000,5.085452880859375,-0.00001598801463842392,0.00016650313045829535,-0.002490108832716942
1761508314112425000,5.095425048828125,-0.0013638138771057129,-0.002255908213555813,0.0013613548362627625
1761508314122396000,5.10539599609375,-0.0016148644499480724,0.002767970785498619,-0.0013883467763662338
1761508314132366800,5.115366943359375,0.00043443823233246803,-0.0005117119289934635,0.002914788667112589
1761508314142339000,5.125339111328125,-0.0012346464209258556,0.000867023947648704,0.002349765971302986
1761508314152310000,5.13531005859375,0.0006876233965158463,0.0005823320243507624,0.0009145884541794658
1761508314162281500,5.145281494140625,-0.0013621849939227104,-0.0008707080269232392,0.0012550067622214556
1761508314172252700,5.155252685546875,0.0012663551606237888,-0.002039036713540554,-0.0022023089695721865
1761508314182223600,5.1652236328125,-0.0008733798749744892,0.0007420237525366247,-0.0019110660068690777
1761508314192195600,5.175195556640625,0.0003218469209969044,0.00003229128196835518,0.002383813727647066
1761508314202166500,5.18516650390625,0.0010667177848517895,0.0015430450439453125,0.000898582860827446
1761508314212138800,5.195138671875,-0.000620394479483366,-0.0006820259150117636,0.001167295966297388
1761508314222109400,5.205109375,-0.00028735026717185974,0.0023161261342465878,-0.00020699191372841597
1761508314232080400,5.215080322265625,-0.0003488692454993725,0.0002937217941507697,0.0012521541211754084
1761508314242052600,5.225052490234375,0.00011988170444965363,0.0010563009418547153,0.00042077817488461733
1761508314252023600,5.2350234375,-0.0004202076233923435,0.001638468005694449,0.005348424892872572
1761508314261994500,5.244994384765625,-0.0002564522437751293,0.0020381419453769922,-0.00240115774795413
1761508314271966500,5.254966552734375,-0.0000628405250608921,-0.0010013236897066236,0.00023856759071350098
1761508314281937700,5.264937744140625,-0.0013189101591706276,-0.00017785432282835245,0.0006423320155590773
1761508314291909400,5.274909423828125,-0.00175380427390337,-0.0011120912386104465,-0.0018344077980145812
1761508314301880600,5.284880615234375,-0.0007522082887589931,0.000990435597486794,-0.0015151198022067547
1761508314311851500,5.2948515625,0.0008456879295408726,-0.00023621635045856237,0.0016926575917750597
1761508314321823500,5.304823486328125,-0.0011975746601819992,-0.0009630327112972736,-0.0025898378808051348
1761508314331794400,5.31479443359375,-0.0015648240223526955,0.001279615331441164,-0.00197464763186872
1761508314341766700,5.3247666015625,0.002542723435908556,0.0007361924508586526,-0.00042850396130234003
1761508314351737600,5.334737548828125,-0.0011968878097832203,0.0007540356018580496,0.0006993446731939912
1761508314361708500,5.34470849609375,-0.0002737189643085003,-0.00007254572119563818,0.001087210257537663
1761508314371680500,5.354680419921875,0.000050121452659368515,-0.0002674891147762537,0.00003153318539261818
1761508314381651700,5.364651611328125,-0.0002605132758617401,-0.0022528632543981075,0.002364581450819969
1761508314391623400,5.37462353515625,-0.002725269179791212,-0.0005622885655611753,-0.0005318727344274521
1761508314401594600,5.3845947265625,0.00009380979463458061,0.0023991218768060207,0.0008072806522250175
1761508314411565600,5.394565673828125,0.0015652063302695751,0.0015514376573264599,-0.0005919441464357078
1761508314421537500,5.40453759765625,0.0007665962912142277,-0.0002514523221179843,-0.00252897129394114
1761508314431508500,5.414508544921875,-0.001081104390323162,0.0006178034236654639,-0.0010847391095012426
1761508314441480700,5.424480712890625,-0.0004081409424543381,0.0021082533057779074,0.0011927790474146605
1761508314451451600,5.43445166015625,-0.0009458335116505623,-0.001649733167141676,0.0002934295916929841
1761508314461422300,5.44442236328125,-0.0012099244631826878,-0.0006300534587353468,0.0022768229246139526
1761508314471394600,5.45439453125,0.00024336297065019608,0.0005260247271507978,0.00016653421334922314
1761508314481365800,5.46436572265625,0.0003317948430776596,0.0006931741954758763,0.00020608282648026943
1761508314491336700,5.474336669921875,0.0012561781331896782,-0.0003838080447167158,0.0022804189939051867
1761508314501308700,5.48430859375,-0.001028495840728283,0.0006059989100322127,-0.00007197295781224966
1761508314511279600,5.494279541015625,0.001123338472098112,-0.000797220622189343,-0.0004136565257795155
1761508314521251600,5.50425146484375,-0.0012442348524928093,0.0009790563490241766,-0.0009401742136105895
1761508314531222500,5.514222412109375,-0.0006210552528500557,0.0008493603672832251,-0.0013385830679908395
1761508314541193500,5.524193359375,-0.00024431198835372925,-0.0006809900514781475,-0.0021003657020628452
1761508314551165700,5.534165771484375,-0.0022009359672665596,-0.0008461060933768749,-0.000912595889531076
1761508314561136400,5.544136474609375,0.0016036774031817913,-0.0020915381610393524,0.00031245220452547073
1761508314571108600,5.554108642578125,-0.0021295417100191116,0.0001841328339651227,0.0004695786628872156
1761508314581079600,5.56407958984375,0.0009964988566935062,-0.0004749954678118229,-0.0010268047917634249
1761508314591050800,5.57405078125,-0.0006296271458268166,0.00016283150762319565,0.0030196020379662514
1761508314601022500,5.5840224609375,0.0008817939087748528,-0.0017542819259688258,0.0008400834631174803
1761508314610993700,5.59399365234375,0.0025201705284416676,-0.0012711844174191356,0.0010952143929898739
1761508314620965400,5.60396533203125,-0.0005809497088193893,0.0029163737781345844,0.0018646478420123458
1761508314630936600,5.6139365234375,-0.00020517734810709953,0.00198746332898736,-0.0025990763679146767
1761508314640907500,5.623907470703125,-0.0010448587127029896,0.0011011247988790274,-0.001933606225065887
1761508314650879700,5.633879638671875,0.0012318775989115238,0.00017487735021859407,-0.00003344076685607433
1761508314660850400,5.643850341796875,-0.0013699885457754135,-0.0005445274291560054,-0.0017071384936571121
1761508314670822700,5.65382275390625,0.00004947604611515999,0.00019769545178860426,0.001999715343117714
1761508314680793600,5.663793701171875,0.0018847878091037273,0.00013256422244012356,0.001991495257243514
1761508314690764500,5.6737646484375,-0.0009349673055112362,0.0010604094713926315,-0.00005780719220638275
1761508314700736500,5.683736572265625,0.0011697676964104176,0.0019504857482388616,-0.0014133211225271225
1761508314710707700,5.693707763671875,-0.0009644892998039722,0.001342219766229391,0.000572598073631525
1761508314720678700,5.7036787109375,0.001558410469442606,-0.00048798066563904285,0.0028590993024408817
1761508314730650600,5.713650634765625,0.0008950168266892433,-0.0017492538318037987,0.0011631982633844018
1761508314740621600,5.72362158203125,0.0015483549796044827,0.0006727718282490969,0.0015501022571697831
1761508314750593500,5.733593505859375,0.0008271709084510803,0.00019473431166261435,-0.000226492527872324
1761508314760564500,5.743564453125,-0.0009390856139361858,-0.0007542802486568689,0.0015880648279562593
1761508314770535400,5.753535400390625,-0.0015071374364197254,0.000037477584555745125,-0.0037164194509387016
1761508314780507600,5.763507568359375,-0.0016500214114785194,-0.000027136527933180332,0.0031771049834787846
1761508314790478600,5.773478515625,0.0003777090460062027,-0.002034893725067377,-0.0021444237791001797
1761508314800450600,5.783450439453125,0.0002592368982732296,-0.0017022127285599709,0.00043231609743088484
1761508314810421500,5.79342138671875,0.0015852251090109348,0.0018866632599383593,0.00024296529591083527
1761508314820392700,5.803392822265625,-0.00092267245054245,0.0006000854773446918,-0.0007259370759129524
1761508314830364400,5.813364501953125,0.00006988784298300743,0.0005438928492367268,-0.0005158137064427137
1761508314840335600,5.823335693359375,-0.0009132949635386467,0.0006485100602731109,-0.000016513396985828876
1761508314850307600,5.8333076171875,-0.0017705662176012993,-0.00300854304805398,0.0007850981783121824
1761508314860278500,5.843278564453125,0.003194503951817751,0.002024831250309944,0.0003855627728626132
1761508314870249500,5.85324951171875,0.001558524090796709,0.00009084376506507397,-0.0002152464003302157
1761508314880221700,5.8632216796875,0.0005056397058069706,0.0016411603428423405,0.00016362546011805534
1761508314890192400,5.8731923828125,-0.00008744606748223305,0.0018763174302875996,-0.0014457227662205696
1761508314900163600,5.88316357421875,0.0012099742889404297,0.0006057090358808637,-0.001239151693880558
1761508314910135600,5.893135498046875,0.0009559085592627525,0.00007094629108905792,-0.000935284944716841
1761508314920106800,5.903106689453125,0.0015748105943202972,-0.0016686927992850542,0.00028770952485501766
1761508314930078500,5.913078369140625,0.0001936950720846653,0.0006687636487185955,0.0008166134357452393
1761508314940049700,5.923049560546875,0.00021574366837739944,-0.0007230393821373582,0.0009539275197312236
1761508314950020600,5.9330205078125,0.0008194823749363422,0.00019947951659560204,-0.0004058824270032346
1761508314959992600,5.94299267578125,0.0003069150261580944,0.0005527649773284793,0.00033338775392621756
1761508314969963500,5.952963623046875,0.0006089173257350922,-0.000570023781619966,0.00022579601500183344
1761508314979935700,5.962935791015625,0.00024635717272758484,-0.000032067764550447464,0.0002644973574206233
1761508314989906400,5.972906494140625,0.001048501580953598,-0.0002821385860443115,0.00048793654423207045
1761508314999877400,5.98287744140625,0.00025361357256770134,0.0015807858435437083,0.0002613032702356577
1761508315009849600,5.992849609375,-0.00015331711620092392,-0.001389437704347074,0.001532163703814149
1761508315019820500,6.002820556640625,-0.00028199469670653343,-0.0038870414718985558,-0.00015334913041442633
1761508315029792500,6.01279248046875,-0.0010567079298198223,-0.0010763410245999694,0.0010117838392034173
1761508315039763500,6.022763427734375,0.0030182753689587116,0.0010989564470946789,0.0003479167353361845
1761508315049734700,6.032734619140625,-0.00035195518285036087,-0.0007692511426284909,0.002453944645822048
1761508315059706400,6.042706298828125,0.00043449411168694496,0.0015776051441207528,-0.0006246991688385606
1761508315069677600,6.052677490234375,0.0003271684981882572,0.0006897072307765484,-0.0018255184404551983
1761508315079649500,6.0626494140625,0.0008435351774096489,0.0005226472858339548,-0.00235090684145689
1761508315089620500,6.072620361328125,0.0008310182020068169,0.0019373183604329824,0.0017239960143342614
1761508315099591400,6.08259130859375,-0.0022738766856491566,0.0004704645834863186,0.000979964854195714
1761508315109563600,6.092563720703125,-0.0002285693772137165,0.0004904383094981313,0.0014747802633792162
1761508315119534600,6.10253466796875,-0.0013202950358390808,-0.00037939194589853287,-0.0014549592742696404
1761508315129506600,6.112506591796875,0.000649911817163229,0.0003790764603763819,0.002095034345984459
1761508315139477500,6.1224775390625,-0.0004316377453505993,0.0002682757331058383,0.00046984117943793535
1761508315149448700,6.13244873046875,-0.0009514871053397655,-0.0006686242995783687,-0.000012190896086394787
1761508315159421200,6.142421142578125,0.00004931492730975151,0.0004008903633803129,-0.0004269838100299239
1761508315169392000,6.15239208984375,0.000978225376456976,-0.0012148494133725762,-0.0008072832133620977
1761508315179363300,6.16236328125,0.00027741724625229836,-0.0017586444737389684,0.001070318860001862
1761508315189335000,6.1723349609375,-0.0012754718773066998,0.0015143804484978318,0.00040399585850536823
1761508315199306200,6.18230615234375,-0.0005126972682774067,0.001155802165158093,-0.003255295567214489
1761508315209278200,6.1922783203125,0.00003431644290685654,0.0007930796127766371,0.00098445697221905
1761508315219249200,6.202249267578125,0.0023065530695021152,0.0007628282182849944,0.0008780817734077573
1761508315229220000,6.21222021484375,-0.0013630161993205547,-0.00014717387966811657,0.0011728935642167926
1761508315239192300,6.2221923828125,0.0008173300884664059,0.0005488335154950619,-0.001420051557943225
1761508315249163300,6.232163330078125,0.00006898166611790657,-0.0007904701633378863,-0.0015409591142088175
1761508315259135200,6.24213525390625,0.0009562349878251553,-0.00117686262819916,-0.000057621276937425137
1761508315269106200,6.252106201171875,-0.00007973471656441689,-0.0002644637133926153,-0.0011244835332036018
1761508315279077000,6.2620771484375,0.0014501945115625858,0.0006970144459046423,0.00021043606102466583
1761508315289049000,6.272049072265625,0.0026076044887304306,0.002713027410209179,-0.0014830681029707193
1761508315299020000,6.28202001953125,-0.0018726559355854988,-0.00041934684850275517,-0.002302961191162467
1761508315308992300,6.2919921875,-0.000154916662722826,-0.0019751654472202063,0.0010108101414516568
1761508315318963000,6.301962890625,-0.001456849742680788,-0.00014198862481862307,0.00010374363046139479
1761508315328934100,6.31193408203125,0.0016071172431111336,0.0009307325817644596,0.000024381442926824093
1761508315338906000,6.321906005859375,0.00032538222149014473,-0.0016034413129091263,-0.0017491348553448915
1761508315348877300,6.331877197265625,0.0007259217090904713,-0.0006692043971270323,0.003694899147376418
1761508315358849000,6.34184912109375,0.00014315731823444366,0.0005564222810789943,0.0010927498806267977
1761508315368820200,6.3518203125,0.0008598142303526402,0.0011851945891976357,-0.0014495037030428648
1761508315378791200,6.361791259765625,-0.000951515045017004,0.0014039142988622189,-0.0003984016948379576
1761508315388763100,6.37176318359375,0.0004162839613854885,0.0006174828158691525,0.001087642158381641
1761508315398734000,6.381734130859375,-0.0009508137591183186,-0.0007739616557955742,-0.0022982489317655563
1761508315408706300,6.391706298828125,-0.0008128616027534008,0.00012059416621923447,-0.0023946554865688086
1761508315418677000,6.401677001953125,0.0014194101095199585,0.0011198538122698665,0.000029939343221485615
1761508315428648200,6.411648193359375,-0.002530057914555073,-0.0019121549557894468,-0.00327104888856411
1761508315438620200,6.4216201171875,0.0000048084184527397156,-0.0009968458907678723,-0.0008014073828235269
1761508315448591400,6.43159130859375,0.001471677329391241,0.0003866662736982107,0.0013355130795389414
1761508315458562000,6.44156201171875,-0.001576160080730915,0.0006260941736400127,-0.0006495181587524712
1761508315468534300,6.4515341796875,0.0008811382576823235,0.00027881795540452003,0.0000010920921340584755
1761508315478505200,6.461505126953125,-0.0026491391472518444,-0.0030446513555943966,-0.0012931525707244873
1761508315488477200,6.471477294921875,0.0013472000136971474,-0.002054487820714712,0.002044853288680315
1761508315498448100,6.4814482421875,0.00033762259408831596,-0.0014411511365324259,-0.0011398006463423371
1761508315508419000,6.491419189453125,-0.0009002145379781723,-0.0009977349545806646,-0.0011909332824870944
1761508315518391000,6.50139111328125,-0.000026880763471126556,-0.00028212496545165777,0.0018387583550065756
1761508315528362000,6.511362060546875,0.0008719363249838352,-0.0007630917243659496,0.0007908045081421733
1761508315538334200,6.521334228515625,-0.00038854824379086494,0.0010001820046454668,-0.0026345066726207733
1761508315548305200,6.53130517578125,-0.0010412889532744884,0.0017693029949441552,-0.0005029123858548701
1761508315558276000,6.541276123046875,-0.0013689151965081692,0.0007487958064302802,-0.001102678943425417
1761508315568248000,6.551248046875,-0.0004088454879820347,-0.0011276673758402467,-0.0005300992634147406
1761508315578219300,6.56121923828125,0.00026377616450190544,-0.0005352483130991459,0.0008934014476835728
1761508315588191000,6.57119091796875,0.00034420331940054893,0.0011878168443217874,0.00024066062178462744
1761508315598162200,6.581162109375,-0.00040654605254530907,0.0019738622941076756,-0.001582369557581842
1761508315608133000,6.591133056640625,-0.0002755187451839447,-0.00032204901799559593,0.000836579711176455
1761508315618105000,6.60110498046875,-0.002196227665990591,0.0010521317599341273,-0.0005457469960674644
1761508315628076000,6.611075927734375,0.00001073349267244339,0.0010294949170202017,-0.001354282721877098
1761508315638048300,6.62104833984375,-0.000806679017841816,0.00007806834764778614,-0.0008667054353281856
1761508315648019200,6.631019287109375,0.0013414262793958187,0.0016288270708173513,0.0008419788209721446
1761508315657990100,6.640990234375,-0.00024792226031422615,-0.0009446542244404554,-0.0014892256585881114
1761508315667962000,6.650962158203125,0.0014778058975934982,0.00025909452233463526,-0.00014459562953561544
1761508315677933300,6.660933349609375,-0.003010062500834465,0.0011084484867751598,-0.0012090698583051562
1761508315687904000,6.670904052734375,-0.0004909783601760864,0.0009143039351329207,-0.0024229385890066624
1761508315697876200,6.680876220703125,-0.0009641214273869991,0.0012450043577700853,0.0036374072078615427
1761508315707847200,6.69084716796875,-0.0014690575189888477,0.00018586521036922932,-0.0013613459886983037
1761508315717819100,6.700819091796875,0.0005143941380083561,-0.0002966945758089423,0.00170533184427768
1761508315727790000,6.7107900390625,-0.0016118739731609821,0.002111069392412901,-0.000456888519693166
1761508315737761300,6.72076123046875,0.0008420241065323353,0.00042435654904693365,-0.00022822764003649354
1761508315747733000,6.73073291015625,-0.0008645299822092056,-0.00037432555109262466,-0.00010332535021007061
1761508315757704200,6.7407041015625,-0.0004983148537576199,-0.0017618285492062569,0.0009264122927561402
1761508315767676200,6.75067626953125,0.0022633830085396767,0.0006246301345527172,0.0008856659987941384
1761508315777647400,6.7606474609375,-0.0022565731778740883,-0.001994178630411625,0.00045506784226745367
1761508315787618000,6.7706181640625,0.001321116928011179,-0.0001704460009932518,-0.001346826902590692
1761508315797590300,6.78059033203125,-0.0007562367245554924,-0.00023352995049208403,-0.0002506207674741745
1761508315807561200,6.790561279296875,0.001063767820596695,0.0007294690585695207,0.0009123815689235926
1761508315817533200,6.800533203125,-0.0007798331789672375,0.0014488177839666605,-0.0016501083737239242
1761508315827504000,6.810504150390625,0.0012984978966414928,-0.00027877476532012224,0.0006074532866477966
1761508315837475000,6.82047509765625,0.00028426386415958405,-0.0003592164721339941,-0.0008858826477080584
1761508315847447000,6.830447021484375,-0.0011586365289986134,-0.0019720266573131084,-0.0010193069465458393
1761508315857418000,6.84041796875,0.002289273776113987,0.0013470896519720554,0.0018183374777436256
1761508315867389200,6.85038916015625,0.0011446471326053143,0.000007253256626427174,-0.0025138265918940306
1761508315877361200,6.860361083984375,-0.0018825330771505833,-0.0020387745462358,-0.000034635886549949646
1761508315887332000,6.87033203125,-0.0015357895754277706,-0.001260332646779716,0.0010311610531061888
1761508315897304000,6.880303955078125,-0.0013265484012663364,0.0012546569341793656,-0.0027063502930104733
1761508315907275300,6.890275146484375,-0.0030112643726170063,0.002047480084002018,-0.0004128357977606356
1761508315917246200,6.90024609375,-0.0010808510705828667,-0.0005202592583373189,0.0009808533359318972
1761508315927218200,6.91021826171875,0.00117031903937459,-0.0013823244953528047,-0.003488463582471013
1761508315937189000,6.920189208984375,-0.0006452081725001335,-0.0027761233504861593,-0.001427298178896308
1761508315947161000,6.9301611328125,0.002413698472082615,0.0007128841243684292,-0.0016070615965873003
1761508315957132000,6.940132080078125,-0.000996213871985674,0.0040795630775392056,0.00315334415063262
1761508315967103200,6.950103271484375,0.0022400589659810066,-0.0005303685320541263,0.00035622622817754745
1761508315977075200,6.9600751953125,-0.0009539583697915077,-0.001985287293791771,0.0014486184809356928
1761508315987046100,6.970046142578125,0.0007059900090098381,-0.000908304937183857,-0.0008867074502632022
1761508315997018000,6.98001806640625,-0.0005144928582012653,0.0019838628359138966,0.00037894200067967176
1761508316006989300,6.9899892578125,-0.0004673548974096775,-0.0000819511478766799,0.0008700288599357009
1761508316016960300,6.999960205078125,-0.0011925464496016502,-0.0005740259075537324,0.00023352261632680893
1761508316026932200,7.00993212890625,0.0012152176350355148,0.000132510787807405,-0.0024823690764606
1761508316036903200,7.019903076171875,-0.0004182448610663414,0.0014439946971833706,-0.003063957206904888
1761508316046875100,7.029875244140625,-0.0025687473826110363,0.0029753122944384813,-0.0009257050114683807
1761508316056846000,7.03984619140625,0.0016932017169892788,-0.0012803219724446535,-0.0005182018503546715
1761508316066817000,7.049817138671875,-0.0009150980040431023,0.0012909601209685206,0.0005284204380586743
1761508316076789200,7.059789306640625,-0.00003070244565606117,0.0005165446782484651,0.0010535249020904303
1761508316086760000,7.069760009765625,0.00045825401321053505,0.0006997701129876077,0.0009025237523019314
1761508316096732200,7.079732177734375,0.0001235208474099636,0.0011160726426169276,0.00002761592622846365
1761508316106703000,7.089703125,-0.0007878127507865429,-0.0006187105318531394,0.00029579619877040386
1761508316116674300,7.09967431640625,0.0013078073970973492,-0.002255142666399479,-0.0000019600847736001015
1761508316126646000,7.10964599609375,0.0014108717441558838,0.00034889625385403633,-0.0020177066326141357
1761508316136617200,7.1196171875,-0.0005931714549660683,-0.00007253431249409914,0.0009434624807909131
1761508316146588200,7.129588134765625,-0.0003532208502292633,-0.0012581734918057919,-0.0006688152207061648
1761508316156560100,7.13956005859375,-0.00016434211283922195,-0.000738623202778399,0.0026288889348506927
1761508316166530800,7.14953076171875,-0.0017907344736158848,0.0020062969997525215,-0.0023877073545008898
1761508316176503000,7.1595029296875,-0.0011830981820821762,0.0020301234908401966,0.00029650190845131874
1761508316186473700,7.1694736328125,-0.0016014808788895607,0.0007784378831274807,-0.001627631951123476
1761508316196445000,7.17944482421875,-0.00030815089121460915,-0.0005810526199638844,-0.002181178890168667
1761508316206417000,7.1894169921875,-0.00023278314620256424,0.0007846164517104626,0.0021544471383094788
1761508316216388000,7.19938818359375,0.0015968941152095795,0.0017302787164226174,0.0025357953272759914
1761508316226359800,7.20935986328125,-0.002087855711579323,-0.0006151673151180148,-0.0007103316020220518
1761508316236331000,7.2193310546875,0.002225419506430626,-0.00020580983255058527,0.001044413773342967
1761508316246302000,7.229302001953125,-0.0008161771111190319,-0.0010212697088718414,-0.0004224554286338389
1761508316256274000,7.23927392578125,0.0022445027716457844,-0.00013480510096997023,0.0007328219944611192
1761508316266244900,7.249244873046875,0.0029933839105069637,-0.0007460005581378937,-0.00046613317681476474
1761508316276217000,7.259217041015625,-0.0010722535662353039,0.0009206918184645474,-0.00023311644326895475
1761508316286187800,7.269187744140625,0.0006657252088189125,0.00020163832232356071,0.0012047243071720004
1761508316296159000,7.279158935546875,0.0014876164495944977,-0.0005265962099656463,-0.00032096588984131813
1761508316306131000,7.289130859375,0.001393873244524002,0.000979687785729766,0.00009129138197749853
1761508316316102100,7.29910205078125,-0.0007973085157573223,0.0006834093946963549,0.000257822684943676
1761508316326073900,7.309073974609375,-0.0017310124821960926,-0.00018158531747758389,-0.001390407676808536
1761508316336045000,7.319045166015625,-0.0009535155259072781,-0.0007592705078423023,-0.0010191299952566624
1761508316346016000,7.32901611328125,-0.00019664550200104713,-0.0018929783254861832,0.001257872674614191
1761508316355988000,7.338988037109375,-0.0011105993762612343,0.0006090657552704215,-0.000539349508471787
1761508316365959000,7.348958984375,0.0008944948203861713,0.0005550036439672112,-0.0006610559648834169
1761508316375929900,7.358929931640625,-0.00019917869940400124,0.00016590417362749577,-0.002560084220021963
1761508316385901800,7.36890185546875,0.0009347950108349323,-0.0015587590169161558,0.0029249624349176884
1761508316395872800,7.378872802734375,0.0021910774521529675,-0.0021293831523507833,0.001341864699497819
1761508316405845000,7.388844970703125,-0.0007629008032381535,0.0005146032199263573,-0.002442487282678485
1761508316415816000,7.39881591796875,-0.00024066073819994926,-0.002181264106184244,0.0024713927414268255
1761508316425787000,7.408786865234375,-0.003966690041124821,0.0002619196893647313,0.003812028095126152
1761508316435758800,7.4187587890625,0.00006730714812874794,-0.0015962509205564857,-0.0010933985468000174
1761508316445730000,7.42872998046875,0.000019902829080820084,0.0013028662651777267,0.0013852054253220558
1761508316455701800,7.43870166015625,-0.0014627459459006786,-0.00023956538643687963,0.0007504380773752928
1761508316465673000,7.4486728515625,0.0006299661472439766,0.00042063219007104635,0.0017214266117662191
1761508316475644000,7.458643798828125,-0.0016020666807889938,-0.0007701260037720203,0.0008698598248884082
1761508316485615900,7.468615966796875,0.001378276851028204,0.00034014577977359295,-0.0014870376326143742
1761508316495586800,7.4785869140625,-0.0012010624632239342,0.00031999265775084496,0.004527298733592033
1761508316505559000,7.48855908203125,-0.0008351439610123634,-0.00029493123292922974,-0.00033536733826622367
1761508316515530000,7.498530029296875,0.0009222915396094322,0.0004035246092826128,0.0006588462274521589
1761508316525501000,7.5085009765625,-0.0012276782654225826,0.00199556234292686,-0.00025355274556204677
1761508316535473000,7.518472900390625,0.0017925486899912357,0.00010162813123315573,-0.0025449804961681366
1761508316545444000,7.528444091796875,-0.000682326965034008,-0.00016069330740720034,0.002004763809964061
1761508316555415800,7.538415771484375,0.00033872807398438454,-0.00012165296357125044,0.0027571560349315405
1761508316565387000,7.548386962890625,0.0003187544643878937,0.0008924787980504334,-0.003003527643159032
1761508316575358000,7.55835791015625,0.0001905420795083046,0.0014391947770491242,0.0012423426378518343
1761508316585330000,7.568329833984375,-0.0020827320404350758,-0.0006846762262284756,0.0019451507832854986
1761508316595300900,7.57830078125,-0.0005543939769268036,-0.002111951820552349,0.0029743630439043045
1761508316605272000,7.58827197265625,0.0015007676556706429,-0.0009827715111896396,-0.0003676376072689891
1761508316615244000,7.598244140625,0.00034568412229418755,0.000726963160559535,-0.00015728367725387216
1761508316625215000,7.608215087890625,0.0013470328412950039,0.000405519618652761,-0.0006158800097182393
1761508316635187000,7.61818701171875,-0.001634368672966957,0.0009792860364541411,-0.0023170122876763344
1761508316645158100,7.628158203125,-0.0016000140458345413,0.0012131115654483438,0.003782159648835659
1761508316655128800,7.63812890625,-0.0019523673690855503,0.0019919616170227528,0.001953601837158203
1761508316665101000,7.64810107421875,0.0012506162747740746,0.0016822358593344688,0.0014398781349882483
1761508316675072000,7.658072021484375,-0.002515203319489956,-0.0005796034820377827,-0.0007182356785051525
1761508316685044000,7.6680439453125,0.001802047248929739,0.0004707472398877144,0.0007536935154348612
1761508316695015000,7.678014892578125,0.0005226638168096542,-0.001766340108588338,0.0006253666942939162
1761508316704985900,7.68798583984375,-0.00018360652029514313,0.0013919025659561157,-0.002451383275911212
1761508316714958000,7.6979580078125,-0.0002937931567430496,0.0005335815949365497,0.001626511919312179
1761508316724928800,7.7079287109375,0.0001248558983206749,-0.0002587088383734226,-0.0009905764600262046
1761508316734901000,7.71790087890625,0.0006975219585001469,-0.0015470943180844188,-0.0017751972191035748
1761508316744872000,7.727871826171875,-0.0021126456558704376,-0.00012523261830210686,-0.0008912940975278616
1761508316754843000,7.7378427734375,-0.000733423512428999,-0.00021700328215956688,-0.00006010045763105154
1761508316764814800,7.74781494140625,0.000006668735295534134,0.0019169877050444484,-0.0015365569852292538
1761508316774786000,7.7577861328125,-0.0009200144559144974,-0.00036937755066901445,0.0003731595352292061
1761508316784757800,7.7677578125,0.00004005478695034981,-0.0009081350872293115,0.0006655746838077903
1761508316794729000,7.77772900390625,-0.0012910938821732998,0.0007514473400078714,-0.00012506655184552073
1761508316804700000,7.787699951171875,0.001172862946987152,0.0002688826061785221,-0.0013461258495226502
1761508316814672000,7.797671875,-0.0003784988075494766,0.0006461384473368526,0.0005971371429041028
1761508316824642800,7.807642822265625,0.0001480085775256157,-0.0005536155076697469,0.0006386823952198029
1761508316834614000,7.817614013671875,0.0008703749626874924,-0.00030368787702172995,0.0004458337789401412
1761508316844586000,7.8275859375,-0.0016716117970645428,0.0011053907219320536,0.0002998925046995282
1761508316854557000,7.837556884765625,-0.0008737933821976185,-0.0005275681614875793,0.002323260996490717
1761508316864529000,7.84752880859375,-0.00027085375040769577,-0.0016586126293987036,0.0008286951342597604
1761508316874500000,7.8575,0.00021214177832007408,-0.0010499416384845972,-0.0006991364061832428
1761508316884471000,7.867470947265625,-0.0036017708480358124,0.00039429054595530033,0.0012020943686366081
1761508316894443000,7.877443115234375,0.0015415390953421593,0.0017892237519845366,-0.0003063837648369372
1761508316904414000,7.8874140625,-0.002413521520793438,-0.0008694099960848689,-0.0018779151141643524
1761508316914386000,7.897385986328125,-0.000772309023886919,-0.00014438724610954523,0.0003610640997067094
1761508316924356900,7.90735693359375,0.0004673921503126621,0.00278615509159863,0.002591195050626993
1761508316934327800,7.917327880859375,-0.0003956528380513191,-0.0020930315367877483,0.00192725146189332
1761508316944300000,7.927300048828125,0.0003926428034901619,0.0029848176054656506,0.0011061988770961761
1761508316954270700,7.937270751953125,-0.0008327383548021317,-0.00014266883954405785,-0.0025657869409769773
1761508316964243000,7.947242919921875,0.0006173523142933846,0.0015465742908418179,0.0005208167713135481
1761508316974214000,7.9572138671875,0.0011127726174890995,0.001646101358346641,0.00241365609690547
1761508316984185000,7.96718505859375,-0.0001865834929049015,-0.0009281100938096642,-0.0003597598406486213
1761508316994156800,7.97715673828125,-0.0003036176785826683,-0.00019861035980284214,0.0037156399339437485
1761508317004128000,7.9871279296875,0.0016186521388590336,-0.000528576085343957,-0.0006812391802668571
1761508317014099700,7.997099609375,-0.0009213946759700775,-0.0001504933461546898,-0.0023942673578858376
1761508317024070100,8.007070068359376,-0.002189858816564083,0.0005547116743400693,-0.00032605649903416634
1761508317034040800,8.017040771484375,-0.000012911856174468994,-0.0007622325792908669,-0.0008081326959654689
1761508317044011800,8.02701171875,-0.0015799161046743393,0.00037760043051093817,-0.0014680640306323767
1761508317053984000,8.03698388671875,-0.0004924708046019077,-0.001166638801805675,0.0012006767792627215
1761508317063955000,8.046954833984374,-0.0025612148456275463,-0.0016321594594046474,-0.0015072253299877048
1761508317073927000,8.056927001953126,-0.0003570294938981533,0.0011624709004536271,-0.002820385619997978
1761508317083897900,8.06689794921875,0.00036362186074256897,-0.00029614241793751717,0.0014276226283982396
1761508317093869000,8.076869140625,0.00026389211416244507,-0.0005366768455132842,0.00016201171092689037
1761508317103840800,8.0868408203125,0.004056233912706375,0.0008012953330762684,-0.0005240186001174152
1761508317113812000,8.09681201171875,0.0005298350006341934,-0.0006749412277713418,0.0025663762353360653
1761508317123784000,8.106783935546876,0.001460077241063118,0.0007232182542793453,1.541338860988617e-7
1761508317133755000,8.1167548828125,-0.0006798687390983105,0.0005688166129402816,-0.004399819299578667
1761508317143725800,8.126725830078126,0.0006051058880984783,-0.001128948526456952,-0.00005646992940455675
1761508317153698000,8.136697998046875,-0.0013069752603769302,0.00008959078695625067,-0.001676818821579218
1761508317163668700,8.146668701171874,-0.00046594906598329544,-0.0004145456477999687,0.00020869914442300797
1761508317173640700,8.156640625,0.00000593205913901329,-0.0032107378356158733,-0.00007407047087326646
1761508317183611600,8.166611572265625,-0.0014385664835572243,0.0005480475956574082,-0.0006035069236531854
1761508317193582600,8.17658251953125,0.0014942861162126064,-0.001350550097413361,-0.0002784054377116263
1761508317203554600,8.186554443359375,-0.000238100066781044,0.0007115356274880469,-0.0018792315386235714
1761508317213525500,8.196525390625,0.0004175272770226002,-0.0007612521294504404,0.0007473467849195004
1761508317223497700,8.206497802734376,0.0002111322246491909,0.0019272089703008533,0.0019380460726097226
1761508317233468400,8.216468505859375,0.0007945941761136055,-0.0022443276830017567,-0.0000014246907085180283
1761508317243439600,8.226439697265626,0.00152909429743886,0.0007165746646933258,0.0009951300453394651
1761508317253411600,8.23641162109375,0.0008475994691252708,0.0006646612891927361,0.0022207796573638916
1761508317263382800,8.2463828125,0.0015155202709138393,-0.0011050093453377485,-0.0009981831535696983
1761508317273353500,8.256353515625,0.00036031007766723633,-0.0005108022596687078,0.0004748289939016104
1761508317283325700,8.26632568359375,0.0017627310007810593,-0.0017715428257361054,0.0009406158933416009
1761508317293296600,8.276296630859376,-0.0011230362579226494,-0.00241483049467206,0.0003551291301846504
1761508317303268600,8.2862685546875,0.0007406435906887054,0.0005226360517553985,-0.0011919011594727635
1761508317313239600,8.296239501953124,0.0008678329177200794,-0.0022507221437990665,0.0012021251022815704
1761508317323210800,8.306210693359375,0.001039606984704733,-0.001106894575059414,0.0013704369775950909
1761508317333182500,8.316182373046875,-0.0005942494608461857,-0.00027727033011615276,0.00007416319567710161
1761508317343153700,8.326153564453126,-0.0008720173500478268,-0.000010687974281609058,-0.0007388998055830598
1761508317353125600,8.336125732421875,0.0005021602846682072,0.0005727602983824909,-0.0012046856572851539
1761508317363096800,8.346096923828124,-0.0002949237823486328,-0.00021074165124446154,-0.0000826958566904068
1761508317373067500,8.356067626953125,-0.0006693648174405098,-0.0010661385022103786,-0.0006693180184811354
1761508317383039700,8.366039794921875,0.0005615479312837124,0.0008177816052921116,0.00028409366495907307
1761508317393011500,8.376011474609374,0.0000032302923500537872,0.00026946491561830044,0.003576180897653103
1761508317402983700,8.385983642578125,-0.0002982397563755512,-0.0003055115230381489,0.00020994548685848713
1761508317412954600,8.39595458984375,-0.0016190102323889732,-0.0004181113326922059,-0.00044688768684864044
1761508317422926600,8.405926513671876,-0.002935943193733692,-0.0009747120784595609,0.004283418878912926
1761508317432897500,8.4158974609375,0.0007293620146811008,0.0003632900770753622,0.0007665533339604735
1761508317442868700,8.42586865234375,-0.00021579395979642868,0.0009723550174385309,0.003673659870401025
1761508317452840400,8.43584033203125,0.0005619991570711136,0.0022787507623434067,0.0017246699426323175
1761508317462811600,8.445811767578125,0.000215788371860981,0.0009266638662666082,-0.001398419146426022
1761508317472783600,8.45578369140625,-0.002295497804880142,-0.0004661853890866041,0.0014904438285157084
1761508317482754800,8.4657548828125,0.000584977213293314,0.001188170281238854,-0.002425734419375658
1761508317492725500,8.4757255859375,-0.00015673134475946426,0.0009516329737380147,-0.0038120741955935955
1761508317502697700,8.48569775390625,0.000317577738314867,-0.00010484305676072836,-0.001241325051523745
1761508317512668700,8.495668701171875,0.0011716480366885662,0.002787112258374691,-0.0012224738020449877
1761508317522640600,8.505640625,-0.0004259827546775341,0.001679769717156887,0.0025323170702904463
1761508317532611600,8.515611572265625,0.0017072218470275402,-0.0019449066603556275,-0.00028093793662264943
1761508317542582800,8.525582763671874,-0.0004302309826016426,-0.0013398363953456283,0.00027726066764444113
1761508317552554500,8.535554443359375,0.0018321964889764786,0.0005036773509345949,0.0010455279843881726
1761508317562525700,8.545525634765625,-0.0014442908577620983,-0.0010231129126623273,0.0021195807494223118
1761508317572497700,8.55549755859375,0.00010243477299809456,0.002160764066502452,-0.001998798456043005
1761508317582468900,8.56546875,-0.00010902015492320061,-0.0025178773794323206,0.0005045729922130704
1761508317592439600,8.575439453125,-0.0009603588841855526,-0.001492408337071538,0.0019406506326049566
1761508317602411800,8.585411865234375,0.0014604544267058372,-0.002094016643241048,-0.0021198708564043045
1761508317612382700,8.5953828125,-0.0017209090292453766,-0.0017482037656009197,-0.0005302403005771339
1761508317622354700,8.605354736328126,0.0013880650512874126,-0.00006748281884938478,-0.0002378252102062106
1761508317632325600,8.61532568359375,0.00019628461450338364,-0.001997780054807663,-0.000849369855131954
1761508317642296600,8.625296630859374,0.00016246270388364792,0.0007556623313575983,-0.0005324537050910294
1761508317652268500,8.6352685546875,0.0004137549549341202,-0.002246283460408449,-0.00094464176800102
1761508317662239500,8.645239501953125,0.000011084601283073425,-0.0014563900185748935,-0.0015864635352045298
1761508317672210700,8.655210693359376,0.0016238964162766933,-0.002120926044881344,-0.0019172846805304289
1761508317682182700,8.6651826171875,-0.0002440446987748146,-0.00039919232949614525,0.002542444970458746
1761508317692153600,8.675153564453124,0.0007481146603822708,0.00008378864731639624,0.00006525753997266293
1761508317702125600,8.68512548828125,-0.0012410003691911697,-0.00008372415322810411,0.0015797971282154322
1761508317712096800,8.6950966796875,0.0016139307990670204,-0.00177662109490484,-0.0013745370088145137
1761508317722067700,8.705067626953126,0.001460532657802105,-0.001291925902478397,-0.0005388370482251048
1761508317732039700,8.715039794921875,-0.0003191642463207245,-0.0009059782605618238,-0.0008315618615597486
1761508317742010600,8.7250107421875,-0.001339687965810299,-0.00193582265637815,0.002133335452526808
1761508317751982600,8.734982666015625,0.0004455321468412876,0.0004545942647382617,0.0026190374046564102
1761508317761953500,8.74495361328125,-0.0006807185709476471,-0.0011709991376847029,0.0002741239732131362
1761508317771924700,8.7549248046875,0.00010683061555027962,-0.0032357554882764816,0.0015827063471078873
1761508317781896700,8.764896728515625,-0.00003831135109066963,-0.000027978327125310898,-0.0008301176130771637
1761508317791867600,8.77486767578125,0.00005540391430258751,0.0016972468001767993,0.0015695521142333746
1761508317801839600,8.784839599609375,0.001712955068796873,-0.0012479430297389627,0.0002896368969231844
1761508317811810800,8.794810791015625,-0.0013665901497006416,-0.00031981058418750763,-0.0020816985052078962
1761508317821781800,8.80478173828125,-0.0010656528174877167,0.0018290941370651126,-4.380708560347557e-7
1761508317831753700,8.814753662109375,-0.0006602499634027481,-0.0009683837415650487,0.000967273605056107
1761508317841724700,8.824724609375,-0.00031430553644895554,0.0014798601623624563,-0.0004330164520069957
1761508317851696600,8.834696533203125,-0.0015868768095970154,-0.00018283410463482141,-0.0009521093452349305
1761508317861667600,8.84466748046875,0.0000613536685705185,0.00010691781062632799,0.0005320702912285924
1761508317871638500,8.854638427734375,0.0006137448363006115,-0.0011615531984716654,-0.0005792636657133698
1761508317881610800,8.86461083984375,-0.000577753409743309,-0.0015549021773040295,0.0014508638996630907
1761508317891581400,8.87458154296875,0.00024240557104349136,-0.0021435292437672615,-0.00023400230566039681
1761508317901553700,8.8845537109375,-0.0005759838968515396,0.00007914518937468529,-0.0012260298244655132
1761508317911524600,8.894524658203125,-0.0000810590572655201,-0.0010926472023129463,0.00027195236179977655
1761508317921495600,8.90449560546875,-0.0020997351966798306,-0.0001549482112750411,-0.0004220674163661897
1761508317931467500,8.914467529296875,-0.0008284454233944416,-0.0018083550967276096,-0.0007197393570095301
1761508317941438700,8.924438720703124,0.0017974316142499447,-0.0010168636217713356,-0.0004867127863690257
1761508317951409700,8.93440966796875,0.00036603352054953575,-0.000989247695542872,0.00005924445576965809
1761508317961381600,8.944381591796875,-0.0003351769410073757,0.0005053182248957455,-0.001902173738926649
1761508317971352600,8.9543525390625,-0.0005913004279136658,-0.00373061653226614,0.0035515855997800827
1761508317981324800,8.96432470703125,0.0022926367819309235,-0.0002445387654006481,0.0004806945798918605
1761508317991295500,8.97429541015625,-0.000916339922696352,-0.00045652512926608324,0.0035349600948393345
1761508318001266700,8.9842666015625,0.000037338584661483765,0.001513947732746601,0.00039429403841495514
1761508318011238700,8.99423876953125,0.0021484950557351112,0.0004647299647331238,-0.000056083197705447674
1761508318021209600,9.004209716796876,0.00116259278729558,0.0003499477170407772,-0.00032639410346746445
1761508318031181600,9.014181640625,-0.003070657607167959,0.001045488053932786,0.012798846699297428
1761508318041152800,9.02415283203125,0.00010116677731275558,-0.0004461484495550394,0.000003956258296966553
1761508318051123700,9.034123779296875,-0.00014428654685616493,0.0002440870739519596,0.00480237603187561
1761508318061095700,9.044095703125,0.00014679692685604095,0.00013409845996648073,0.001582880737259984
1761508318071066600,9.054066650390626,0.0009826365858316422,-0.0003979949979111552,-0.0009946338832378387
1761508318081038600,9.06403857421875,0.00038369186222553253,-0.0017295756842941046,0.0007380187744274735
1761508318091009500,9.074009521484374,-0.0005557257682085037,0.0013868510723114014,-0.0013243001885712147
1761508318100980700,9.083980712890625,0.0004821079783141613,-0.000027820118702948093,0.0006190084386616945
1761508318110952700,9.09395263671875,0.001189876813441515,-0.0009158086031675339,0.0013009412214159966
1761508318120923600,9.103923583984376,-0.00041893916204571724,-0.001196239609271288,-0.002148384926840663
1761508318130894600,9.11389453125,-0.0004786844365298748,-0.00022073264699429274,-0.0016969263087958097
1761508318140866800,9.12386669921875,-0.0001955903135240078,0.0016828948864713311,-0.0017744243377819657
1761508318150837800,9.133837646484375,-0.0003823605366051197,0.001868993858806789,-0.0005093230283819139
1761508318160809200,9.143809326171874,-0.002495312597602606,-0.00013769802171736956,-0.002741052070632577
1761508318170780200,9.1537802734375,-0.0005900515243411064,0.0018809374887496233,-0.0008260358590632677
1761508318180751400,9.16375146484375,0.00010210461914539337,0.0010774617549031973,-0.00003907177597284317
1761508318190723000,9.17372314453125,0.0019587804563343525,0.00036169402301311493,-0.002260793000459671
1761508318200694300,9.1836943359375,0.0013385303318500519,0.0003736781654879451,-0.0010384019697085023
1761508318210666200,9.193666259765624,-0.0015358198434114456,-0.0037081302143633366,0.00021356251090765
1761508318220637400,9.203637451171875,-0.0009483266621828079,0.0010762386955320835,0.001290544867515564
1761508318230608100,9.213608154296875,0.002414909191429615,0.0009441923466511071,-0.000674776267260313
1761508318240580400,9.223580322265626,-0.000014692544937133789,0.0003298011142760515,-0.00002469867467880249
1761508318250551300,9.23355126953125,-0.00015909923240542412,-0.00019436748698353767,-0.00026168476324528456
1761508318260523300,9.243523193359374,-0.0005425945855677128,-0.001790666370652616,0.0013601803220808506
1761508318270494200,9.253494140625,-0.0009116879664361477,0.0009014242677949369,0.00028122193180024624
1761508318280465400,9.26346533203125,0.0005879374220967293,0.0011552234645932913,0.00019307131879031658
1761508318290437000,9.27343701171875,-0.0007263068109750748,0.0007294442038983107,0.0011345724342390895
1761508318300408300,9.283408203125,0.0024846666492521763,0.002170214429497719,0.0003372220089659095
1761508318310380300,9.29338037109375,-0.0005359966307878494,-0.0005932701751589775,-0.002322626765817404
1761508318320351500,9.3033515625,0.00016920827329158783,0.00008157489355653524,0.00000870460644364357
1761508318330322200,9.313322265625,-0.0016818861477077007,0.0007468191324733198,0.0035874464083462954
1761508318340294400,9.32329443359375,-0.0014158361591398716,0.001732188742607832,-0.0000733350170776248
1761508318350265300,9.333265380859375,0.00015340140089392662,0.001813877490349114,-0.0014665494672954082
1761508318360237300,9.3432373046875,-0.00014673685654997826,0.0008543404983356595,0.0024096814449876547
1761508318370208300,9.353208251953125,-0.0010662348940968513,-0.0014825700782239437,-0.0003419106360524893
1761508318380179200,9.36317919921875,-0.0016499990597367287,0.0002697898307815194,-0.00022739474661648273
1761508318390151200,9.373151123046876,-0.0008438499644398689,-0.0010057734325528145,0.008276112377643585
1761508318400122000,9.3831220703125,0.0017314273864030838,0.0015407411847263575,0.00017344451043754816
1761508318410094300,9.39309423828125,-0.0005012443289160728,0.0012301148381084204,0.0022953927982598543
1761508318420065300,9.403065185546875,0.001719033345580101,-0.00011398247443139553,0.000892972107976675
1761508318430036200,9.4130361328125,0.0010418049059808254,-0.00016167527064681053,-0.002340115839615464
1761508318440008200,9.42300830078125,0.00254329526796937,0.0005059792310930789,-0.0034985910169780254
1761508318449979400,9.4329794921875,0.0000990200787782669,0.000169827020727098,0.001244480605237186
1761508318459950300,9.442950439453124,-0.00016037141904234886,-0.00025547982659190893,-0.0030416110530495644
1761508318469922300,9.45292236328125,0.0009926538914442062,0.00007628870662301779,-0.003258103970438242
1761508318479893200,9.462893310546875,0.0003934423439204693,-0.0006643363740295172,-0.0022224008571356535
1761508318489865200,9.472865234375,0.0002808510325849056,0.0005508526228368282,-0.0004106363048776984
