time,seconds_elapsed,z,y,x
1761508080149740300,0.069740234375,0.04743775074034929,-0.14994155514240265,-0.21966011127382515
1761508080159712000,0.0797119140625,0.18323095354288815,-0.18492928189337252,-0.2188151848822832
1761508080169683200,0.08968310546875,0.2997109685882926,-0.16977438285946844,-0.21616145550310611
1761508080179655200,0.0996552734375,0.3380675872504711,-0.0857464386075735,-0.15501228253543375
1761508080189626000,0.109626220703125,0.3677256434112787,0.015868015739321707,-0.043162849900126456
1761508080199598000,0.11959814453125,0.4355827895849943,0.00499532406926155,0.10328151077628135
1761508080209569300,0.1295693359375,0.4433522545427084,-0.0820475840896368,0.21094255181103944
1761508080219540200,0.139540283203125,0.4080059236124158,-0.16738544189631938,0.2664852830737829
1761508080229512200,0.14951220703125,0.34415509047061205,-0.2371533901274204,0.2995402881965041
1761508080239483100,0.159483154296875,0.21021219170987604,-0.2424257775723934,0.2993693155437708
1761508080249455000,0.169455078125,0.07434095523506402,-0.2307540444791317,0.2940840686172247
1761508080259426000,0.179426025390625,-0.06104249772280454,-0.22000234884023664,0.270381121468544
1761508080269398300,0.189398193359375,-0.1555351373657584,-0.21805472190380096,0.23754881918579338
1761508080279369200,0.199369140625,-0.19238778120577335,-0.23819150100350378,0.19533669413924215
1761508080289341200,0.209341064453125,-0.23850305117070675,-0.2432669045716524,0.1823968408063054
1761508080299312000,0.21931201171875,-0.2735346170634031,-0.24620588063299653,0.13968611858785152
1761508080309283300,0.229283447265625,-0.34273265645205975,-0.21927345004379747,0.08969751432090997
1761508080319255000,0.239255126953125,-0.4397106831699609,-0.17517185798883436,0.06834229934215545
1761508080329226200,0.249226318359375,-0.5660805163279176,-0.11513210756778716,0.05176058237552642
1761508080339198200,0.2591982421875,-0.6938844739422202,-0.05929565405547618,0.03784574653059244
1761508080349169200,0.269169189453125,-0.7416182850196957,-0.0014519523739814758,-0.0031146248891949654
1761508080359141000,0.27914111328125,-0.748171359924972,0.027158056038618088,-0.038439036248624325
1761508080369112300,0.2891123046875,-0.7029764196753502,-0.00576046322286129,-0.045265959659218785
1761508080379084000,0.299083984375,-0.6466968985706567,-0.06514379556179047,-0.06970569664984941
1761508080389055200,0.30905517578125,-0.646071752409637,-0.12835107010304928,-0.07809124767929315
1761508080399027200,0.319027099609375,-0.6317667482033371,-0.1458475638270378,-0.05289367805868387
1761508080408998100,0.328998046875,-0.5687862681552768,-0.08753215298056602,-0.007142565231025219
1761508080418969000,0.338968994140625,-0.42360096762925387,-0.027736148187518118,0.057575113873183724
1761508080428941300,0.34894140625,-0.2786240491569042,-0.04464753549993038,0.09700403794199228
1761508080438912300,0.358912353515625,-0.14176350938379764,-0.09292378289103508,0.13164251286387443
1761508080448884200,0.36888427734375,-0.046101825961470604,-0.12082301268577575,0.2085904357269406
1761508080458855200,0.378855224609375,-0.015253683233261107,-0.1179325519412756,0.32344957157224413
1761508080468827100,0.3888271484375,-0.0809054283171892,-0.09521978487372398,0.3800581785008311
1761508080478798000,0.398798095703125,-0.19658757098317145,-0.061759998342394824,0.33880057770013805
1761508080488770300,0.408770263671875,-0.21614625793397424,-0.05127601372897625,0.30733371855169533
1761508080498741200,0.4187412109375,-0.14194997186660765,-0.08289104917645454,0.2880135165318847
1761508080508712000,0.4287119140625,-0.02903700165301561,-0.16957389185130595,0.254955588799715
1761508080518684200,0.43868408203125,0.034431261911988253,-0.24805706145763395,0.16365589997917412
1761508080528655000,0.448655029296875,0.018818682238459585,-0.2798538832128048,0.09041793754994869
1761508080538627000,0.458626953125,-0.013556816187500953,-0.2651186708956957,0.08948620965778827
1761508080548598000,0.468597900390625,-0.0670437839642167,-0.14856559061408042,0.14302461536079644
1761508080558570200,0.4785703125,-0.06212766261100769,0.008859013760089874,0.2840598104700446
1761508080568541000,0.488541015625,-0.03664133917689323,0.05921031385958194,0.5026943780884147
1761508080578513200,0.49851318359375,0.007242518474161625,-0.03348667453825473,0.6744491211101412
1761508080588484000,0.508484130859375,0.11529752726256846,-0.22999065889120102,0.7614078581169247
1761508080598456000,0.5184560546875,0.4063602022320032,-0.5196200861871242,0.8790385045021771
1761508080608427000,0.528427001953125,0.7580991719603538,-1.0370201582372187,1.0555141385659574
1761508080618398200,0.538398193359375,1.0182836013242602,-1.4609323837727308,1.2294053090944885
1761508080628370000,0.548369873046875,1.3811387160897255,-1.6469021146297453,1.2326345002740622
1761508080638341000,0.558341064453125,1.5265940657287835,-1.8686364018291235,1.2080606155097484
1761508080648313000,0.56831298828125,1.465616742196679,-2.1773709270894526,1.214715689484775
1761508080658284300,0.5782841796875,1.2780518511027097,-2.415199439999461,1.0800894846349953
1761508080668256000,0.588256103515625,0.8800783689439297,-2.6727245870262384,0.8495683721289038
1761508080678227200,0.598227294921875,0.4311111971288919,-2.825118211495876,0.6133753514662384
1761508080688199200,0.60819921875,-0.046564475037157535,-2.7879765215814114,0.45201633025258775
1761508080698170000,0.618170166015625,-0.4370160372585058,-2.426483050557971,0.4743681550532579
1761508080708142000,0.62814208984375,-0.9277952288866043,-2.209592696258426,0.6749319361910223
1761508080718113300,0.63811328125,-1.2715899616122246,-1.6126719282478092,0.833762023448944
1761508080728084000,0.648083984375,-1.507376155039668,-1.140244385868311,1.1229597813293337
1761508080738056200,0.65805615234375,-1.6965014273181556,-0.9505962587594985,1.3929232619076966
1761508080748027100,0.668027099609375,-1.5016981094032524,-0.8054968829512595,1.4810437361702322
1761508080757999000,0.6779990234375,-1.0385524823710321,-1.0108207180976867,1.404323192322254
1761508080767970000,0.687969970703125,-0.41968525549024344,-1.3770429712086916,1.0761667582333088
1761508080777942300,0.6979423828125,0.40742110946178434,-1.6005793393939733,0.7495175138369202
1761508080787913000,0.707912841796875,1.2737418789491057,-1.6437164703309535,0.39219782136678694
1761508080797885200,0.71788525390625,2.0759224769592284,-1.5650006610125302,0.053716977140307424
1761508080807856000,0.727856201171875,2.4803508343458174,-1.3262059334188698,-0.33723084416538474
1761508080817828000,0.737828125,2.2468986368238926,-0.5808306339532137,-0.7139779984220862
1761508080827799000,0.747799072265625,1.341862352234125,0.6121925714224576,-0.9978706356316804
1761508080837770200,0.757770263671875,0.26263416060358286,2.406341010761261,-1.3704261834174394
1761508080847742200,0.7677421875,-0.47782735559642314,4.162821105962991,-1.8046619423076509
1761508080857713200,0.777713134765625,-0.8635381530314683,5.953232112339139,-3.1001161791101097
1761508080867685000,0.78768505859375,-0.7014113623157143,8.170872505974769,-4.633963284707069
1761508080877656300,0.79765625,-0.4238578649997711,10.812125849938392,-6.158470607289671
1761508080887628000,0.8076279296875,-0.5460135875940323,13.855553634881973,-7.289362058401108
1761508080897599200,0.81759912109375,-1.585096523579955,16.870092009949683,-7.814252193945646
1761508080907571200,0.8275712890625,-3.630545244081318,19.024319377338884,-7.63889679608345
1761508080917542100,0.837542236328125,-6.233956348645687,19.127232639324664,-6.717286393311619
1761508080927512800,0.847512939453125,-8.35142196534872,16.851712303650377,-5.499356125694513
1761508080937485000,0.857485107421875,-9.283298326069117,13.727129499542713,-4.776777764448523
1761508080947456000,0.8674560546875,-8.748047540029884,10.392116477060318,-4.24258233268112
1761508080957428000,0.877427978515625,-7.145116084551811,6.905111396646499,-3.6485657616794107
1761508080967399000,0.88739892578125,-5.231580802810192,3.3351889635711904,-2.9897300970256326
1761508080977371000,0.897370849609375,-3.325725554177165,-0.04236497752070427,-1.9315280345499515
1761508080987341800,0.907341796875,-1.8225947816222905,-2.973161239540577,-0.6758645408660173
1761508080997314000,0.91731396484375,-0.5735591816455126,-5.451002721413969,0.4581166929543018
1761508081007285000,0.927284912109375,0.4225535044029355,-7.335722827559709,1.3724249560192228
1761508081017257000,0.937257080078125,1.1801681077167392,-8.824006159594655,2.1124168088808655
1761508081027228000,0.947227783203125,1.676755693362653,-10.217190118265151,2.572960436721146
1761508081037199000,0.95719921875,2.5525083080619573,-11.34313359158039,2.6144331415772437
1761508081047170800,0.9671708984375,3.5145576887279746,-12.136391755205391,2.6822423569560048
1761508081057142000,0.97714208984375,3.9921336999118324,-12.295325595098733,2.7793752819746733
1761508081067114000,0.987114013671875,3.799768422798812,-11.44971998912096,2.8415780556485055
1761508081077085000,0.9970849609375,3.2420269880101085,-9.753333420354128,3.1251261172041294
1761508081087057000,1.007056884765625,2.5873332454666493,-7.917597417607903,3.5972450320258735
1761508081097028000,1.017028076171875,2.009280551794171,-6.514635576766729,4.231569648018479
1761508081106999800,1.026999755859375,1.7355471972882746,-5.510106067767739,5.085039996021986
1761508081116971000,1.036970947265625,1.642214249074459,-5.055241654607653,5.946356381350755
1761508081126942000,1.04694189453125,1.6268123895421622,-5.203968573263287,6.642270607554912
1761508081136914000,1.056913818359375,1.6739356675058603,-5.613996650353074,6.928276583656668
1761508081146884900,1.066884765625,1.8209455531105398,-6.1996694636404515,6.798626705914735
1761508081156857000,1.076857177734375,2.2131024579450487,-6.867094677463173,6.460186193698644
1761508081166828000,1.086828125,2.7576000880181786,-7.3838745717883105,5.926724629163742
1761508081176800000,1.096800048828125,3.351104910105467,-7.684244004285335,5.187447062051296
1761508081186771000,1.10677099609375,4.018392761284113,-7.900368634909391,4.669049503396451
1761508081196743000,1.116742919921875,4.45458462267816,-7.975550424882769,4.474562119562924
1761508081206713900,1.1267138671875,4.562797744637727,-7.893788671997189,4.4038057448163626
1761508081216686000,1.13668603515625,4.280295685003698,-7.636635865414142,4.12240784703195
1761508081226657000,1.146656982421875,3.681756375880539,-7.2410039779454465,3.682446988493204
1761508081236628000,1.1566279296875,3.0313436716571447,-6.790885298007726,3.192226307530701
1761508081246600000,1.166599853515625,2.5507410061284896,-5.951791850402951,2.3835841122910377
1761508081256571100,1.176571044921875,2.3314298544228076,-4.1439702750206,0.8040726953670382
1761508081266542800,1.18654296875,2.4451632011085747,-1.0700772091865538,-1.424762169238925
1761508081276514000,1.19651416015625,2.259074227786064,3.1445500718593595,-3.66338485288769
1761508081286486000,1.206486083984375,1.22687579061687,7.242776832836866,-5.151956061953306
1761508081296457000,1.21645703125,-0.5336988804221153,11.024655670940875,-6.067339553034305
1761508081306429000,1.226428955078125,-2.7929645391270514,15.038917031508683,-6.444184906968474
1761508081316400000,1.236400146484375,-4.75211035618186,18.084800977432728,-5.144912573182583
1761508081326371000,1.24637109375,-5.771815807002782,18.889126478517053,-2.6726386623084544
1761508081336343000,1.256343017578125,-5.226441101834178,17.746284477370978,-0.9426964454203843
1761508081346314000,1.26631396484375,-3.481882330572605,15.095733728229998,-0.49281449684798717
1761508081356286000,1.276285888671875,-2.079880859196186,11.668571998882292,-0.754945091843605
1761508081366257000,1.2862568359375,-1.5009332625105976,8.720348801243304,-1.250277416731417
1761508081376229000,1.29622900390625,-1.6007842143163085,6.437246632137894,-1.9454259192600845
1761508081386200000,1.306199951171875,-1.899681820695102,4.744695111489296,-2.4714321993529795
1761508081396172000,1.316172119140625,-2.068474499040842,3.3232851752877233,-2.6484461780771613
1761508081406143000,1.32614306640625,-1.9587360672101377,1.853264060652256,-2.4567267976522444
1761508081416115000,1.336114990234375,-1.1307175558492542,0.413318935328722,-2.0565674958869815
1761508081426086000,1.3460859375,0.15028993018865586,-1.0250514880239963,-1.7266516509100793
1761508081436056800,1.356056884765625,1.30880530128479,-2.490719668146968,-1.5927283336326479
1761508081446029000,1.366029052734375,2.1546143208801745,-3.945727922567725,-1.4244976730838417
1761508081456000000,1.376,2.443455520407855,-5.180156905043125,-1.2507049944937227
1761508081465972000,1.385971923828125,2.215396121840179,-5.954610414955019,-1.0535916460707784
1761508081475943200,1.395943115234375,1.7503098821341991,-6.2853556964933865,-0.6138622582003473
1761508081485915000,1.405914794921875,1.1572782305166125,-6.11171762394309,0.021123159788548944
1761508081495886000,1.415885986328125,0.750172470614314,-5.553308080634475,0.7575845004364847
1761508081505858000,1.425858154296875,0.4401011437922716,-5.114372473490238,1.3198054187268018
1761508081515829000,1.4358291015625,0.04876081603765487,-4.748558801180124,1.6147922814026474
1761508081525800000,1.445800048828125,-0.14279226790964603,-4.369329182457924,1.739216533450782
1761508081535772200,1.455772216796875,-0.04055763583779335,-4.204428543114662,1.7273197594299912
1761508081545743000,1.4657431640625,0.256628490447998,-4.18268608238399,1.5684709674715995
1761508081555715000,1.475715087890625,0.5484592271804809,-4.098520190966129,1.3402803437396884
1761508081565686000,1.48568603515625,0.6443836531922221,-3.808385152235627,1.131072068375349
1761508081575658000,1.495657958984375,0.5071905204638838,-3.1402567585796115,0.9044318889558315
1761508081585629000,1.50562890625,0.34577363158315416,-2.2737176701664925,0.6408753528103232
1761508081595601200,1.51560107421875,0.241171393597126,-1.5422288572341203,0.5013064308613538
1761508081605572000,1.525572021484375,0.20833353835642338,-1.126730239778757,0.5471724022403359
1761508081615544000,1.5355439453125,-0.019994155758619306,-0.911400558924675,0.6046709437459707
1761508081625515000,1.545514892578125,-0.3036392479479313,-0.8087626067489385,0.6491518905073403
1761508081635486000,1.55548583984375,-0.42644875827580686,-0.7081079373449086,0.6439975764840841
1761508081645458000,1.5654580078125,-0.30110885268747806,-0.6146978322416543,0.4432917565271258
1761508081655428900,1.575428955078125,0.043609424623847,-0.5787772085547447,0.23007746039181948
1761508081665401000,1.585401123046875,0.38343525371849535,-0.7883107703506946,0.344731429053843
1761508081675371800,1.595371826171875,0.6317413215011358,-1.345779233416915,0.4992196877151727
1761508081685344000,1.605343994140625,0.7148989126592874,-2.0657219854623077,0.3309966259509325
1761508081695315000,1.61531494140625,0.6535723372980952,-2.632164613100886,0.10111176552176475
1761508081705287000,1.625286865234375,0.5265151063978671,-2.9763007066100835,-0.23548808726370332
1761508081715257900,1.6352578125,0.43701662178039546,-3.020334494125843,-0.6681620036646724
1761508081725229000,1.64522900390625,0.43253538471311326,-2.377051203390956,-1.3022417049854993
1761508081735200800,1.65520068359375,0.21891630716919896,-0.9211702577888965,-1.9551438879370688
1761508081745172000,1.665171875,-0.4477575037643313,0.8389175065159797,-2.3141519718855617
1761508081755144000,1.67514404296875,-1.1628846722215413,3.1402778013676405,-2.7661817461416125
1761508081765115100,1.685115234375,-1.7873805526390671,5.81585368617177,-3.4423695276126263
1761508081775086800,1.6950869140625,-2.376445930974185,8.833763583499193,-4.27179644446671
1761508081785058000,1.70505810546875,-3.0065806940615176,12.094817051279545,-5.107770883268118
1761508081795029800,1.71502978515625,-4.28120461654216,14.803531235575676,-5.3898284140050405
1761508081805001000,1.7250009765625,-5.880044126531481,16.42281585996151,-5.025933727058768
1761508081814972000,1.734971923828125,-6.835038327988982,17.10408079856634,-4.623860408365726
1761508081824944000,1.744944091796875,-6.621406683224439,16.74104126714468,-4.14317620203346
1761508081834914800,1.754914794921875,-5.2051066373825075,15.542341185176372,-3.183448250052333
1761508081844887000,1.764886962890625,-3.8388457569509744,13.619893113660812,-2.121725612235069
1761508081854858000,1.77485791015625,-2.876128267765045,11.141528484696149,-1.3851438600778578
1761508081864830000,1.784829833984375,-2.317240001028776,8.478288349851965,-1.0704960191205144
1761508081874801000,1.79480078125,-1.9296347681492565,6.220211900931597,-1.033625547362864
1761508081884773000,1.804773193359375,-1.4980126988887785,4.441839122873544,-1.0494739816188812
1761508081894743800,1.814743896484375,-1.0704431198894977,2.7925322851896284,-0.7538836000919341
1761508081904716000,1.824716064453125,-0.3819733644723892,1.0174199702322482,-0.19302169519513845
1761508081914687000,1.83468701171875,0.6892363558754324,-0.8959364478111267,0.5123284678742289
1761508081924658200,1.844658203125,1.815488456748426,-3.0121529412359,1.2978475616797804
1761508081934630100,1.854630126953125,2.7010084322243926,-5.3861278059214355,2.0932909603893757
1761508081944601300,1.864601318359375,3.250442641916871,-7.866420188078283,2.6898060702085496
1761508081954573000,1.874572998046875,3.543294538390636,-9.957834248679875,2.7079776867151257
1761508081964544300,1.884544189453125,4.038668072071672,-11.087225232100486,2.1492416879311205
1761508081974516200,1.89451611328125,4.507645766258239,-11.679216142493486,1.6271014356166122
1761508081984487200,1.904487060546875,4.8785450712695715,-11.678822174739837,1.371824067516625
1761508081994459100,1.914459228515625,5.0015012965917585,-11.112983942735195,1.3840601564943789
1761508082004430300,1.924430419921875,4.406034819042683,-10.353256292790174,1.481633518756926
1761508082014401300,1.9344013671875,3.599868074005842,-9.327911374777555,1.334059277267754
1761508082024373200,1.944373291015625,2.676343362045288,-8.396575696805119,1.1280001135841011
1761508082034344200,1.95434423828125,1.6452987710863352,-7.653926607432961,1.0296315092906356
1761508082044316400,1.96431640625,0.9327715559944509,-7.209030046057701,1.3275254915848373
1761508082054287000,1.974287109375,0.5208452440679073,-7.1470163652151815,1.8954311775133013
1761508082064259300,1.98425927734375,0.6665659666448831,-7.32148971954584,2.491350075004995
1761508082074230300,1.994230224609375,1.3875292939096688,-7.6611641574710605,3.112338531823456
1761508082084202200,2.0042021484375,2.261416406998038,-8.037512083277106,3.530698968450725
1761508082094173200,2.014173095703125,2.9360633887678382,-8.311692597028612,3.6543925681367515
1761508082104145400,2.0241455078125,3.3538287821114063,-8.42930483097434,3.7192858960688113
1761508082114116000,2.0341162109375,3.4551930610895156,-8.443107146355509,3.802541394643485
1761508082124087300,2.04408740234375,3.409870987328887,-8.428970484453439,3.7092932021036744
1761508082134059300,2.054059326171875,3.3650551095247265,-8.404221243122219,3.5518034235388036
1761508082144030200,2.0640302734375,3.2652985580042,-8.386471066898107,3.636253977116942
1761508082154002200,2.074002197265625,3.0028789169341326,-8.351953880268335,3.777428580696881
1761508082163973400,2.083973388671875,2.521979022024572,-8.266347142392396,3.475013613846898
1761508082173945000,2.093945068359375,2.3627786401495334,-7.715372717520594,2.522294371584058
1761508082183916300,2.103916259765625,2.603546421381831,-6.011487901952862,0.9649331194087862
1761508082193888300,2.11388818359375,2.9376427669137715,-2.4577456193059684,-0.8128414004951715
1761508082203859500,2.123859375,2.4647885235548017,2.1334826855242253,-2.2072002481639386
1761508082213830100,2.133830078125,0.7090095623597502,6.70982497138977,-3.219305745375156
1761508082223802400,2.14380224609375,-1.7695374374344943,9.67718015500009,-2.961287554134428
1761508082233773300,2.153773193359375,-4.095150130011141,11.953575519943236,-2.3751646589919924
1761508082243745300,2.163745361328125,-6.718057377684116,14.092794703292846,-1.7789409333348274
1761508082253716200,2.17371630859375,-8.803348571491242,14.589257201254368,-0.8701683848261833
1761508082263688400,2.1836884765625,-9.016191111704707,14.016492384856939,-0.7886956780150532
1761508082273659100,2.1936591796875,-7.4661518729805945,13.493199163115024,-1.967959822629392
1761508082283631400,2.20363134765625,-5.048609669247269,12.53957274287939,-3.0012077688515184
1761508082293602300,2.213602294921875,-3.0654701054036617,11.438500675970316,-3.744643624687195
1761508082303573200,2.2235732421875,-1.9745874240756034,10.33446625212431,-4.222569179961085
1761508082313545200,2.233545166015625,-1.587504169243574,9.006210984960198,-4.226763709041476
1761508082323516200,2.24351611328125,-1.4391758945167064,7.642189407888054,-3.7738796560436483
1761508082333488000,2.253488037109375,-1.0724638120621441,6.146368081563711,-2.8639924242913724
1761508082343459000,2.263458984375,-0.21228812120109794,4.5780976051002735,-1.8798165520131587
1761508082353431300,2.273431396484375,1.1034244752541185,3.013340689715743,-1.151971356280148
1761508082363402200,2.28340234375,2.3407997403144836,1.3436036429435014,-0.7281924017354846
1761508082373374200,2.293374267578125,3.3156308611422776,-0.43461657490134237,-0.6304086115926504
1761508082383345200,2.30334521484375,3.8946746116787194,-2.2168010202020407,-0.662756052967906
1761508082393317000,2.313317138671875,3.880561330652237,-3.7372979380995033,-0.8036077082037926
1761508082403288000,2.3232880859375,3.4326977361649273,-4.537221989354491,-0.9605278701871633
1761508082413259300,2.33325927734375,2.600323952203989,-4.878400986623764,-0.9008496465548872
1761508082423231200,2.343231201171875,1.7491203800886868,-4.80360322753191,-0.597876169039309
1761508082433202200,2.3532021484375,0.9318453810602426,-4.453274709123373,-0.06334054553210736
1761508082443174100,2.363174072265625,-0.07948240977674723,-4.123554094457626,0.49482963606268165
1761508082453145300,2.373145263671875,-1.1148878262937068,-3.9046430479854344,0.8396180560007691
1761508082463117000,2.383116943359375,-1.7254931285247206,-3.8304339024364946,0.9840306185886263
1761508082473088300,2.393088134765625,-1.715313095293939,-4.007206765881181,0.8985752718821167
1761508082483060200,2.403060302734375,-1.1783715796887875,-4.275138156110048,0.7025456270426511
1761508082493031200,2.41303125,-0.30599662472903727,-4.430412888973951,0.5042758020609617
1761508082503002000,2.423002197265625,0.582719224178791,-4.39772116420567,0.3654427931711077
1761508082512974300,2.432974365234375,1.2361901469290255,-4.006717521059513,0.15624503920078275
1761508082522945300,2.4429453125,1.65444653865993,-2.9297277560055255,-0.2401391279399395
1761508082532917200,2.452917236328125,1.6151888795047997,-1.5823299814760685,-0.5472156568601727
1761508082542888200,2.46288818359375,1.147773027807474,-0.17060615750849245,-0.5181839159041642
1761508082552860200,2.472860107421875,0.6405909829109907,1.398247087278962,-0.3535167930558324
1761508082562831000,2.4828310546875,-0.14543898302614688,2.650423323369026,0.15434505079835653
1761508082572803300,2.49280322265625,-0.9569956044077873,3.037428836789727,0.827956259779632
1761508082582774300,2.502774169921875,-1.4729448931276798,2.3966753567934034,1.406574478380382
1761508082592745200,2.5127451171875,-1.437296656641364,0.8553449097037314,1.668525917416811
1761508082602717200,2.52271728515625,-0.6836486188709735,-1.2215496271580457,1.5569836510345338
1761508082612688400,2.5326884765625,0.5463599168136716,-3.398112160474062,1.3846937782227993
1761508082622660000,2.54266015625,1.9887638334661721,-5.365144054603577,0.8099769509747624
1761508082632631300,2.55263134765625,3.453565752148628,-7.039304178515076,0.1604395682811737
1761508082642603300,2.562603271484375,4.655634141506255,-8.197617889559268,-0.39595863520503044
1761508082652574200,2.57257421875,5.420440409889817,-8.303357899403572,-0.903768748871982
1761508082662546200,2.582546142578125,5.423646512454748,-7.3747326494336125,-1.1935679797768592
1761508082672517400,2.592517333984375,4.549793009375035,-5.393573445752263,-1.24308224453032
1761508082682488300,2.60248828125,2.855637268400192,-2.977424157682061,-1.618411348682642
1761508082692460300,2.612460205078125,1.0082917841419576,-0.048502457362413404,-2.0438781101837753
1761508082702431200,2.62243115234375,-0.9121545921623706,3.2918069179624316,-2.307961300551891
1761508082712403200,2.6324033203125,-3.01977978285253,6.669398852977157,-2.4315698523029683
1761508082722374100,2.6423740234375,-4.842468380238116,9.797626151067018,-2.627144739112258
1761508082732346400,2.652346435546875,-5.995148177048564,12.256717924284935,-2.9826977141708135
1761508082742317300,2.6623173828125,-6.525759612849354,14.183710068970917,-3.4064094486981626
1761508082752289300,2.672289306640625,-6.313859321922063,15.515072069978713,-3.726823013575375
1761508082762260200,2.68226025390625,-5.413669892841577,16.31715651413798,-3.96824721288979
1761508082772231200,2.692231201171875,-4.299997287556529,16.728724221885205,-4.135619210782647
1761508082782203100,2.702203125,-3.779813137745857,16.556652667999266,-4.038526910035312
1761508082792174300,2.71217431640625,-3.979089509421587,15.693980191886425,-3.6551834262534975
1761508082802146300,2.722146240234375,-4.333305975179374,14.117880044710635,-3.05502879088819
1761508082812117200,2.7321171875,-4.366175102341175,12.025976739287376,-2.5143819910243153
1761508082822089200,2.742089111328125,-3.943538303568959,9.53062941133976,-2.1011279376253484
1761508082832060400,2.752060302734375,-3.096251612636447,6.615896979892254,-1.8807871506109832
1761508082842032000,2.7620322265625,-1.647182685136795,3.8697359852552413,-2.0274866550922392
1761508082852003300,2.77200341796875,0.19410978269279003,1.339603759652376,-2.0460802964031695
1761508082861974300,2.781974365234375,1.96668644169271,-0.8399374972134828,-1.6992124398425221
1761508082871946200,2.7919462890625,3.2795576772421597,-2.7547435295432803,-0.9379887061208486
1761508082881917200,2.801917236328125,4.01254169716835,-4.555601111131907,0.2076262668699026
1761508082891889400,2.811889404296875,4.082981261050701,-6.484948294511437,1.63782975037992
1761508082901860400,2.8218603515625,3.5036274216517804,-8.481118604841829,2.79335909140259
1761508082911832300,2.831832275390625,2.72429841465801,-10.156292289710045,3.445079663354158
1761508082921803300,2.84180322265625,2.218533250822127,-11.047059225928782,3.738180858413875
1761508082931775000,2.85177490234375,1.8438263702213764,-11.418569648575781,3.649402504764497
1761508082941745700,2.86174560546875,1.6750678864061832,-11.007354992049931,3.480761217588186
1761508082951718000,2.8717177734375,1.5287912835121154,-10.287344435465336,3.3056717771857973
1761508082961688800,2.881688720703125,1.3869763362020253,-9.682356680855154,2.9836840948596595
1761508082971659800,2.89165966796875,1.0944459267675877,-9.09942293714285,2.400516250130534
1761508082981631700,2.9016318359375,0.8163824341028928,-8.421767421206832,1.8490344602584838
1761508082991603000,2.91160302734375,0.604211509540677,-7.940406630787253,1.5949863416925072
1761508083001574700,2.92157470703125,0.5482698420882225,-7.589965299654007,1.650496631990373
1761508083011545900,2.9315458984375,0.6404892761021852,-7.4272232996493575,1.9477438408136367
1761508083021517800,2.941517822265625,0.9138830233901739,-7.382468796643614,2.3973422962695357
1761508083031488800,2.95148876953125,1.292087390717864,-7.493803850015998,2.747274508836865
1761508083041460700,2.961460693359375,1.6196674862235783,-7.780998159119487,2.8453172421768307
1761508083051432000,2.971431884765625,1.855283583781123,-8.072094736358522,2.773370488601923
1761508083061403000,2.98140283203125,2.107443988904357,-8.302341415837407,2.737724590203166
1761508083071374800,2.991374755859375,2.37618494195044,-8.543951785373688,2.7105329241558906
1761508083081345800,3.001345703125,2.6158342405468225,-8.71821354278028,2.7048598469555376
1761508083091318000,3.011318115234375,2.7852573257505893,-8.739599445158243,2.726172391836345
1761508083101288700,3.021288818359375,2.924234419286251,-8.607012344920635,2.657840613888204
1761508083111261000,3.031260986328125,2.9066373877972365,-8.25927033587396,2.452640989643335
1761508083121232000,3.04123193359375,2.605456638917327,-7.528312268817424,2.0913015401378274
1761508083131203800,3.051203857421875,2.290732517853379,-6.25040011844635,1.4682979441046713
1761508083141174800,3.0611748046875,2.2519044822871686,-3.9623230835378167,0.44750937422215936
1761508083151146000,3.07114599609375,2.132943756341934,-0.8077139744788407,-0.7097510283768177
1761508083161117700,3.08111767578125,1.420683375492692,3.089595077356696,-2.1036413817510007
1761508083171089000,3.0910888671875,-0.056846215076744554,7.031133147019148,-2.841927891999483
1761508083181060900,3.101060791015625,-2.1104273886293172,9.776208684507012,-2.636756324805319
1761508083191031800,3.11103173828125,-4.021540411660075,11.879607781934737,-2.24363028267771
1761508083201003800,3.121003662109375,-5.714780499094724,13.008015599536895,-1.4791273811548948
1761508083210975000,3.13097509765625,-6.760802294433116,12.988681953513622,-0.6505404222562908
1761508083220946700,3.14094677734375,-6.604216478970646,12.165331433963775,-0.4873547701373696
1761508083230918000,3.15091796875,-5.247910590842366,10.268057551193237,-1.1338213670834898
1761508083240888800,3.160888916015625,-3.275240983086824,8.613583540004491,-2.759330565072596
1761508083250861000,3.170861083984375,-1.4779776265978812,7.448959915161132,-4.363306853428483
1761508083260831700,3.180831787109375,-0.4452110341519117,6.911777284276485,-5.53011425205171
1761508083270804000,3.190803955078125,-0.3965595237076282,7.034481872925162,-5.891482635390759
1761508083280775000,3.20077490234375,-1.2724588534012435,7.380128955519199,-5.135217693120241
1761508083290747000,3.210746826171875,-2.3100685019642113,7.504870018431544,-3.8517666133224964
1761508083300717800,3.2207177734375,-3.1741888387978077,6.919739641457796,-2.133206791192293
1761508083310690000,3.23068994140625,-3.4794174017637967,5.640266817641258,-0.48251960506588215
1761508083320660700,3.24066064453125,-2.906995699715614,4.0605420502275225,0.3144160780280828
1761508083330631700,3.250631591796875,-1.68661803894639,2.396202478584647,0.35827947741299865
1761508083340604000,3.26060400390625,-0.07930091572999953,0.6851929257035255,0.28934622644037006
1761508083350574800,3.270574951171875,1.5733119777619837,-1.0840034432083367,0.3622741000071168
1761508083360546800,3.280546875,2.649716051882505,-2.645589327341318,0.7015911027967929
1761508083370517800,3.290517822265625,3.1143916649609804,-3.763736447691917,1.2110597973257302
1761508083380489700,3.30048974609375,3.0635961282253263,-4.362554573756456,1.745903171607852
1761508083390460700,3.310460693359375,2.709814254492521,-4.466778333818913,2.2861270698845386
1761508083400433000,3.320432861328125,2.034538327169418,-4.430188432568311,2.642991127541661
1761508083410403800,3.33040380859375,1.2080749362960457,-4.287220808091759,2.595892107236385
1761508083420374800,3.340374755859375,0.5509425684288144,-4.134783344480395,2.24709883557111
1761508083430346800,3.3503466796875,0.3639452480897307,-4.046619323337078,1.7544117644950747
1761508083440318000,3.36031787109375,0.5147843365937471,-4.005986868697405,1.2894956206589936
1761508083450290000,3.3702900390625,0.9215814689382911,-3.77896850361526,0.9310247123271226
1761508083460260900,3.3802607421875,1.2344582085698843,-3.355606313177943,0.6101581429854035
1761508083470233000,3.390233154296875,1.3144465220421553,-2.844811338481307,0.3558896596670151
1761508083480203800,3.400203857421875,1.2328034271001815,-2.234974390274286,0.23377952978014946
1761508083490176000,3.410176025390625,1.0049877741605042,-1.526110081604123,0.27093349465429784
1761508083500147000,3.42014697265625,0.6208166073828936,-0.8585814074069261,0.4096303099438548
1761508083510118000,3.430117919921875,0.14118892436623573,-0.17289339166283607,0.6560077477514743
1761508083520089900,3.44008984375,-0.339076764293015,0.2844885572761297,0.8943366113990545
1761508083530060800,3.450060791015625,-0.7054667751863598,0.43606385110020635,1.0795499709308147
1761508083540032800,3.46003271484375,-0.9417658865720033,0.28295184922814365,1.1581585204824805
1761508083550003700,3.470003662109375,-0.786236009903252,-0.05352759204804897,1.0176426730722188
1761508083559976000,3.479975830078125,-0.3925178471013903,-0.605668138089776,0.7735217820197343
1761508083569947000,3.48994677734375,0.09881488675624131,-1.2444704840183258,0.612910072042048
1761508083579918800,3.4999189453125,0.6052478668510913,-1.81940679923594,0.6151850312367081
1761508083589889800,3.509889892578125,0.8864742074608802,-2.3359324265390633,0.7945096249908208
1761508083599861800,3.51986181640625,1.0407637286797164,-2.7112667913883923,0.8982631371930241
1761508083609832700,3.529832763671875,1.13510789976269,-2.9362323155939576,0.8172405122369527
1761508083619804000,3.539803955078125,1.209221475982666,-3.106030663850903,0.6896423063278198
1761508083629776000,3.54977587890625,1.3648282172799109,-3.2699919765174386,0.7185361001178622
1761508083639746800,3.559746826171875,1.4975930121719836,-3.319009397664666,0.776034641623497
1761508083649718800,3.56971875,1.3908417794585226,-3.290120572310686,1.0084694787964223
1761508083659690000,3.57968994140625,0.9250345320016146,-3.1903362560003994,1.4938763297364115
1761508083669661700,3.58966162109375,0.26294600303173066,-2.989628974738717,1.668494060973823
1761508083679633000,3.5996328125,-0.2992413052499294,-2.6140140393823383,1.1627619226247072
1761508083689603800,3.609603759765625,-0.5690425810039043,-1.924796095946431,0.26663872006982564
1761508083699575800,3.619575927734375,-0.5535843151092529,-0.9286077143132686,-0.6354127034902572
1761508083709546800,3.629546630859375,-0.7253545479610561,0.26054654067456723,-1.407279704040289
1761508083719519000,3.63951904296875,-1.1127791635766624,1.7410294280916452,-2.1566011107832193
1761508083729490000,3.649489990234375,-1.572500369118154,3.624479368171096,-2.809040352398157
1761508083739462000,3.6594619140625,-2.1778078572019934,6.024854748526216,-3.26403979011476
1761508083749432800,3.669432861328125,-2.8174896163135768,9.001889614629745,-3.9127921599105
1761508083759404800,3.67940478515625,-3.6629639971271155,11.823796462863683,-4.954187756752968
1761508083769375700,3.689375732421875,-4.605291609235108,14.048015650367736,-6.212471662068366
1761508083779347000,3.699346923828125,-5.320663107842207,15.650512806081771,-7.184592354893684
1761508083789319000,3.70931884765625,-5.868180085736513,16.846181557530162,-7.42744132631421
1761508083799289900,3.719289794921875,-6.430318294179439,17.526290311837194,-6.688375356125831
1761508083809261800,3.72926171875,-6.838956378215551,16.827024437117576,-4.779440846177935
1761508083819233000,3.73923291015625,-6.949604618367553,14.193694871890544,-2.383835748964548
1761508083829204700,3.749204833984375,-6.5760442774534225,10.41223338241577,-0.675249623838067
1761508083839176000,3.759176025390625,-5.63586127615869,6.469720330241322,0.38587037191092965
1761508083849148000,3.76914794921875,-3.968537135747075,3.0509090806096792,0.8702794439852237
1761508083859118800,3.779118896484375,-1.763750962987542,0.12093348732292651,0.7914777099490166
1761508083869090800,3.7890908203125,0.492917372700572,-2.369838787794113,0.5374982727050781
1761508083879062000,3.79906201171875,2.419449498659372,-4.359740685379505,0.498874235278368
1761508083889033000,3.809032958984375,3.592663257193565,-5.9942024206310505,0.8122276525110006
1761508083899005000,3.8190048828125,4.2823879811078305,-7.214062195006012,1.203943535579741
1761508083908975900,3.828975830078125,4.58786818074733,-8.210842697313428,1.6982108615845442
1761508083918947800,3.83894775390625,4.571595091338455,-9.156573395863175,2.1357386477574707
1761508083928918800,3.848918701171875,4.61848222245872,-9.780877260839938,2.243772029235959
1761508083938891800,3.858891845703125,4.780259761345386,-10.116411530220509,2.26015413197726
1761508083948862500,3.868862548828125,4.947435944405198,-10.054645102137327,2.329206040893495
1761508083958833700,3.878833740234375,5.12158605813086,-9.70084569274783,2.5992875948935747
1761508083968805600,3.8888056640625,5.069426831826568,-9.287997297540306,3.085230744667351
1761508083978776600,3.898776611328125,4.759799741640687,-8.73579771478772,3.361322937259078
1761508083988748500,3.90874853515625,4.241411243075132,-8.25927267396152,3.3760648715779182
1761508083998719700,3.9187197265625,3.762000417679548,-7.8606462808519595,3.43691710742563
1761508084008691500,3.92869140625,3.407064113214612,-7.4982625829905265,3.5255350098162888
1761508084018662700,3.93866259765625,3.130686381679773,-7.224515199959278,3.6164334243595597
1761508084028634600,3.948634521484375,2.9061422977566718,-7.053347901436686,3.8127223046571013
1761508084038605600,3.95860546875,2.570774617114663,-7.027579253929853,3.9288323173463344
1761508084048577500,3.96857763671875,2.2946833013057706,-7.087450077524781,3.806180335667729
1761508084058548700,3.978548828125,2.281077385279536,-7.334874101775884,3.5821085454314945
1761508084068519700,3.988519775390625,2.338303539584577,-7.6174436736881725,3.4451682184204455
1761508084078491600,3.99849169921875,2.387836509038508,-7.665370376989245,3.3379525830656287
1761508084088462600,4.008462646484375,2.5497788830980657,-7.3825196500480175,3.005396160452068
1761508084098433500,4.01843359375,2.6474682729557153,-6.76405808135867,2.461715984241664
1761508084108405500,4.028405517578125,2.7439745905086395,-5.516048317298293,1.6755255670458078
1761508084118376400,4.03837646484375,2.733703956384957,-3.4852462540477513,0.7139104861438273
1761508084128348700,4.0483486328125,2.495981826458871,-0.684936320593953,-0.48201983885020017
1761508084138319600,4.058319580078125,1.7522838125556706,2.501260351383686,-1.7118679232761262
1761508084148291600,4.06829150390625,0.37736031771898265,5.558238522773981,-2.459202540116012
1761508084158262500,4.078262451171875,-1.5108566906318068,8.082476429641247,-2.9418165454670784
1761508084168233700,4.088233642578125,-3.4386484612628814,10.913820968306064,-3.577018236555159
1761508084178205400,4.098205322265625,-5.176708225893974,13.065384084922075,-3.8405803256586193
1761508084188176600,4.1081767578125,-5.873978542882203,13.600475296485424,-3.515086973299086
1761508084198148600,4.118148681640625,-5.294682278889417,13.125455399525165,-3.029756402465701
1761508084208119600,4.12811962890625,-4.068904220381379,12.0528226606369,-2.760801514407992
1761508084218091500,4.138091552734375,-3.078745766562223,10.346888511323929,-2.617595405000448
1761508084228062700,4.148062744140625,-2.4010931732356546,8.751380483844876,-2.407495733754337
1761508084238034400,4.158034423828125,-2.211922600510716,7.526989495781064,-2.420838907191157
1761508084248005600,4.168005615234375,-2.6177719306111333,6.586629384353756,-2.464163377393782
1761508084257976600,4.1779765625,-3.292210822588205,5.678651785615086,-2.0737422103106975
1761508084267948500,4.187948486328125,-3.6371658312648534,4.595491807493567,-1.4426330492332577
1761508084277919500,4.19791943359375,-3.3205490283221004,3.2108921372950077,-0.7447516146093607
1761508084287891700,4.2078916015625,-2.3467542648047206,1.7680951296716927,-0.13702332911938428
1761508084297862700,4.217862548828125,-1.166979248058796,0.34916298176050187,0.01921761842817068
1761508084307834600,4.227834716796875,0.0765098237067461,-1.1925970889180897,-0.26463965520709753
1761508084317805600,4.2378056640625,1.3522621656954288,-2.7751263923585414,-0.7818237464189529
1761508084327777500,4.247777587890625,2.545652450817823,-4.172738104343414,-1.1943453938901423
1761508084337748500,4.25774853515625,3.3624162854537367,-5.40340744202435,-1.1755699662715196
1761508084347719700,4.2677197265625,3.8257811081945894,-6.202230838561058,-0.8428446168318391
1761508084357691600,4.277691650390625,3.974409827172756,-6.400967696532606,-0.38484424373358483
1761508084367662600,4.28766259765625,3.7150872753351925,-6.167420221942663,0.231051858381927
1761508084377634600,4.297634521484375,3.02990720911324,-5.705493615311384,0.8432128656223415
1761508084387605800,4.307605712890625,1.9584937828868627,-5.135450332832336,1.30684715295434
1761508084397577500,4.317577392578125,0.9670184012502431,-4.5547582305669785,1.6913047354578972
1761508084407548700,4.327548583984375,0.279851545125246,-4.305612789350747,1.8698244425699113
1761508084417520600,4.337520751953125,-0.06942249579429625,-4.157855007988214,1.6787579730957745
1761508084427491600,4.34749169921875,0.018905776000022887,-4.078669243070483,1.2771002494663
1761508084437462500,4.357462646484375,0.2991203092187643,-3.8809254877895114,0.800247876381874
1761508084447434800,4.367434814453125,0.7514730318188667,-3.2227520864367483,0.3851438112020492
1761508084457405400,4.377405517578125,1.17043114207834,-2.1606606153070924,0.06967150211930274
1761508084467377700,4.387377685546875,1.2885001798808573,-0.9648083239853381,-0.2019189951390028
1761508084477348600,4.3973486328125,0.9372384722754359,0.02461947747170925,-0.40826603585332627
1761508084487321600,4.407321533203125,0.3163414931327104,0.8197504492312669,-0.3888768602505326
1761508084497292500,4.41729248046875,-0.4304109399050474,1.014108069205284,-0.0657347471922636
1761508084507264500,4.427264404296875,-1.287719258636236,0.5381763180971145,0.43286914671212434
1761508084517235500,4.4372353515625,-1.8675635119006038,-0.3212888864070177,0.6601414865553379
1761508084527207700,4.447207763671875,-1.9464932562306523,-1.3676596413135527,0.7784057546690106
1761508084537178600,4.4571787109375,-1.3437380829781294,-2.3601135125935078,0.943480289274454
1761508084547150600,4.467150634765625,-0.38875995587259526,-3.4020904164552688,0.9306088250026107
1761508084557121500,4.47712158203125,0.6772080644294619,-4.287003950470686,0.6626178135409951
1761508084567093500,4.487093505859375,1.6203922933667898,-4.8461739567577835,0.37814094670265913
1761508084577064400,4.497064453125,2.3138676019862294,-4.699059733995795,0.18690993431657552
1761508084587035600,4.50703564453125,2.6645091318666934,-3.6391181343764063,-0.13804653468728065
1761508084597007600,4.517007568359375,2.653420751619339,-1.6611282083809376,-0.8085036635518074
1761508084606978600,4.526978515625,2.0284277353346347,1.0301362439423798,-2.1268813875630497
1761508084616950500,4.536950439453125,1.179793721446395,4.195171469947695,-3.672909344819188
1761508084626921700,4.546921630859375,0.4103670997858047,7.468279532659054,-4.919690443867445
1761508084636893400,4.5568935546875,-0.3730541449576616,10.39660677421689,-5.554686967772245
1761508084646864600,4.56686474609375,-0.9994114353328942,12.965156116497516,-5.738431423795223
1761508084656836600,4.576836669921875,-1.9013947620928286,15.234036283504961,-5.581117878580093
1761508084666807600,4.5868076171875,-3.2865187484264373,16.657333056366443,-5.179321623262763
1761508084676778500,4.596778564453125,-4.316553285560012,17.459184860813618,-5.305210102644563
1761508084686750700,4.606750732421875,-4.4160237136155365,18.14781009905338,-6.019008945107459
1761508084696721700,4.6167216796875,-4.079268378007412,18.129233993399144,-6.106016197431087
1761508084706693600,4.626693603515625,-3.8754835889965293,16.808076575541495,-5.082134922230243
1761508084716664600,4.63666455078125,-3.890482420685887,14.4731547873497,-3.4665362928807735
1761508084726636500,4.646636474609375,-3.82596698615551,11.366467705416678,-1.7746490813598035
1761508084736607500,4.656607421875,-3.394667572978139,8.150214333349465,-0.597288724540174
1761508084746578700,4.66657861328125,-2.4869734673559662,5.0064866837888955,-0.10374299080818891
1761508084756550700,4.676550537109375,-1.6171420593991874,1.7983078971058128,0.11147416958212852
1761508084766521600,4.686521484375,-0.8875289772108197,-0.9998977575451135,0.46216158443093297
1761508084776493600,4.69649365234375,-0.594653407600522,-3.440923128196597,1.028209659793973
1761508084786464800,4.70646484375,-1.0368237588822842,-5.718828313180804,1.8255264511600136
1761508084796436500,4.7164365234375,-1.65686207536906,-7.781614829713106,2.6467157010227442
1761508084806407700,4.72640771484375,-2.1597546063780784,-9.488115965259075,3.4167826664134857
1761508084816379600,4.736379638671875,-2.4063968326017258,-10.347601628029345,3.7925595143333077
1761508084826350600,4.7463505859375,-1.9323802674651145,-10.549712930870056,3.464233276635408
1761508084836322600,4.756322509765625,-0.9793781166076659,-10.370288091611862,2.941983134205639
1761508084846293800,4.766293701171875,0.16835808632075785,-10.191275924807787,2.7864988502442833
1761508084856264700,4.7762646484375,1.3962076904058456,-9.957343250292539,2.7963024513781067
1761508084866236700,4.786236572265625,2.3574670897379515,-9.450985381260514,2.8647192772611976
1761508084876207600,4.79620751953125,3.037918958394229,-8.530192724612355,3.15207491440624
1761508084886179600,4.8061796875,3.2893574789837,-7.684536265230179,3.689949619208276
1761508084896150500,4.816150634765625,3.1205154085382816,-6.856984202337265,4.3204435709968205
1761508084906122800,4.826122802734375,2.686655204962194,-6.203920691344142,4.767758007168769
1761508084916093700,4.83609375,2.6258558683454987,-5.778495138636231,4.842000178204477
1761508084926065700,4.846065673828125,2.9214222844749687,-6.0721297099202864,4.86318997348845
1761508084936036900,4.856036865234375,3.3050545220702885,-6.916225495857,4.833530456022918
1761508084946007800,4.8660078125,3.74839187130481,-7.7718731878995895,4.472881619130074
1761508084955979800,4.875979736328125,4.2073780405700205,-8.52623025072217,3.9246722750574348
1761508084965950700,4.88595068359375,4.618626599365473,-9.131849873495101,3.412192416013777
1761508084975923000,4.8959228515625,4.802171733424067,-9.266913008457422,2.8849393507301806
1761508084985893600,4.9058935546875,4.777882218559086,-8.83166164278388,2.400139525772631
1761508084995865900,4.915865966796875,4.715635605743527,-8.423062721714377,2.252689202924073
1761508085005836800,4.9258369140625,4.538953050930798,-8.244328202807903,2.2046385809823867
1761508085015808800,4.935808837890625,4.298277624157071,-8.028409323889017,2.0993393006429075
1761508085025779700,4.94577978515625,4.067369265899062,-7.8332269435286515,2.023163823457062
1761508085035751000,4.9557509765625,3.8405297645151615,-7.539270885205268,1.9336247145682572
1761508085045722600,4.96572265625,3.715882225105166,-6.917875601151585,1.6739616787299514
1761508085055693800,4.97569384765625,3.673337799364328,-5.951804125362634,1.1994807109519838
1761508085065665800,4.985665771484375,3.608516075363755,-4.00493356025219,0.23581308143436908
1761508085075636700,4.99563671875,3.186582456424832,-0.8785247097611427,-1.2222583599492907
1761508085085608700,5.005608642578125,1.5833885506182908,2.7595816172242165,-2.4477543866455553
1761508085095580000,5.015579833984375,-0.5562836371958255,5.698400442180037,-2.860322503606975
1761508085105551600,5.025551513671875,-2.3529282772645352,8.638948867407441,-3.4420220293492076
1761508085115522800,5.035522705078125,-4.217143940041959,11.989663901412486,-4.110617455995083
1761508085125493800,5.04549365234375,-6.344242769747972,15.18319924571514,-4.406324157378077
1761508085135466000,5.055466064453125,-8.00152833122611,17.695563174915314,-4.404608293370902
1761508085145436700,5.065436767578125,-8.867844716799258,18.033103523421286,-3.508273201631009
1761508085155409000,5.075408935546875,-8.696358853846787,16.46095123708844,-2.5236300041019915
1761508085165379800,5.0853798828125,-7.418740133464336,14.101885187721251,-2.2562521561026574
1761508085175351800,5.095351806640625,-5.800279684942961,11.48690493365526,-2.3543901665106413
1761508085185322800,5.10532275390625,-4.451723388028144,9.355514836496114,-2.637984405295551
1761508085195295000,5.115294921875,-3.488669214233756,7.708958174303174,-3.24018662084043
1761508085205265700,5.125265625,-2.9224466590866447,6.4466948439627885,-3.4715278175577517
1761508085215236600,5.135236572265625,-2.635043383407593,5.480142891180515,-3.0633403998985886
1761508085225208800,5.145208740234375,-2.4132810391575097,4.70222082837522,-2.3500369397372007
1761508085235179800,5.1551796875,-1.9122844048976897,3.733544138523936,-1.5685732588022947
1761508085245151700,5.16515185546875,-1.1074193901091813,2.306805700775981,-1.044757766751945
1761508085255122700,5.175122802734375,-0.0012137597039341926,0.5968038636326789,-0.8610036661177873
1761508085265094700,5.1850947265625,0.9709475573927163,-1.0236650021016598,-0.7605608858987689
1761508085275065600,5.195065673828125,2.041180249401927,-2.47005097412765,-0.4696493098378181
1761508085285037800,5.205037841796875,2.820734297323227,-3.729674019092321,0.032304479016363616
1761508085295008800,5.2150087890625,3.1204069797277447,-4.60910123065114,0.6352446534469723
1761508085304979700,5.224979736328125,3.089294925366342,-5.011721077311039,1.181449671959877
1761508085314951700,5.23495166015625,2.5600965712338684,-5.074264919507503,1.7002388602808116
1761508085324923000,5.2449228515625,1.736307368005812,-4.910484224104881,2.15709415499717
1761508085334894600,5.25489453125,1.045369176648557,-4.686917460781336,2.633317874789238
1761508085344865800,5.26486572265625,0.3999544268429279,-4.642270509803295,2.8919699800193306
1761508085354837800,5.274837646484375,-0.03733955057412386,-4.700101352003217,2.7236209537878633
1761508085364808700,5.28480859375,-0.2688239551544189,-4.942853877311944,2.433889235161245
1761508085374780700,5.29478076171875,-0.2543427175983786,-5.178574019765853,2.212868356928229
1761508085384751900,5.304751953125,-0.07112345449328422,-5.430022477227449,1.85638043910712
1761508085394722800,5.314722900390625,0.09352584043741226,-5.639401725244522,1.5283341873943805
1761508085404694800,5.32469482421875,0.1921256231382489,-5.759975147083401,1.3282602356001734
1761508085414665700,5.334665771484375,0.47297114773690696,-5.640322931742668,1.1169067649006843
1761508085424637700,5.3446376953125,0.8515262281984091,-5.412474545577168,1.02826138998121
1761508085434608600,5.354608642578125,1.1865171844825149,-5.1564019354462625,0.9766840552181005
1761508085444580900,5.364580810546875,1.4271666000321506,-4.80358393830955,0.8756962083369493
1761508085454551800,5.3745517578125,1.4917700051069258,-4.5597424487203355,0.8572080732271075
1761508085464523800,5.384523681640625,1.4385375966131686,-4.375443281424046,0.8220362220808863
1761508085474494700,5.39449462890625,1.2780506820589304,-4.196736819568276,0.8979162234514951
1761508085484466000,5.4044658203125,1.1468488986998795,-4.09219624864161,1.0446408623740076
1761508085494437600,5.414437744140625,0.9680947983101009,-4.048340740302205,1.0797890403836965
1761508085504408800,5.424408935546875,0.8340776652693748,-3.836010825785994,0.9242603327587247
1761508085514380800,5.434380859375,0.8407780396908521,-3.4487054526358842,0.6028460664063692
1761508085524351700,5.444351806640625,1.056826097947359,-2.8845091426193714,0.23480419665277003
1761508085534323700,5.45432373046875,1.2790589823186396,-2.09417768009603,-0.28723464111387725
1761508085544295000,5.464294921875,1.4845973369985819,-0.9951964479863643,-1.104422838641703
1761508085554266600,5.4742666015625,1.6601006188988685,0.44901276452243327,-2.0617238557368514
1761508085564237800,5.48423779296875,1.4297539861768482,2.1847119375020263,-3.0103540751203894
1761508085574208800,5.494208740234375,0.66000704652071,4.517932766994834,-3.9929660590827463
1761508085584180700,5.5041806640625,-0.48723231280148027,7.566877269533276,-4.983363582354784
1761508085594151700,5.514151611328125,-1.80396431543231,10.90994675722122,-5.792290439754725
1761508085604124000,5.5241240234375,-3.0234035263076424,14.002150555771589,-6.125044138506055
1761508085614094800,5.5340947265625,-4.003919999295473,16.001197882843016,-5.847731171947717
1761508085624066800,5.54406689453125,-4.034420351499318,16.950753692638873,-5.551036044049263
1761508085634037800,5.554037841796875,-3.418203346866369,17.17276796582341,-5.308334372144937
1761508085644009700,5.564009765625,-2.760598685312271,16.881815180969237,-5.0666725646823645
1761508085653980700,5.573980712890625,-2.258985964980721,16.216049424791336,-4.724941778749227
1761508085663952000,5.583951904296875,-2.1844708222225306,15.713115100467204,-4.305854196891189
1761508085673923800,5.593923828125,-2.6526217101961374,14.813693733149766,-3.6928918101400137
1761508085683894800,5.603894775390625,-3.7479502650171517,13.138686637020111,-2.464099956768751
1761508085693866800,5.61386669921875,-4.951904614251852,11.139725819188357,-1.359115684852004
1761508085703838000,5.623837890625,-5.836085157817601,8.621627730250358,-0.5300909190580249
1761508085713809700,5.6338095703125,-6.071327745887637,5.792845151028037,-0.134921972925961
1761508085723780900,5.64378076171875,-5.569754188522696,3.082940295642614,-0.09844371535629033
1761508085733752800,5.6537529296875,-4.790667758113146,0.45355216151773925,0.057223816217482085
1761508085743723800,5.663723876953125,-3.735138421978056,-2.0263164422690867,0.32000060016214843
1761508085753694700,5.67369482421875,-2.4198460967615247,-4.2948903198063375,0.7082803713023662
1761508085763667000,5.6836669921875,-1.2426444376349448,-6.474530360871553,1.288014149929583
1761508085773638000,5.693637939453125,-0.29444647218883035,-8.35052823137939,2.031874953179061
1761508085783609900,5.70360986328125,0.4352493198469281,-9.808407072800398,2.751417892251909
1761508085793580800,5.713580810546875,1.0602627943977714,-10.779822832226753,3.291872092153132
1761508085803552800,5.723552734375,1.7741732805415986,-11.240470504963398,3.630735505956411
1761508085813523700,5.733523681640625,2.725116160781681,-11.122577115988731,3.817036952985823
1761508085823496000,5.743495849609375,3.897700389240682,-10.7311695682168,3.9680899765014646
1761508085833467000,5.753466796875,4.897525081549585,-10.446727188169955,3.949675491149723
1761508085843437600,5.7634375,5.619322229290008,-10.264462741571664,3.573771509718895
1761508085853409800,5.773409912109375,6.138478789618611,-10.06597664349079,2.941852493563294
1761508085863380700,5.783380615234375,6.121281571102142,-9.878819748675822,2.3423013770490884
1761508085873352700,5.793352783203125,5.509139268562198,-9.555100420251488,1.9252204588383435
1761508085883323600,5.80332373046875,4.586935576072335,-8.907632537308334,1.6543568145498633
1761508085893295900,5.8132958984375,3.8870179594457146,-8.190947325754165,1.8437310931533575
1761508085903266600,5.8232666015625,3.4328087953239677,-7.5740440924227235,2.4178455705940722
1761508085913238800,5.83323876953125,3.133253017297387,-7.1375535403430455,3.1509283747196197
1761508085923209700,5.843209716796875,2.8795547350823876,-6.896649857771396,3.813672444988787
1761508085933180200,5.85318017578125,2.6657155850470065,-6.764449711024761,4.2982127422273155
1761508085943152000,5.863152099609375,2.5088462764680384,-6.833058552348613,4.504362214542925
1761508085953123000,5.873123046875,2.3935090017169713,-7.064920850330591,4.335502316179872
1761508085963095300,5.88309521484375,2.359489827737212,-7.280172789773345,4.02928094278425
1761508085973066000,5.89306591796875,2.377511222118139,-7.513974531385302,3.820729377762973
1761508085983038200,5.9030380859375,2.44278536606133,-7.663022937080264,3.517640164913237
1761508085993009200,5.913009033203125,2.507137134462595,-7.816838118785619,3.1714941928863523
1761508086002981000,5.922981201171875,2.5506840152442454,-7.844006111696362,2.5665955778643488
1761508086012952000,5.9329521484375,2.5719962678641077,-7.584984588631987,1.6576587787047028
1761508086022923000,5.942923095703125,2.7494728956639767,-6.435496573600172,0.15568009879440067
1761508086032895000,5.95289501953125,2.949588640773296,-3.686829733622074,-1.984603206655383
1761508086042866000,5.962865966796875,2.8285896869987246,0.2899725416451692,-3.857963129875064
1761508086052838100,5.972838134765625,2.0839871254712343,4.609804410484433,-4.851749711063504
1761508086062809000,5.98280908203125,0.31569618096649643,8.327517358148098,-5.085965294173359
1761508086072781000,5.992781005859375,-1.6182494361191988,12.17321078903675,-4.964967509442568
1761508086082752000,6.002751953125,-3.924620837131142,15.784863993382453,-4.106233541822434
1761508086092724000,6.012723876953125,-6.896010390824079,16.72718576027155,-1.8077803665891288
1761508086102695000,6.02269482421875,-8.818593486896157,14.67647721954584,0.2972536385640502
1761508086112666000,6.032666015625,-8.237758761289715,12.242974645614623,-0.1559305664241314
1761508086122638000,6.04263818359375,-5.764045757523179,11.21349949592948,-2.2470555809512733
1761508086132609000,6.052609130859375,-3.4128181466966865,10.603311250066756,-3.5610754020139574
1761508086142581000,6.0625810546875,-2.5651076773941517,10.091941105830669,-4.4545752703279256
1761508086152552200,6.07255224609375,-2.8114620265871286,10.37911320310235,-4.764208497993648
1761508086162524000,6.08252392578125,-3.714012339580059,10.976897894465923,-4.219551001183689
1761508086172495000,6.0924951171875,-4.544131330351531,10.801239714264868,-3.1829578361868855
1761508086182467000,6.102467041015625,-4.672385662081838,9.656358316245674,-1.589132354967296
1761508086192438000,6.11243798828125,-3.743908880671859,7.603685781970619,-0.12678951987475157
1761508086202409000,6.122408935546875,-2.314382858031988,4.86745990589261,0.5407642887637019
1761508086212381200,6.132381103515625,-0.3204617879331112,1.8981629405647515,0.668088061645627
1761508086222352100,6.14235205078125,2.1575123804092406,-1.141001341715455,0.3684402214214206
1761508086232324000,6.152323974609375,4.118862721771001,-4.069339104667305,-0.1551616278782487
1761508086242295000,6.162294921875,5.339861144787073,-6.340975876906514,-0.5199009489551186
1761508086252267000,6.17226708984375,5.7498015435934064,-7.771239566171169,-0.5501356359601021
1761508086262238000,6.182238037109375,5.515747288525104,-8.398203005746007,-0.35689737540483474
1761508086272210200,6.192210205078125,4.743756953856349,-8.24377524510026,-0.049902679549157614
1761508086282181000,6.20218115234375,3.661894614329934,-7.703800353148579,0.5538935271888971
1761508086292152000,6.212152099609375,2.5361253285378216,-7.123588143354654,1.2247574832886456
1761508086302124000,6.2221240234375,1.5102747990906238,-6.731331285277008,1.9952125712141393
1761508086312095200,6.23209521484375,1.0277490565449,-6.235146435213089,2.4886840706661344
1761508086322067000,6.24206689453125,0.8042243787974118,-5.754523895940184,2.736319691841304
1761508086332038100,6.2520380859375,0.6069193071946501,-5.020136438956857,2.56778683347553
1761508086342010000,6.262010009765625,0.3633849838584661,-3.685389471685886,1.9587439582556485
1761508086351981000,6.27198095703125,-0.13626725005507467,-2.4848773718595503,1.5664514443427324
1761508086361953000,6.281953125,-0.9552233340382575,-1.3238842124730348,1.2392244000583887
1761508086371924200,6.29192431640625,-1.6287363433420656,-0.08004910374879837,0.7603045730501413
1761508086381895200,6.301895263671875,-2.038757406169176,0.9044535162657499,0.3994590445414185
1761508086391867100,6.3118671875,-2.23494808678925,1.5324766940265893,0.1736807426482439
1761508086401838000,6.321838134765625,-2.0914947246223687,1.4510796828001737,0.134735510443151
1761508086411810000,6.33181005859375,-1.7189046900451181,0.5923007069945335,0.20052812530249356
1761508086421781000,6.341781005859375,-1.1974427753835917,-0.6752326727032661,0.3432856141597032
1761508086431753200,6.351753173828125,-0.4679845914959907,-1.934640029090643,0.6739414638489485
1761508086441724200,6.36172412109375,0.4167255289018154,-3.2523832545906304,0.8422995501697063
1761508086451695000,6.371695068359375,1.3857792353719471,-4.389019386833906,0.853035171456635
1761508086461667000,6.3816669921875,2.475246789205074,-5.152181687402725,0.7848755352050065
1761508086471638300,6.39163818359375,3.4483915643811223,-5.672570419874787,0.7381760356113314
1761508086481610000,6.40160986328125,4.0104339112341405,-5.625508808970451,0.6755930304482579
1761508086491581200,6.411581298828125,3.993903047671914,-4.502932766261696,0.29792700778096914
1761508086501553200,6.42155322265625,3.187868404582143,-2.645296481874585,-0.40383711349517104
1761508086511524000,6.431524169921875,1.9489082084178924,-0.3522118479371071,-1.3638155331060289
1761508086521496000,6.44149609375,0.5065121828109026,2.423179917359352,-2.700784268079698
1761508086531467300,6.45146728515625,-0.6667600279122591,5.150432213386893,-4.08256362016052
1761508086541439000,6.46143896484375,-1.046794241015613,7.651434206095337,-5.6182695053666825
1761508086551410200,6.47141015625,-0.681473320658505,9.555814121478795,-6.6415493075430385
1761508086561381000,6.481381103515625,-0.1671095475643873,11.016023451673984,-6.7313423911929124
1761508086571353000,6.49135302734375,-0.2318120290994644,12.381560109484194,-6.227986042064428
1761508086581324000,6.501323974609375,-0.9882321619316935,14.164538920032978,-5.536166976219415
1761508086591296300,6.511296142578125,-2.3456764064401385,15.621300740122795,-4.403324098779261
1761508086601267200,6.52126708984375,-3.9066196087554097,15.804279472470283,-2.9342914106592533
1761508086611239200,6.5312392578125,-4.887856797233224,14.913143118417262,-1.8556673224017024
1761508086621210000,6.541210205078125,-5.056794144746661,13.137230008471011,-1.4743702497556805
1761508086631181000,6.55118115234375,-5.048487504172325,11.021537831181288,-1.658357574623823
1761508086641153000,6.561153076171875,-5.117607217627763,9.268734963187574,-2.088725844430923
1761508086651124000,6.5711240234375,-4.934069682353734,7.791645225340128,-2.4208424143224954
1761508086661096200,6.58109619140625,-4.515244550824165,5.975770691883564,-2.5395351369813084
1761508086671067000,6.59106689453125,-4.002929234692454,3.6911598717808722,-2.4592519322156905
1761508086681039000,6.6010390625,-3.242451058641076,1.3141490004003047,-2.140010041466355
1761508086691010000,6.611010009765625,-2.3095018079921603,-0.8875555729568004,-1.5990838401392102
1761508086700982000,6.62098193359375,-1.2086270172208546,-2.6884394580304622,-0.7021551664203405
1761508086710953000,6.630952880859375,-0.28812428342998025,-4.438029209196567,0.8515233055889606
1761508086720924200,6.640924072265625,0.12217676538228987,-6.256926305344701,2.8132994711473582
1761508086730896000,6.650895751953125,0.05589958187639713,-8.064144069615006,4.513871801166236
1761508086740867000,6.6608671875,-0.0778735132753849,-9.55274538155794,5.324010080182552
1761508086750839000,6.670839111328125,0.18231296191513538,-10.381833567976951,5.093475815933942
1761508086760810200,6.680810302734375,0.9411606141552329,-10.748194352775812,4.457837779255211
1761508086770782000,6.690781982421875,1.6910437464341521,-10.963744982904196,3.912062384331226
1761508086780753200,6.700753173828125,2.1077260207161306,-10.9669808960855,3.4469147698268294
1761508086790725000,6.71072509765625,2.2961440215080975,-10.535625953328609,3.005753595587611
1761508086800696000,6.720696044921875,2.4389769136890767,-9.62699135198593,2.539695880500972
1761508086810667000,6.7306669921875,2.6068238356173037,-8.579180919665097,2.262361871154606
1761508086820639200,6.74063916015625,2.6319445406094193,-7.965227183789015,2.2237088998943566
1761508086830610000,6.75060986328125,2.3591826614841818,-7.780497808381915,2.369238483813405
1761508086840582100,6.76058203125,2.055909616500139,-7.830795916989445,2.661497090569138
1761508086850553000,6.770552978515625,1.7471140087023376,-8.03836022453904,3.1368443197876212
1761508086860525000,6.780525146484375,1.3486200098007917,-8.057250802969932,3.6220416196301577
1761508086870496000,6.79049609375,0.9066770375341177,-8.048260271784663,3.9018054864719507
1761508086880468200,6.80046826171875,0.6468982663616538,-8.058265532970427,3.9186782953396437
1761508086890439000,6.81043896484375,0.6364411697551607,-8.150421838620305,3.686438396216929
1761508086900410000,6.82041015625,0.955990811279416,-8.102205212461948,3.2603377207264304
1761508086910382000,6.830382080078125,1.3568354649603367,-7.812465895050764,2.7857521235302087
1761508086920353300,6.840353271484375,1.6947396783426403,-7.56133132584393,2.431932255874574
1761508086930325000,6.850324951171875,1.8301611252233385,-7.371916422969102,2.0926853957116602
1761508086940295700,6.860295654296875,1.918613607919216,-6.865954275256395,1.573117624233663
1761508086950268000,6.870267822265625,2.1271897228598595,-5.623898451164364,0.5997267653420567
1761508086960238600,6.880238525390625,2.1953578346788882,-3.6431647794187065,-0.3117719932600856
1761508086970210800,6.8902109375,1.7453519674658775,-1.1293290241003036,-0.7029682363688945
1761508086980181800,6.900181640625,0.7141109771519899,2.344770982033014,-1.3534803093135357
1761508086990153000,6.910153076171875,-1.1106938817352057,5.928209899285435,-1.9909522834211586
1761508087000124700,6.920124755859375,-2.765491133528948,9.560397942137717,-2.7244299320831895
1761508087010095900,6.930095947265625,-4.304322749540209,13.39764386267662,-3.4971433203294873
1761508087020067600,6.940067626953125,-6.160474348327517,15.973655211400985,-3.1586200982660055
1761508087030038800,6.950038818359375,-7.773860562324524,15.8486727409482,-1.8260148191988468
1761508087040010800,6.9600107421875,-7.66759798991084,14.03521228289604,-1.0690443590074776
1761508087049982000,6.96998193359375,-5.652362913626432,11.327875232172012,-1.1586427968680857
1761508087059953700,6.97995361328125,-2.8792753336191175,8.568346221917867,-1.6090788721919058
1761508087069924900,6.9899248046875,-0.3028241321727633,6.263309868901968,-2.313159453716874
1761508087079895800,6.999895751953125,1.3109636483624576,4.749731352090835,-2.9578236774161457
1761508087089867800,7.00986767578125,1.9077642971247433,4.32045496917367,-3.4363939603343603
1761508087099838700,7.019838623046875,1.6104244415819644,4.640438618201017,-3.3239354558899996
1761508087109811000,7.02981103515625,0.3910767083823681,4.957752171236276,-2.755039005358517
1761508087119781600,7.03978173828125,-0.8789870665758848,4.959821963247657,-2.363260870708525
1761508087129753900,7.04975390625,-1.7878408636271952,4.535920259106159,-1.6364759976834058
1761508087139724800,7.059724853515625,-2.165238590747118,3.671723349905014,-0.8558931912362575
1761508087149695700,7.06969580078125,-1.6897259418338537,2.3228858979612586,-0.3631307168364525
1761508087159667700,7.079667724609375,-0.6287567527323961,0.7993868756383657,-0.046477965797483915
1761508087169638700,7.089638671875,0.5169727865487337,-0.6377279946953058,0.06996522436887026
1761508087179610600,7.099610595703125,1.60797061868906,-2.057766058021784,0.034387715031206606
1761508087189581600,7.10958154296875,2.5734160715341567,-3.3252164356112477,0.06268412744998932
1761508087199553800,7.1195537109375,3.1667198180913925,-4.194807897332311,0.3445902670174837
1761508087209524700,7.129524658203125,3.3503368483424185,-4.514163769850135,0.7449868846699595
1761508087219496700,7.13949658203125,3.1704531594008207,-4.486164586812258,1.2842945448845624
1761508087229467600,7.149467529296875,2.791660178530216,-4.313247814273834,1.7138292864769695
1761508087239438800,7.15943896484375,2.143723509031534,-3.9869513288378715,1.8510928540930152
1761508087249410600,7.16941064453125,1.2937486019283533,-3.5549054812073706,1.7960253391265868
1761508087259381800,7.1793818359375,0.6510135927259921,-3.1512755807220936,1.6012074081644414
1761508087269353700,7.189353759765625,0.3741039462715387,-2.508110947930813,1.214863281261921
1761508087279324700,7.19932470703125,0.30843291196525097,-1.9212030398905275,0.8188347956910729
1761508087289296600,7.209296630859375,0.40689270167350766,-1.5481296057105063,0.4380754831835627
1761508087299267800,7.219267822265625,0.44958325788676734,-1.2207669523477553,-0.011530571056902408
1761508087309239600,7.229239501953125,0.38112230060100555,-0.9062094200223684,-0.43543928946107624
1761508087319210800,7.239210693359375,0.24190438404679296,-0.5042746330171823,-0.678735420127213
1761508087329181700,7.249181640625,0.025915947023034094,-0.05805296051800251,-0.7143950547903776
1761508087339153700,7.259153564453125,-0.4201455664783716,0.27235797449946403,-0.4710194291472435
1761508087349124600,7.26912451171875,-1.1481541360795497,0.32744156381785866,-0.06982026294022799
1761508087359096800,7.279096923828125,-1.8640449823856353,-0.09786065477132797,0.30211802973002194
1761508087369067800,7.28906787109375,-2.1077783354252575,-0.8945978926837443,0.5717582697033882
1761508087379039700,7.299039794921875,-1.6208371145248412,-1.9431816474646328,0.8912380608618259
1761508087389010700,7.3090107421875,-0.5338876809924841,-2.87561564206779,1.0954483818084
1761508087398982700,7.318982666015625,0.6820937906444072,-3.925391821503639,0.9496098780706524
1761508087408953600,7.32895361328125,1.91174313762784,-4.912278121784329,0.6857187031432986
1761508087418924800,7.3389248046875,3.0506232494056222,-5.506901718768477,0.43711686728447674
1761508087428896800,7.348896728515625,3.8515421569168566,-5.71823853059411,0.2764899597376585
1761508087438867700,7.35886767578125,4.118702562773228,-5.399207652246952,0.28681407761424776
1761508087448839700,7.368839599609375,3.8342870707333088,-4.620295993882418,0.28573972638100387
1761508087458811000,7.378810791015625,2.829113418611884,-3.6991415181845424,0.056338265554606914
1761508087468782600,7.388782470703125,1.564831149664521,-2.7432693648487327,-0.2897773113340139
1761508087478753800,7.39875390625,0.44565760887563227,-1.8414315840393303,-0.48277387208789585
1761508087488725800,7.408725830078125,-0.4464624955177307,-0.9548410567224025,-0.4546764893725514
1761508087498696700,7.41869677734375,-0.9860112710118293,-0.10851590429842471,-0.33270985960960386
1761508087508667600,7.428667724609375,-1.2299357627093792,0.5930553247541189,-0.3732897072792053
1761508087518639900,7.438639892578125,-1.2084615975260733,1.1904355269700289,-0.8428332186549902
1761508087528610800,7.44861083984375,-1.0483610519409179,1.7291390838116407,-1.5421148754656313
1761508087538582800,7.458582763671875,-0.8634919758021831,2.6032179200798273,-2.3258467935934664
1761508087548553700,7.4685537109375,-0.9000397914767265,4.401646228694916,-3.2213422196388244
1761508087558525700,7.478525634765625,-1.4662562091439961,6.881856193265318,-3.9745316999867555
1761508087568496600,7.48849658203125,-2.492414197105169,9.642573536521196,-4.539280675449967
1761508087578468900,7.49846875,-4.185341565328836,12.5906938583076,-4.812040216487646
1761508087588439800,7.508439697265625,-6.513015866610408,15.214620804417132,-5.110746099686622
1761508087598410500,7.518410400390625,-8.64792186293602,16.97388439285755,-5.826209660491347
1761508087608382700,7.5283828125,-9.766113991472125,17.341300824189187,-6.695766050899028
1761508087618353700,7.538353759765625,-9.677692780697345,16.347585554671287,-6.917807212090492
1761508087628325600,7.54832568359375,-8.397576398280263,14.682715237152575,-6.544421643221378
1761508087638296600,7.558296630859375,-6.750524646046757,12.39274084419012,-5.8298120688974855
1761508087648268800,7.568268798828125,-4.958632461202145,9.803004336974023,-4.955120653688907
1761508087658239500,7.578239501953125,-3.2711586822092533,6.808806154623627,-3.802195065423846
1761508087668210700,7.588210693359375,-1.6202923401236533,4.045130546084046,-2.7890160937622186
1761508087678183000,7.598182861328125,0.08536825294494628,1.808032003262639,-1.8934753672704099
1761508087688153900,7.60815380859375,1.7446061175346375,-0.19191665656268594,-0.7203069091826677
1761508087698125800,7.618125732421875,3.0606781949520108,-1.855701516932249,0.66460401892215
1761508087708096800,7.6280966796875,3.685162092670798,-3.2662101198911664,1.8962626599013803
1761508087718068700,7.63806884765625,3.6963714689493177,-4.556103215435147,3.0008240302309392
1761508087728039700,7.648039794921875,3.403657519641518,-5.924544362515211,3.9339582820579406
1761508087738012000,7.658011962890625,3.1572470563471318,-7.4567527609944335,4.482707139834761
1761508087747982800,7.66798291015625,3.1050925062179564,-8.845819347473979,4.6046936433419585
1761508087757953500,7.67795361328125,3.4881682789742943,-9.668072134914993,4.548561129492521
1761508087767925800,7.68792578125,4.094148551753163,-10.072109447157382,4.484637523375452
1761508087777896700,7.697896728515625,4.7619583809793,-10.138405919885635,4.368681239943206
1761508087787868700,7.70786865234375,5.367274636891484,-10.098003766870498,4.066460626621544
1761508087797839600,7.717839599609375,5.903394022458792,-9.81101287138462,3.552054183429479
1761508087807811800,7.727811767578125,5.997226152366399,-9.400652785861492,2.964172169660032
1761508087817782500,7.737782470703125,5.6331672147691245,-8.821792575198412,2.4572052288189528
1761508087827754800,7.747754638671875,5.168462960118055,-8.166377532643079,2.2851161392763255
1761508087837725700,7.7577255859375,4.60177249519825,-7.680099159565567,2.4223902282863854
1761508087847697000,7.76769677734375,4.0601790621340275,-7.385366271650791,2.729514980262518
1761508087857668600,7.777668701171875,3.634847032928467,-7.191264672264456,3.1883821993231773
1761508087867639800,7.787639892578125,3.4250282244503496,-6.9842954079985615,3.716212187711894
1761508087877611500,7.797611572265625,3.547437629544735,-6.856145413425565,4.180567190533877
1761508087887582700,7.807582763671875,3.817027308374643,-6.8582046840429305,4.472102451451122
1761508087897554700,7.8175546875,4.110150423005223,-6.93230160138905,4.710714808215201
1761508087907526000,7.82752587890625,4.281359222581982,-7.000884139227867,4.895325233417749
1761508087917497600,7.83749755859375,4.32200219861567,-6.947607891592383,4.985617498761415
1761508087927468800,7.84746875,4.264575845563411,-6.6343328002929685,5.023731833100318
1761508087937439700,7.857439697265625,4.028590330171585,-6.209446176767349,4.974745976135134
1761508087947411700,7.86741162109375,3.7722260436177253,-5.677783770608902,4.498723039612174
1761508087957382700,7.877382568359375,3.440419854849577,-4.776308977892994,3.4797017716631293
1761508087967355000,7.88735498046875,3.0704443866848945,-3.3591075992971655,2.123218188880384
1761508087977325600,7.89732568359375,2.5233020873218774,-1.406860017323494,0.9455109183192253
1761508087987297800,7.9072978515625,1.5914531991302967,0.7769213613301515,0.012561959931254385
1761508087997268700,7.917268798828125,0.1978220812141895,3.324528453347087,-0.9070277506679296
1761508088007240700,7.92724072265625,-1.7028221547722815,5.69882422055006,-1.4438067691877483
1761508088017211600,7.937211669921875,-3.543541791149974,8.388792203322053,-2.1894489028960464
1761508088027182800,7.947182861328125,-4.705835511741042,12.443142997694014,-4.0199128104582424
1761508088037154600,7.957154541015625,-5.545151077663898,18.00370207237005,-6.266219618868828
1761508088047125800,7.967125732421875,-7.939068660181761,19.624885223853585,-4.606962757317722
1761508088057097700,7.97709765625,-10.148981089913844,17.09090918230414,-1.3926637341886758
1761508088067069000,7.98706884765625,-10.328246939218044,13.899072458612919,-0.4195528612822294
1761508088077040600,7.99704052734375,-8.734442793047428,9.481955104541777,-0.5116194428220391
1761508088087010600,8.007010498046874,-5.301667315471172,6.1647699996948235,-1.1346075490251182
1761508088096981800,8.016981689453125,-1.7496254070013761,3.853740543743968,-2.100160553897917
1761508088106953700,8.02695361328125,0.9084785339981317,2.5145237375825644,-2.884438123209774
1761508088116924700,8.036924560546876,2.4998680202424524,2.0884271537452936,-2.97682911439836
1761508088126896600,8.046896728515625,2.8305916744709014,2.1841332608312367,-2.4756048088625073
1761508088136867800,8.056867919921874,2.0030261675745247,2.1682418642163275,-2.1270848011806605
1761508088146838800,8.0668388671875,0.6545359216332435,1.6190280192762612,-2.183166461625695
1761508088156810800,8.076810791015625,0.0173889416962862,0.6749117701858282,-2.224633613523841
1761508088166781700,8.08678173828125,0.35485797853171824,-0.3438572765678167,-1.8474258560180663
1761508088176753700,8.096753662109375,1.2197072141617535,-1.3760977993130683,-0.9889338804602622
1761508088186724600,8.106724609375,1.8504425734907388,-2.3600451235324145,-0.061828679664433
1761508088196696800,8.11669677734375,2.0565467453598973,-3.1796348292440175,0.7152551787510514
1761508088206667800,8.126667724609375,2.0972493426263332,-3.753848090884089,1.227078911973536
1761508088216639700,8.1366396484375,2.018611274719238,-4.094104712611436,1.438648948033154
1761508088226610700,8.146610595703125,1.785637216103077,-4.201443389824033,1.4752826884254813
1761508088236582000,8.156581787109374,1.4166121805310248,-4.141211916223168,1.46051415836066
1761508088246553600,8.1665537109375,1.04807755882442,-3.798977856943011,1.4155796226128936
1761508088256524800,8.17652490234375,0.67729545045197,-3.154050890654325,1.3281892161905764
1761508088266496800,8.186496826171876,0.1628618269920349,-2.374202243700623,1.03639325851053
1761508088276467700,8.1964677734375,-0.5588105253249407,-1.8299217635095117,0.5870081535443663
1761508088286439700,8.206439697265624,-1.1723977659761906,-1.5085206488996743,-0.033145898276567456
1761508088296411000,8.216410888671875,-1.6905968794494866,-1.1861813766568898,-0.788209355802834
1761508088306381800,8.2263818359375,-1.9815040715962646,-0.8440782502800226,-1.3828560414016247
1761508088316353800,8.236353759765626,-2.190137469682097,-0.6081143621981143,-1.7905732112005353
1761508088326324700,8.24632470703125,-2.262870112937689,-0.4095528607934713,-1.8571572686985134
1761508088336296700,8.256296630859374,-2.2049510079324244,-0.1536170287847519,-1.596607220892608
1761508088346267600,8.266267578125,-1.910743605196476,0.0972796400129795,-0.9667027594298123
1761508088356240000,8.276239990234375,-1.4902297899276018,0.0804004014045,-0.23865648816674948
1761508088366210800,8.2862109375,-1.122369706481695,-0.1530932971715927,0.2552443426132202
1761508088376182800,8.296182861328125,-0.7664163339287042,-0.45575405547618864,0.5724795697152614
1761508088386153700,8.30615380859375,-0.33081951581835745,-0.7379267370253801,0.799992440316081
1761508088396125000,8.316125,0.08293313475251197,-1.002860114482045,0.9587523849472402
1761508088406096600,8.3260966796875,0.4714882157027721,-1.2468062334895134,1.0951496911227703
1761508088416067800,8.33606787109375,0.805548320877552,-1.540451910689473,1.213243863366544
1761508088426039800,8.346039794921875,0.9937070862114429,-1.9005103804737329,1.3349194012284278
1761508088436010800,8.3560107421875,1.0007096584498882,-2.2833371469050645,1.4362658522889018
1761508088445982700,8.365982666015626,0.9220733441084623,-2.757476753899455,1.4650184840425848
1761508088455954000,8.375953857421875,0.8701666312605142,-3.3016543582379816,1.3792378509044647
1761508088465925600,8.385925537109374,0.9572323357731103,-3.799834181511402,1.3377768364861606
1761508088475896800,8.395896728515625,1.0795558161497116,-4.149876868715882,1.2626786331430078
1761508088485867800,8.40586767578125,1.2913567383557558,-4.243648208346963,1.1145204542860387
1761508088495839700,8.41583984375,1.4669658187180756,-4.016325891882181,1.0692857665479183
1761508088505810700,8.425810791015625,1.5307137760072946,-3.431008467903733,0.9703954764679074
1761508088515783000,8.435782958984374,1.4683108035862444,-2.6438299164533614,0.601537029634416
1761508088525753900,8.44575390625,1.1395967356145382,-1.6446528743982314,-0.15729863990694284
1761508088535725800,8.455725830078125,0.525735938718915,-0.4785223521232605,-1.039362337449193
1761508088545696800,8.46569677734375,-0.23200784393250942,0.6887795520186424,-1.621122945728898
1761508088555668700,8.475668701171875,-0.9568184942752123,2.1389128938794135,-2.1436153724819422
1761508088565639700,8.4856396484375,-1.6343208654761314,3.9658354755729435,-2.8083623070061203
1761508088575610600,8.495610595703125,-2.18078862657845,6.145752580013871,-3.529443415431678
1761508088585582800,8.505582763671875,-2.8434955797076222,8.641555250513553,-4.103264755144715
1761508088595553500,8.515553466796876,-3.820721486717462,11.16606788266897,-4.685570722347498
1761508088605525800,8.52552587890625,-5.0452498374253505,13.927941994744538,-5.456540481796861
1761508088615496700,8.53549658203125,-6.197349496260285,16.838738255786893,-6.145824476206302
1761508088625468700,8.54546875,-7.334839030462503,18.928395828109977,-6.327180575788021
1761508088635439600,8.555439697265625,-8.09498461355865,19.277454764974117,-5.883144430634379
1761508088645411800,8.565411865234376,-8.209536875411867,16.86573615282774,-4.700254496738315
1761508088655382500,8.575382568359375,-7.357605573543906,12.752083859181404,-3.755309103347361
1761508088665353700,8.585353759765624,-5.4027638834238045,8.618084943076967,-2.9207825252667066
1761508088675325700,8.59532568359375,-3.280090176683664,4.967098091730475,-2.2191642422020434
1761508088685297000,8.605296875,-1.5790572434157133,2.1101842275232077,-1.8724124132364988
1761508088695268600,8.6152685546875,-0.19494798708260058,0.1409638834387064,-1.439176771299541
1761508088705239800,8.62523974609375,0.6869815626859664,-1.4944021071761846,-0.5153878554448486
1761508088715211500,8.63521142578125,1.1356254938960075,-3.0278906085938213,0.5423924744874239
1761508088725182700,8.6451826171875,1.1620938141047954,-4.546118412515521,1.207403028383851
1761508088735153700,8.655153564453125,1.0285200409173965,-5.825158690133691,1.5392010338455437
1761508088745126000,8.6651259765625,1.1470593265801667,-6.9769719332426785,1.9576865581572054
1761508088755096600,8.6750966796875,1.792235299193859,-7.919009037971496,2.439584524193406
1761508088765068800,8.68506884765625,3.2106238417476414,-8.51300719653368,2.8633278229027983
1761508088775039700,8.695039794921875,4.764204114079475,-9.238466081652044,3.1827623136147856
1761508088785011700,8.70501171875,6.167399179154634,-10.245275226020812,3.5890605565264817
1761508088794982700,8.714982666015626,7.4290850018680095,-10.975329037714005,3.8123543481275437
1761508088804955000,8.724954833984375,7.918025287631154,-11.203178008401393,3.9064799080237744
1761508088814925600,8.734925537109374,7.450017899781465,-10.866690968340635,3.810492938169837
1761508088824896800,8.744896728515625,6.019687575021385,-9.936336702620983,3.5408594201982018
1761508088834868700,8.75486865234375,4.2568455435723065,-8.859676607912778,3.390970764286816
1761508088844840000,8.76483984375,2.7248282837510107,-7.810050066080689,3.3166748172372578
1761508088854811600,8.774811767578125,1.3822294339358805,-6.938918973702192,3.209550951819122
1761508088864782800,8.784782958984374,0.571049829173088,-6.448982078117131,3.0479815027251838
1761508088874754600,8.794754638671876,0.3018547026187181,-6.318842371031642,2.9583953398242593
1761508088884725800,8.804725830078125,0.3195931884050369,-6.43447541385889,2.868093137608468
1761508088894697700,8.81469775390625,0.7059300087839364,-6.661681994989514,2.6933623013854024
1761508088904669000,8.8246689453125,1.496117094400525,-6.986731110712886,2.4864067733839152
1761508088914639600,8.8346396484375,2.251934877425432,-7.240068158400058,2.232367130385339
1761508088924611800,8.84461181640625,2.803585594123602,-7.233151510879397,1.9920602446630595
1761508088934582800,8.854582763671875,3.24041049272418,-7.02486064262092,1.8139549635708332
1761508088944555000,8.864554931640624,3.420243328261375,-6.692903062683343,1.7385037090063094
1761508088954526200,8.874526123046875,3.1234108377188443,-6.179841896620393,1.8107833477973936
1761508088964498000,8.884497802734375,2.3968168110907078,-5.731343511360883,1.8174194248110054
1761508088974469000,8.89446923828125,1.784072451004386,-4.8662341634899375,1.46073803024441
1761508088984441000,8.904441162109375,1.2793851455330847,-3.019730098491907,0.6462015162691473
1761508088994412300,8.914412353515624,0.7662789712846279,-0.45440380991101265,-0.11670768632143735
1761508089004383000,8.924383056640625,0.2251899806112051,2.2445979586660862,-0.48676703337728977
1761508089014355200,8.934355224609375,-0.35266894405484195,4.977224348947406,-0.3081342212796211
1761508089024326100,8.944326171875,-1.129826452228427,7.511503172835707,-0.19545155269056558
1761508089034298000,8.954298095703125,-2.0775871953010556,10.631038630425929,-0.9402759402751922
1761508089044269000,8.96426904296875,-3.406206035080552,13.88478206745386,-2.106041136369109
1761508089054241300,8.9742412109375,-4.955477212041616,16.224721391546726,-2.8736040099844335
1761508089064212000,8.9842119140625,-6.997773313730955,16.138761602449417,-2.1005729340910912
1761508089074184200,8.99418408203125,-9.134520554009079,13.872295510846376,-0.9261921776041387
1761508089084155100,9.004155029296875,-10.171008212804793,10.978794083476066,-0.8954299595937132
1761508089094126000,9.0141259765625,-9.554076922422647,8.27605838906765,-2.1711846396699546
1761508089104098000,9.02409814453125,-7.195228899720311,6.711249451234936,-3.509904017703235
1761508089114069000,9.034069091796875,-4.094868098199368,5.787983097949624,-3.6161955239504575
1761508089124041000,9.044041015625,-1.7139450218111276,5.359962268051505,-3.450838665272295
1761508089134012000,9.054011962890625,-0.27027356944084163,4.753315055796504,-3.2748440927237272
1761508089143984000,9.063984130859374,0.5243944609820842,4.390785811984538,-2.9585362095996737
1761508089153955000,9.073955078125,0.913310191938281,3.9456601180285213,-2.4180779180452228
1761508089163927000,9.083927001953125,1.2633283292233943,2.994441927978396,-1.7112994757384061
1761508089173898000,9.09389794921875,1.6380232271254063,1.7302455837488173,-1.0129711741298437
1761508089183869200,9.103869140625,1.9449539178341626,0.3951233534246683,-0.5266521767809986
1761508089193841000,9.1138408203125,2.118842750275135,-0.7569020711302756,-0.4260460226938128
1761508089203812000,9.12381201171875,2.2354361625671384,-1.6525065105080603,-0.5065156899422407
1761508089213784000,9.1337841796875,2.417390812563896,-2.2948370305627583,-0.4529533188417554
1761508089223755000,9.143755126953126,2.5159347734242674,-2.7884733651876448,-0.0956175520196557
1761508089233727000,9.15372705078125,2.463790160167217,-3.0220646789193153,0.30989450895041226
1761508089243698200,9.1636982421875,2.339073647174239,-3.0709827313452958,0.5546265176385641
1761508089253670000,9.173669921875,2.155693348288536,-3.1528099506825207,0.8305749178454279
1761508089263641000,9.18364111328125,2.2560423127442597,-3.050879269993305,0.9448764198079704
1761508089273612000,9.193612060546876,2.7569997840374705,-3.0592870328545567,1.0267373952843248
1761508089283584000,9.203583984375,3.2294495382487773,-3.214519095620513,1.2123745331861078
1761508089293555000,9.213554931640624,3.543708964410424,-3.2722581678837535,1.2141577633410692
1761508089303527200,9.223527099609376,3.435779335567355,-3.0978076099067926,0.9721703771859407
1761508089313498000,9.233498046875,3.1386586757332084,-2.6090602163672445,0.5348270076692104
1761508089323470000,9.243469970703124,2.9002655146777627,-1.9878420424461363,-0.10796002398133277
1761508089333441000,9.25344091796875,2.697415376168489,-1.340181851801276,-0.8742235054358839
1761508089343413000,9.2634130859375,2.4893396119654176,-0.687321754425764,-1.573035498908162
1761508089353384000,9.273384033203126,2.201457320597768,-0.035892566636204715,-2.009530142641067
1761508089363355100,9.283355224609375,1.583854414564371,0.5268254875212908,-1.956402363565564
1761508089373327000,9.2933271484375,0.628557430768013,0.9971563498824835,-1.591879315587878
1761508089383298000,9.303298095703125,-0.6580477291464806,1.305696229353547,-1.4000102975592017
1761508089393270000,9.31327001953125,-1.9624924971342086,1.3069412609785795,-1.1698729236736893
1761508089403241200,9.3232412109375,-2.8225270259588955,1.0242354954659938,-0.748178958709538
1761508089413213000,9.333212890625,-2.9861686051517724,0.8024538619935512,-0.31482933500409127
1761508089423184100,9.34318408203125,-2.25731014072299,0.5809872858196496,0.2841395977079868
1761508089433155000,9.353155029296875,-1.0671160212934017,0.29569793355464935,0.9398460244253277
1761508089443127000,9.363126953125,-0.06118015262782573,-0.029277532410621643,1.3107386074349283
1761508089453098000,9.373097900390626,0.6652975541442633,-0.37999709596335884,1.355482296785712
1761508089463070200,9.3830703125,1.028701827225089,-0.5704483561486006,1.1466519148230552
1761508089473041200,9.393041259765624,1.0430834037989378,-0.588344078323245,0.828472977130115
1761508089483013000,9.40301318359375,0.9085282183587551,-0.5074895034104585,0.5292693735420704
1761508089492984000,9.412984130859375,0.5907821191251278,-0.4070142822265625,0.4066410649999976
1761508089502956000,9.4229560546875,0.237405903583765,-0.31825930945277214,0.3799769299581647
1761508089512927000,9.432927001953125,0.02973988922536373,-0.27670623283684254,0.35724633497297764
1761508089522898200,9.442898193359374,-0.15257365721166133,-0.2949398086637258,0.3700815588876605
1761508089532870100,9.4528701171875,-0.4083861551016569,-0.26501871765255924,0.3139081285059452
1761508089542841000,9.462841064453125,-0.6388134518444538,-0.25401860021054745,0.18188187702149153
1761508089552813000,9.47281298828125,-0.7704132946103811,-0.34954525907635686,-0.10978139418959618
1761508089562784300,9.4827841796875,-0.8233411671996116,-0.433921578374505,-0.4150397677719593
1761508089572756000,9.492755859375,-0.8289040620237589,-0.4456155232995748,-0.6104001350477337
1761508089582727200,9.50272705078125,-0.7980085730224847,-0.4364320998907089,-0.6613222207725048
1761508089592698000,9.512697998046875,-0.6880255187809466,-0.4391594790279865,-0.753777509368956
1761508089602670000,9.522670166015626,-0.540115177205205,-0.49724400372803207,-0.8849129494935274
1761508089612641000,9.53264111328125,-0.3977905268073082,-0.4924047470033168,-0.8980278671324252
1761508089622613200,9.54261328125,-0.3320189547359943,-0.48424540594518184,-0.9187892078712582
1761508089632584200,9.552584228515625,-0.24830022256374357,-0.45602468911111355,-0.9760878428906202
1761508089642556200,9.56255615234375,-0.2283224334180355,-0.38614977337419987,-0.9058023005262017
1761508089652527000,9.572527099609376,-0.02612403681576252,-0.22511866894066332,-0.5844473631456494
1761508089662499000,9.5824990234375,0.074296239310503,-0.022198972326517102,-0.195659642483294
1761508089672470000,9.592469970703124,0.25204116265773774,-0.1094704285442829,-0.026791853074729442
1761508089682441000,9.60244091796875,2.219676283377409,0.2117085677474737,-0.26596710441857574
1761508089692413200,9.6124130859375,2.6330612696796654,-0.03394377065598964,0.09921616103351115
1761508089702383900,9.6223837890625,2.5917063459843397,0.006689268505573272,0.2274152554452419
1761508089712356000,9.632356201171875,1.63199213026762,0.06838672300577163,0.3511521097511053
1761508089722327000,9.6423271484375,0.5683364785611629,-0.03339490460157394,0.08676467573940753
1761508089732299000,9.652299072265626,-0.0967524012684822,-0.20149872390031814,-0.5727753377914429
1761508089742270000,9.66227001953125,-0.2411538579404354,-0.20580781927108763,-1.131465451607108
