time,seconds_elapsed,z,y,x
1761508080149740300,0.069740234375,-0.08517994731664658,0.06508845835924149,0.02835821732878685
1761508080159712000,0.0797119140625,-0.10339676588773727,0.08902788162231445,-0.002939518541097641
1761508080169683200,0.08968310546875,-0.11675572395324707,0.11425220966339111,-0.035205960273742676
1761508080179655200,0.0996552734375,-0.12092810124158859,0.13831999897956848,-0.05958826467394829
1761508080189626000,0.109626220703125,-0.10559432208538055,0.1279510110616684,-0.08612503111362457
1761508080199598000,0.11959814453125,-0.09640748053789139,0.1005777046084404,-0.11410366743803024
1761508080209569300,0.1295693359375,-0.08171429485082626,0.05521708354353905,-0.13969622552394867
1761508080219540200,0.139540283203125,-0.07486092299222946,-0.0002930478658527136,-0.15889017283916473
1761508080229512200,0.14951220703125,-0.06666622310876846,-0.04321136325597763,-0.17007915675640106
1761508080239483100,0.159483154296875,-0.055242329835891724,-0.08036565780639648,-0.1702037900686264
1761508080249455000,0.169455078125,-0.04279700666666031,-0.10506905615329742,-0.15907643735408783
1761508080259426000,0.179426025390625,-0.04017725586891174,-0.12394154816865921,-0.14867545664310455
1761508080269398300,0.189398193359375,-0.040714386850595474,-0.13165786862373352,-0.14128883183002472
1761508080279369200,0.199369140625,-0.044815123081207275,-0.12935103476047516,-0.1442798227071762
1761508080289341200,0.209341064453125,-0.04824358969926834,-0.13068532943725586,-0.15127655863761902
1761508080299312000,0.21931201171875,-0.05402291566133499,-0.12702827155590057,-0.15431202948093414
1761508080309283300,0.229283447265625,-0.06369742751121521,-0.12847957015037537,-0.15229935944080353
1761508080319255000,0.239255126953125,-0.07142778486013412,-0.12769047915935516,-0.14101316034793854
1761508080329226200,0.249226318359375,-0.07211801409721375,-0.09998134523630142,-0.1192728653550148
1761508080339198200,0.2591982421875,-0.0726407915353775,-0.04750988632440567,-0.09677261859178543
1761508080349169200,0.269169189453125,-0.07359131425619125,0.015972433611750603,-0.08087106794118881
1761508080359141000,0.27914111328125,-0.07534793019294739,0.06811925768852234,-0.06722849607467651
1761508080369112300,0.2891123046875,-0.08325615525245667,0.1062784418463707,-0.0540039949119091
1761508080379084000,0.299083984375,-0.09530775249004364,0.130265012383461,-0.044732466340065
1761508080389055200,0.30905517578125,-0.10560134053230286,0.15174925327301025,-0.023162877187132835
1761508080399027200,0.319027099609375,-0.11499910801649094,0.16503097116947174,0.0008681556209921837
1761508080408998100,0.328998046875,-0.11643675714731216,0.16230925917625427,0.015462354756891727
1761508080418969000,0.338968994140625,-0.11283190548419952,0.13992992043495178,0.01760806143283844
1761508080428941300,0.34894140625,-0.12422755360603333,0.11954142153263092,0.008104267530143261
1761508080438912300,0.358912353515625,-0.12603850662708282,0.092422716319561,-0.005500491242855787
1761508080448884200,0.36888427734375,-0.12146461009979248,0.044557761400938034,-0.022165145725011826
1761508080458855200,0.378855224609375,-0.10302381962537766,0.004928595386445522,-0.0335024893283844
1761508080468827100,0.3888271484375,-0.08785244077444077,-0.017036300152540207,-0.02230054698884487
1761508080478798000,0.398798095703125,-0.0744950920343399,-0.017580650746822357,-0.0033438999671489
1761508080488770300,0.408770263671875,-0.05834696814417839,-0.016769403591752052,0.007215833757072687
1761508080498741200,0.4187412109375,-0.05369895324110985,-0.018303915858268738,-0.0006711174501106143
1761508080508712000,0.4287119140625,-0.05895427614450455,-0.027787214145064354,-0.026572903618216515
1761508080518684200,0.43868408203125,-0.08658723533153534,-0.051680564880371094,-0.0480094850063324
1761508080528655000,0.448655029296875,-0.11067495495080948,-0.0685168206691742,-0.06304896622896194
1761508080538627000,0.458626953125,-0.13290755450725555,-0.07246948778629303,-0.07019396126270294
1761508080548598000,0.468597900390625,-0.13130106031894684,-0.05603841692209244,-0.07037524878978729
1761508080558570200,0.4785703125,-0.10668972134590149,-0.04545874521136284,-0.04676445573568344
1761508080568541000,0.488541015625,-0.07435446232557297,-0.0542437918484211,-0.0033120946027338505
1761508080578513200,0.49851318359375,-0.058142464607954025,-0.08030415326356888,0.061968374997377396
1761508080588484000,0.508484130859375,-0.06458084285259247,-0.1409912407398224,0.10927163064479828
1761508080598456000,0.5184560546875,-0.09224043041467667,-0.24430644512176514,0.12565940618515015
1761508080608427000,0.528427001953125,-0.12001305818557739,-0.36385011672973633,0.12617912888526917
1761508080618398200,0.538398193359375,-0.13501118123531342,-0.48423245549201965,0.07045567780733109
1761508080628370000,0.548369873046875,-0.14484794437885284,-0.5413646101951599,-0.02374432235956192
1761508080638341000,0.558341064453125,-0.1438966542482376,-0.5042939186096191,-0.1506119817495346
1761508080648313000,0.56831298828125,-0.13341641426086426,-0.3676687180995941,-0.2984262704849243
1761508080658284300,0.5782841796875,-0.14454177021980286,-0.15922978520393372,-0.43252626061439514
1761508080668256000,0.588256103515625,-0.1909639686346054,0.03749145194888115,-0.5295214056968689
1761508080678227200,0.598227294921875,-0.2700052261352539,0.20240317285060883,-0.5848981142044067
1761508080688199200,0.60819921875,-0.33649593591690063,0.3170679211616516,-0.6022425889968872
1761508080698170000,0.618170166015625,-0.3991619646549225,0.43250077962875366,-0.5573433041572571
1761508080708142000,0.62814208984375,-0.4259848892688751,0.5213834047317505,-0.4728236198425293
1761508080718113300,0.63811328125,-0.39176541566848755,0.5990206599235535,-0.3361983895301819
1761508080728084000,0.648083984375,-0.3055219352245331,0.6767517328262329,-0.12360091507434845
1761508080738056200,0.65805615234375,-0.18772923946380615,0.7075194716453552,0.11859147995710373
1761508080748027100,0.668027099609375,-0.07433448731899261,0.696953535079956,0.35301512479782104
1761508080757999000,0.6779990234375,-0.02142413705587387,0.6738266348838806,0.561252772808075
1761508080767970000,0.687969970703125,-0.008253510110080242,0.6370142102241516,0.6844680905342102
1761508080777942300,0.6979423828125,-0.013948679901659489,0.5688450336456299,0.6957108974456787
1761508080787913000,0.707912841796875,-0.05046983063220978,0.46461260318756104,0.5681687593460083
1761508080797885200,0.71788525390625,-0.1140408143401146,0.30785173177719116,0.31814536452293396
1761508080807856000,0.727856201171875,-0.20228712260723114,0.18159686028957367,0.019011281430721283
1761508080817828000,0.737828125,-0.2809678316116333,0.15060405433177948,-0.2040891796350479
1761508080827799000,0.747799072265625,-0.314619243144989,0.20741896331310272,-0.26639193296432495
1761508080837770200,0.757770263671875,-0.2498573213815689,0.12268330901861191,-0.22894787788391113
1761508080847742200,0.7677421875,-0.2384345531463623,-0.19593104720115662,-0.13991768658161163
1761508080857713200,0.777713134765625,-0.3249177634716034,-0.6400398015975952,-0.16543875634670258
1761508080867685000,0.78768505859375,-0.5127716660499573,-1.1036423444747925,-0.4129289984703064
1761508080877656300,0.79765625,-0.7023037672042847,-1.4773437976837158,-0.8910833597183228
1761508080887628000,0.8076279296875,-0.7430711984634399,-1.697879672050476,-1.4463764429092407
1761508080897599200,0.81759912109375,-0.5793272256851196,-1.676726222038269,-1.8842105865478516
1761508080907571200,0.8275712890625,-0.24658416211605072,-1.2746882438659668,-2.0244529247283936
1761508080917542100,0.837542236328125,0.12156589329242706,-0.6571717262268066,-1.8416261672973633
1761508080927512800,0.847512939453125,0.40113773941993713,-0.08201276510953903,-1.3808205127716064
1761508080937485000,0.857485107421875,0.5766105055809021,0.3023466169834137,-0.8161259889602661
1761508080947456000,0.8674560546875,0.6342657804489136,0.38217198848724365,-0.3011748194694519
1761508080957428000,0.877427978515625,0.5836566686630249,0.1936444342136383,0.13099095225334167
1761508080967399000,0.88739892578125,0.4786098003387451,-0.19352243840694427,0.4172331690788269
1761508080977371000,0.897370849609375,0.3729829490184784,-0.5735387206077576,0.588335394859314
1761508080987341800,0.907341796875,0.2933913767337799,-0.8664695024490356,0.6553130149841309
1761508080997314000,0.91731396484375,0.2265004813671112,-0.9435056447982788,0.6485022306442261
1761508081007285000,0.927284912109375,0.18729376792907715,-0.8395167589187622,0.6209248304367065
1761508081017257000,0.937257080078125,0.18680109083652496,-0.5080301761627197,0.6150469779968262
1761508081027228000,0.947227783203125,0.13669615983963013,-0.057102981954813004,0.5390787124633789
1761508081037199000,0.95719921875,-0.010471977293491364,0.23747405409812927,0.3375570476055145
1761508081047170800,0.9671708984375,-0.25031912326812744,0.2893718481063843,0.08573058247566223
1761508081057142000,0.97714208984375,-0.5271970629692078,0.19883234798908234,-0.12887439131736755
1761508081067114000,0.987114013671875,-0.748479962348938,0.10534658282995224,-0.2611014246940613
1761508081077085000,0.9970849609375,-0.8636510372161865,0.10980125516653061,-0.2970495820045471
1761508081087057000,1.007056884765625,-0.8836316466331482,0.20726628601551056,-0.2392675131559372
1761508081097028000,1.017028076171875,-0.7876513600349426,0.3227129876613617,-0.11700472235679626
1761508081106999800,1.026999755859375,-0.5974881649017334,0.3460800051689148,0.04755568876862526
1761508081116971000,1.036970947265625,-0.36010006070137024,0.2495526820421219,0.24568529427051544
1761508081126942000,1.04694189453125,-0.10869687795639038,0.07622657716274261,0.46999937295913696
1761508081136914000,1.056913818359375,0.09893114864826202,-0.12908236682415009,0.7096266150474548
1761508081146884900,1.066884765625,0.25639548897743225,-0.3462701141834259,0.9297864437103271
1761508081156857000,1.076857177734375,0.3677651584148407,-0.5868198871612549,1.1008166074752808
1761508081166828000,1.086828125,0.3976489305496216,-0.751863956451416,1.2252471446990967
1761508081176800000,1.096800048828125,0.3732815384864807,-0.8717373609542847,1.259952425956726
1761508081186771000,1.10677099609375,0.35090094804763794,-0.9174143671989441,1.1986662149429321
1761508081196743000,1.116742919921875,0.36119192838668823,-0.8773995637893677,1.0574971437454224
1761508081206713900,1.1267138671875,0.3902691900730133,-0.6987842917442322,0.8875979781150818
1761508081216686000,1.13668603515625,0.40249016880989075,-0.4122971296310425,0.7463881373405457
1761508081226657000,1.146656982421875,0.40134215354919434,-0.1260976940393448,0.6626448631286621
1761508081236628000,1.1566279296875,0.34552469849586487,0.03511808440089226,0.5913288593292236
1761508081246600000,1.166599853515625,0.17527465522289276,0.08916773647069931,0.47475722432136536
1761508081256571100,1.176571044921875,-0.1506453901529312,0.0009593138820491731,0.2147887796163559
1761508081266542800,1.18654296875,-0.5405168533325195,-0.20534810423851013,-0.2116735577583313
1761508081276514000,1.19651416015625,-0.9052742719650269,-0.2845395803451538,-0.7020965218544006
1761508081286486000,1.206486083984375,-1.218247413635254,-0.17892713844776154,-1.1361202001571655
1761508081296457000,1.21645703125,-1.4653708934783936,0.29765141010284424,-1.2952985763549805
1761508081306429000,1.226428955078125,-1.427109718322754,0.9556522965431213,-1.1578878164291382
1761508081316400000,1.236400146484375,-1.017580509185791,1.6683731079101562,-0.7917491793632507
1761508081326371000,1.24637109375,-0.3823252320289612,2.164111614227295,-0.3747633099555969
1761508081336343000,1.256343017578125,0.19206908345222473,2.1816465854644775,-0.12104792892932892
1761508081346314000,1.26631396484375,0.5575449466705322,1.8035954236984253,-0.02782154455780983
1761508081356286000,1.276285888671875,0.7586197257041931,1.1648032665252686,-0.002392086200416088
1761508081366257000,1.2862568359375,0.8218846917152405,0.5016990900039673,0.06483302265405655
1761508081376229000,1.29622900390625,0.7973348498344421,0.019998211413621902,0.20012186467647552
1761508081386200000,1.306199951171875,0.7127115726470947,-0.265842467546463,0.3834407925605774
1761508081396172000,1.316172119140625,0.6301642656326294,-0.3227214515209198,0.6118316054344177
1761508081406143000,1.32614306640625,0.5916128158569336,-0.134601429104805,0.7665286660194397
1761508081416115000,1.336114990234375,0.597697377204895,0.20020505785942078,0.734001874923706
1761508081426086000,1.3460859375,0.5906293392181396,0.5536077618598938,0.5373138785362244
1761508081436056800,1.356056884765625,0.5292344093322754,0.777157723903656,0.23817352950572968
1761508081446029000,1.366029052734375,0.4155840277671814,0.817781388759613,-0.06550642102956772
1761508081456000000,1.376,0.23271970450878143,0.7071856260299683,-0.29328736662864685
1761508081465972000,1.385971923828125,0.03033527173101902,0.4916601777076721,-0.4132172465324402
1761508081475943200,1.395943115234375,-0.13191409409046173,0.26817092299461365,-0.4402877688407898
1761508081485915000,1.405914794921875,-0.20555904507637024,0.11304035782814026,-0.43370020389556885
1761508081495886000,1.415885986328125,-0.2026202529668808,0.022985827177762985,-0.4096537232398987
1761508081505858000,1.425858154296875,-0.1597365438938141,0.009283720515668392,-0.3358290195465088
1761508081515829000,1.4358291015625,-0.086379773914814,0.03738699480891228,-0.22003398835659027
1761508081525800000,1.445800048828125,-0.011724850162863731,0.06034567579627037,-0.10700321942567825
1761508081535772200,1.455772216796875,0.03408364951610565,0.04655928909778595,-0.03383021056652069
1761508081545743000,1.4657431640625,0.030496548861265182,-0.002562305424362421,-0.023695435374975204
1761508081555715000,1.475715087890625,-0.002967934124171734,-0.07335791736841202,-0.055822744965553284
1761508081565686000,1.48568603515625,-0.05071649327874184,-0.14304481446743011,-0.08724047243595123
1761508081575658000,1.495657958984375,-0.08637382090091705,-0.20174966752529144,-0.08453869819641113
1761508081585629000,1.50562890625,-0.10859214514493942,-0.2699005901813507,-0.06757930666208267
1761508081595601200,1.51560107421875,-0.10076165199279785,-0.35521361231803894,-0.04843810573220253
1761508081605572000,1.525572021484375,-0.069209024310112,-0.3829137682914734,-0.011022211983799934
1761508081615544000,1.5355439453125,-0.031879764050245285,-0.2779993414878845,0.035905081778764725
1761508081625515000,1.545514892578125,0.009454096667468548,-0.09814807772636414,0.0991373136639595
1761508081635486000,1.55548583984375,0.030396129935979843,0.05051250383257866,0.1711401343345642
1761508081645458000,1.5654580078125,0.019026275724172592,0.09837311506271362,0.23604565858840942
1761508081655428900,1.575428955078125,0.03538021445274353,0.04010448232293129,0.2838190495967865
1761508081665401000,1.585401123046875,0.10822013765573502,-0.07558982819318771,0.3235589563846588
1761508081675371800,1.595371826171875,0.16353878378868103,-0.18875500559806824,0.352382630109787
1761508081685344000,1.605343994140625,0.19262008368968964,-0.23927119374275208,0.365427166223526
1761508081695315000,1.61531494140625,0.1773974597454071,-0.2220780849456787,0.3480718731880188
1761508081705287000,1.625286865234375,0.10201702266931534,-0.17130886018276215,0.30248305201530457
1761508081715257900,1.6352578125,-0.03605882078409195,-0.1538640856742859,0.2087714672088623
1761508081725229000,1.64522900390625,-0.19086283445358276,-0.2065461426973343,0.07635991275310516
1761508081735200800,1.65520068359375,-0.31868046522140503,-0.25251710414886475,-0.04126153141260147
1761508081745172000,1.665171875,-0.4213416576385498,-0.25687405467033386,-0.16799315810203552
1761508081755144000,1.67514404296875,-0.5288857221603394,-0.2593771517276764,-0.32589223980903625
1761508081765115100,1.685115234375,-0.6240783333778381,-0.2451586276292801,-0.5021683573722839
1761508081775086800,1.6950869140625,-0.6667153239250183,-0.24826785922050476,-0.7000422477722168
1761508081785058000,1.70505810546875,-0.6048976182937622,-0.12330020219087601,-0.7972032427787781
1761508081795029800,1.71502978515625,-0.4409840404987335,0.20031408965587616,-0.7159472703933716
1761508081805001000,1.7250009765625,-0.26585885882377625,0.643660843372345,-0.45312589406967163
1761508081814972000,1.734971923828125,-0.12107609212398529,1.06341552734375,-0.13042667508125305
1761508081824944000,1.744944091796875,0.06052972376346588,1.2911372184753418,0.05679537355899811
1761508081834914800,1.754914794921875,0.30736827850341797,1.3042652606964111,0.10855311155319214
1761508081844887000,1.764886962890625,0.5363751649856567,1.1233539581298828,0.10686405748128891
1761508081854858000,1.77485791015625,0.6670058369636536,0.8521845936775208,0.11869807541370392
1761508081864830000,1.784829833984375,0.7016450762748718,0.6503503322601318,0.15772373974323273
1761508081874801000,1.79480078125,0.6488755941390991,0.5529396533966064,0.21720144152641296
1761508081884773000,1.804773193359375,0.5885627269744873,0.5850387215614319,0.3106490969657898
1761508081894743800,1.814743896484375,0.5430594086647034,0.6954643130302429,0.4239961802959442
1761508081904716000,1.824716064453125,0.5322948098182678,0.8464029431343079,0.47555145621299744
1761508081914687000,1.83468701171875,0.5677697062492371,0.9948757886886597,0.44603297114372253
1761508081924658200,1.844658203125,0.6575238704681396,1.0806490182876587,0.36689627170562744
1761508081934630100,1.854630126953125,0.7775107026100159,1.0793097019195557,0.2961810827255249
1761508081944601300,1.864601318359375,0.8485701084136963,0.9330320954322815,0.28420373797416687
1761508081954573000,1.874572998046875,0.7765946984291077,0.6482256650924683,0.26193490624427795
1761508081964544300,1.884544189453125,0.5912728309631348,0.28196367621421814,0.2184615433216095
1761508081974516200,1.89451611328125,0.3874797523021698,-0.12471327185630798,0.1074007973074913
1761508081984487200,1.904487060546875,0.22491693496704102,-0.5365861058235168,-0.07387136667966843
1761508081994459100,1.914459228515625,0.12759703397750854,-0.848667323589325,-0.2549434304237366
1761508082004430300,1.924430419921875,0.0659259557723999,-0.9687893390655518,-0.40772831439971924
1761508082014401300,1.9344013671875,0.004674583673477173,-0.8598767518997192,-0.5139902830123901
1761508082024373200,1.944373291015625,-0.0534987710416317,-0.5433473587036133,-0.5075880289077759
1761508082034344200,1.95434423828125,-0.09716396033763885,-0.2079715132713318,-0.3968639075756073
1761508082044316400,1.96431640625,-0.10844648629426956,0.05234754830598831,-0.1724804937839508
1761508082054287000,1.974287109375,-0.10046712309122086,0.18350449204444885,0.10303975641727448
1761508082064259300,1.98425927734375,-0.0747106745839119,0.21001213788986206,0.32442256808280945
1761508082074230300,1.994230224609375,-0.03429533913731575,0.1303766965866089,0.4556293487548828
1761508082084202200,2.0042021484375,0.0006078081205487251,0.016093812882900238,0.5214338302612305
1761508082094173200,2.014173095703125,0.02948473021388054,-0.0964529737830162,0.5427466034889221
1761508082104145400,2.0241455078125,0.07532170414924622,-0.1687956303358078,0.5544390082359314
1761508082114116000,2.0341162109375,0.12807145714759827,-0.16372737288475037,0.587124764919281
1761508082124087300,2.04408740234375,0.16319701075553894,-0.10250834375619888,0.6281333565711975
1761508082134059300,2.054059326171875,0.2111741304397583,-0.04376646876335144,0.6762462854385376
1761508082144030200,2.0640302734375,0.30648094415664673,-0.03966587409377098,0.7287664413452148
1761508082154002200,2.074002197265625,0.3765212893486023,-0.0765562504529953,0.7871053814888
1761508082163973400,2.083973388671875,0.33318427205085754,-0.16481876373291016,0.8077331781387329
1761508082173945000,2.093945068359375,0.11862027645111084,-0.33846911787986755,0.6782878637313843
1761508082183916300,2.103916259765625,-0.20784127712249756,-0.6061223149299622,0.3411405384540558
1761508082193888300,2.11388818359375,-0.5072175860404968,-0.9665651917457581,-0.16055749356746674
1761508082203859500,2.123859375,-0.7474089860916138,-1.2568894624710083,-0.6230847239494324
1761508082213830100,2.133830078125,-0.8313020467758179,-1.299810528755188,-0.9325648546218872
1761508082223802400,2.14380224609375,-0.7716208100318909,-1.108262538909912,-1.1120165586471558
1761508082233773300,2.153773193359375,-0.5685837864875793,-0.5776148438453674,-1.0207767486572266
1761508082243745300,2.163745361328125,-0.2318834364414215,0.13474875688552856,-0.6146945953369141
1761508082253716200,2.17371630859375,0.10305354744195938,0.6934182047843933,-0.02824525535106659
1761508082263688400,2.1836884765625,0.2930540144443512,0.8867884278297424,0.512803852558136
1761508082273659100,2.1936591796875,0.38453546166419983,0.7652766108512878,0.8201981782913208
1761508082283631400,2.20363134765625,0.4212663471698761,0.5001825094223022,0.8943852782249451
1761508082293602300,2.213602294921875,0.4176982343196869,0.2803236246109009,0.831562876701355
1761508082303573200,2.2235732421875,0.3752375841140747,0.23054665327072144,0.7313390374183655
1761508082313545200,2.233545166015625,0.30090662837028503,0.35808491706848145,0.6778246760368347
1761508082323516200,2.24351611328125,0.2551450729370117,0.5469840168952942,0.6990129351615906
1761508082333488000,2.253488037109375,0.28476715087890625,0.6812544465065002,0.7575907111167908
1761508082343459000,2.263458984375,0.38679805397987366,0.6421588659286499,0.7560495734214783
1761508082353431300,2.273431396484375,0.5208680033683777,0.4256494343280792,0.6799470782279968
1761508082363402200,2.28340234375,0.626357913017273,0.11622545123100281,0.5012593269348145
1761508082373374200,2.293374267578125,0.6575230360031128,-0.22658036649227142,0.22963577508926392
1761508082383345200,2.30334521484375,0.5914224982261658,-0.4976760745048523,-0.08174945414066315
1761508082393317000,2.313317138671875,0.4419124126434326,-0.678804874420166,-0.3845958709716797
1761508082403288000,2.3232880859375,0.25456470251083374,-0.789375364780426,-0.6246594786643982
1761508082413259300,2.33325927734375,0.09352681785821915,-0.7961618900299072,-0.7859461307525635
1761508082423231200,2.343231201171875,0.01783989742398262,-0.7105571627616882,-0.8935903310775757
1761508082433202200,2.3532021484375,0.01200837455689907,-0.5587745308876038,-0.9138556718826294
1761508082443174100,2.363174072265625,0.04277282580733299,-0.33964622020721436,-0.7843956351280212
1761508082453145300,2.373145263671875,0.07764719426631927,-0.15988633036613464,-0.5257363319396973
1761508082463117000,2.383116943359375,0.08500262349843979,-0.08433134853839874,-0.2059205174446106
1761508082473088300,2.393088134765625,0.06032603979110718,-0.0850144475698471,0.0722474530339241
1761508082483060200,2.403060302734375,0.005016368813812733,-0.08052895218133926,0.2360643893480301
1761508082493031200,2.41303125,-0.07022751867771149,-0.04130671173334122,0.2521496117115021
1761508082503002000,2.423002197265625,-0.1624440997838974,0.020286204293370247,0.16441071033477783
1761508082512974300,2.432974365234375,-0.2952176034450531,0.03547580912709236,0.005691899918019772
1761508082522945300,2.4429453125,-0.4482462704181671,0.001039701048284769,-0.1577991396188736
1761508082532917200,2.452917236328125,-0.5623001456260681,-0.026750385761260986,-0.2788483202457428
1761508082542888200,2.46288818359375,-0.6055282950401306,-0.04199196398258209,-0.3492462635040283
1761508082552860200,2.472860107421875,-0.5293986201286316,0.00521549629047513,-0.3519032895565033
1761508082562831000,2.4828310546875,-0.3289671540260315,0.14213921129703522,-0.23707547783851624
1761508082572803300,2.49280322265625,-0.06439220905303955,0.3244834542274475,-0.0015737348003312945
1761508082582774300,2.502774169921875,0.20705997943878174,0.4836169183254242,0.3270011842250824
1761508082592745200,2.5127451171875,0.4059842526912689,0.5415446758270264,0.6741974949836731
1761508082602717200,2.52271728515625,0.5529335737228394,0.4356335401535034,0.9571214914321899
1761508082612688400,2.5326884765625,0.5929949283599854,0.18356294929981232,1.127231240272522
1761508082622660000,2.54266015625,0.5214481353759766,-0.17124317586421967,1.1531893014907837
1761508082632631300,2.55263134765625,0.34227225184440613,-0.5318346619606018,1.003501296043396
1761508082642603300,2.562603271484375,0.08072492480278015,-0.8383116722106934,0.6670323014259338
1761508082652574200,2.57257421875,-0.17978788912296295,-1.0490268468856812,0.20521032810211182
1761508082662546200,2.582546142578125,-0.37244921922683716,-1.1449514627456665,-0.3049241006374359
1761508082672517400,2.592517333984375,-0.5620393753051758,-1.1555540561676025,-0.7279067635536194
1761508082682488300,2.60248828125,-0.7430912852287292,-1.0417308807373047,-1.037797212600708
1761508082692460300,2.612460205078125,-0.8453793525695801,-0.8332746028900146,-1.218762993812561
1761508082702431200,2.62243115234375,-0.8380643129348755,-0.5451447367668152,-1.2238484621047974
1761508082712403200,2.6324033203125,-0.7350170612335205,-0.2557051479816437,-1.0608079433441162
1761508082722374100,2.6423740234375,-0.6100783944129944,-0.04524737223982811,-0.7803820967674255
1761508082732346400,2.652346435546875,-0.501396119594574,0.03227245435118675,-0.4503650665283203
1761508082742317300,2.6623173828125,-0.3985785245895386,0.004287610296159983,-0.1843939870595932
1761508082752289300,2.672289306640625,-0.27770987153053284,-0.0981985479593277,-0.0636979416012764
1761508082762260200,2.68226025390625,-0.14374534785747528,-0.22004550695419312,-0.11576026678085327
1761508082772231200,2.692231201171875,-0.00322337681427598,-0.24916130304336548,-0.2544880509376526
1761508082782203100,2.702203125,0.14972087740898132,-0.07900355011224747,-0.3510749936103821
1761508082792174300,2.71217431640625,0.313412606716156,0.2194952517747879,-0.33629605174064636
1761508082802146300,2.722146240234375,0.4759726822376251,0.5295409560203552,-0.23452945053577423
1761508082812117200,2.7321171875,0.6096071600914001,0.7566470503807068,-0.07706180214881897
1761508082822089200,2.742089111328125,0.6807072758674622,0.8931829929351807,0.10652925819158554
1761508082832060400,2.752060302734375,0.6549981832504272,0.9280858635902405,0.24176590144634247
1761508082842032000,2.7620322265625,0.5295059084892273,0.9070411324501038,0.24306978285312653
1761508082852003300,2.77200341796875,0.36138883233070374,0.8989714980125427,0.1035638302564621
1761508082861974300,2.781974365234375,0.20695002377033234,0.9392055869102478,-0.14301197230815887
1761508082871946200,2.7919462890625,0.1150808334350586,0.991499662399292,-0.4343913793563843
1761508082881917200,2.801917236328125,0.0963997095823288,1.0008184909820557,-0.7050129771232605
1761508082891889400,2.811889404296875,0.13260085880756378,0.938612163066864,-0.8506128191947937
1761508082901860400,2.8218603515625,0.13797637820243835,0.7801432609558105,-0.8633393049240112
1761508082911832300,2.831832275390625,0.12861377000808716,0.5244816541671753,-0.7677249312400818
1761508082921803300,2.84180322265625,0.06852646172046661,0.19401581585407257,-0.6022377014160156
1761508082931775000,2.85177490234375,0.003822300350293517,-0.12325242161750793,-0.44898420572280884
1761508082941745700,2.86174560546875,-0.012770818546414375,-0.3260018229484558,-0.3301703929901123
1761508082951718000,2.8717177734375,0.006150674540549517,-0.45435845851898193,-0.2650853991508484
1761508082961688800,2.881688720703125,-0.013235814869403839,-0.47217801213264465,-0.20510822534561157
1761508082971659800,2.89165966796875,-0.06200175732374191,-0.3839988708496094,-0.1443556547164917
1761508082981631700,2.9016318359375,-0.1299588829278946,-0.2060539573431015,-0.08050670474767685
1761508082991603000,2.91160302734375,-0.18435555696487427,0.02316032536327839,-0.014208379201591015
1761508083001574700,2.92157470703125,-0.22432218492031097,0.26578715443611145,0.05696292221546173
1761508083011545900,2.9315458984375,-0.2242681235074997,0.481754869222641,0.13475573062896729
1761508083021517800,2.941517822265625,-0.17836563289165497,0.5880863070487976,0.2167554795742035
1761508083031488800,2.95148876953125,-0.1280777007341385,0.5740528106689453,0.2975406050682068
1761508083041460700,2.961460693359375,-0.10203816741704941,0.49987083673477173,0.39377716183662415
1761508083051432000,2.971431884765625,-0.0826125368475914,0.3973676264286041,0.4692958891391754
1761508083061403000,2.98140283203125,-0.08942487835884094,0.3152890205383301,0.5121340751647949
1761508083071374800,2.991374755859375,-0.09530673176050186,0.2535151541233063,0.521090567111969
1761508083081345800,3.001345703125,-0.08982937783002853,0.20669233798980713,0.5101359486579895
1761508083091318000,3.011318115234375,-0.08225907385349274,0.1569918990135193,0.48754438757896423
1761508083101288700,3.021288818359375,-0.08004015684127808,0.08939231932163239,0.45048069953918457
1761508083111261000,3.031260986328125,-0.0926440954208374,-0.015784164890646935,0.4212013781070709
1761508083121232000,3.04123193359375,-0.15485839545726776,-0.1428292989730835,0.39435091614723206
1761508083131203800,3.051203857421875,-0.30190563201904297,-0.32781779766082764,0.2873741388320923
1761508083141174800,3.0611748046875,-0.4865681529045105,-0.6019967794418335,0.08130935579538345
1761508083151146000,3.07114599609375,-0.681323766708374,-0.9203917980194092,-0.17787107825279236
1761508083161117700,3.08111767578125,-0.8113459944725037,-1.148973822593689,-0.4168844521045685
1761508083171089000,3.0910888671875,-0.7883437871932983,-1.1191484928131104,-0.5668678283691406
1761508083181060900,3.101060791015625,-0.6621423959732056,-0.8217442631721497,-0.6161816120147705
1761508083191031800,3.11103173828125,-0.4017947316169739,-0.3302443027496338,-0.5027775764465332
1761508083201003800,3.121003662109375,-0.02078505977988243,0.15120314061641693,-0.18255262076854706
1761508083210975000,3.13097509765625,0.3933543264865875,0.36867207288742065,0.27853620052337646
1761508083220946700,3.14094677734375,0.7266026735305786,0.26903489232063293,0.7096371054649353
1761508083230918000,3.15091796875,0.8336145877838135,-0.1310344785451889,0.954811155796051
1761508083240888800,3.160888916015625,0.7207856774330139,-0.6500330567359924,0.9549130797386169
1761508083250861000,3.170861083984375,0.43842190504074097,-1.0448142290115356,0.7257941365242004
1761508083260831700,3.180831787109375,0.0954580157995224,-1.148432731628418,0.3715176582336426
1761508083270804000,3.190803955078125,-0.14393965899944305,-0.9209120869636536,0.05275433138012886
1761508083280775000,3.20077490234375,-0.24649186432361603,-0.40596911311149597,-0.16106942296028137
1761508083290747000,3.210746826171875,-0.19643773138523102,0.22240586578845978,-0.20409013330936432
1761508083300717800,3.2207177734375,-0.013975048437714577,0.7459967136383057,-0.07561178505420685
1761508083310690000,3.23068994140625,0.2187681794166565,1.0670125484466553,0.1481209248304367
1761508083320660700,3.24066064453125,0.3883942663669586,1.1802366971969604,0.3726886510848999
1761508083330631700,3.250631591796875,0.47774067521095276,1.0335301160812378,0.5204155445098877
1761508083340604000,3.26060400390625,0.46355265378952026,0.6718425750732422,0.5210137963294983
1761508083350574800,3.270574951171875,0.38919052481651306,0.24119320511817932,0.40702012181282043
1761508083360546800,3.280546875,0.30059564113616943,-0.14986471831798553,0.24417272210121155
1761508083370517800,3.290517822265625,0.2284194380044937,-0.4430857002735138,0.07327927649021149
1761508083380489700,3.30048974609375,0.22312234342098236,-0.6324933171272278,-0.06670106947422028
1761508083390460700,3.310460693359375,0.27581721544265747,-0.7323940396308899,-0.13456933200359344
1761508083400433000,3.320432861328125,0.33622753620147705,-0.7376163601875305,-0.11218710243701935
1761508083410403800,3.33040380859375,0.38669338822364807,-0.672204315662384,-0.017819853499531746
1761508083420374800,3.340374755859375,0.3974999189376831,-0.5899930000305176,0.09359785914421082
1761508083430346800,3.3503466796875,0.3605743944644928,-0.5111801624298096,0.1748623549938202
1761508083440318000,3.36031787109375,0.2899921238422394,-0.43860068917274475,0.17841513454914093
1761508083450290000,3.3702900390625,0.19707415997982025,-0.3887639045715332,0.10391026735305786
1761508083460260900,3.3802607421875,0.08945741504430771,-0.3477930426597595,0.002512010745704174
1761508083470233000,3.390233154296875,-0.02542683109641075,-0.3123924136161804,-0.11505110561847687
1761508083480203800,3.400203857421875,-0.11647641658782959,-0.27938637137413025,-0.2200399935245514
1761508083490176000,3.410176025390625,-0.17115724086761475,-0.24300280213356018,-0.2929767668247223
1761508083500147000,3.42014697265625,-0.17035317420959473,-0.18722933530807495,-0.3113483190536499
1761508083510118000,3.430117919921875,-0.1257886290550232,-0.1372295469045639,-0.2664503753185272
1761508083520089900,3.44008984375,-0.06040137633681297,-0.08776538819074631,-0.1717178374528885
1761508083530060800,3.450060791015625,0.014594299718737602,-0.03128427267074585,-0.034947481006383896
1761508083540032800,3.46003271484375,0.07176899909973145,-0.002261390211060643,0.102945975959301
1761508083550003700,3.470003662109375,0.08989500999450684,0.011261874809861183,0.19487908482551575
1761508083559976000,3.479975830078125,0.07200756669044495,0.041981667280197144,0.2301427721977234
1761508083569947000,3.48994677734375,0.0346577949821949,0.08279567956924438,0.202375590801239
1761508083579918800,3.4999189453125,0.011567560955882072,0.1514911949634552,0.14056149125099182
1761508083589889800,3.509889892578125,0.010295901447534561,0.2258884757757187,0.07945925742387772
1761508083599861800,3.51986181640625,0.01452535018324852,0.2933542728424072,0.0367380827665329
1761508083609832700,3.529832763671875,0.0015821210108697414,0.3525387644767761,0.010407141409814358
1761508083619804000,3.539803955078125,-0.016646388918161392,0.3714873492717743,-0.01387947890907526
1761508083629776000,3.54977587890625,-0.04659976065158844,0.33973076939582825,-0.06833633035421371
1761508083639746800,3.559746826171875,-0.059726979583501816,0.28679704666137695,-0.1336039900779724
1761508083649718800,3.56971875,-0.002900978084653616,0.1563522219657898,-0.1583775132894516
1761508083659690000,3.57968994140625,0.10401584953069687,-0.07913664728403091,-0.10111694782972336
1761508083669661700,3.58966162109375,0.17875027656555176,-0.4145311713218689,0.03291914612054825
1761508083679633000,3.5996328125,0.1917693316936493,-0.7700128555297852,0.18541118502616882
1761508083689603800,3.609603759765625,0.1593482792377472,-1.1325026750564575,0.2578297257423401
1761508083699575800,3.619575927734375,0.10478785634040833,-1.4344264268875122,0.2493630349636078
1761508083709546800,3.629546630859375,0.024952150881290436,-1.5926440954208374,0.16389048099517822
1761508083719519000,3.63951904296875,-0.09992584586143494,-1.4974005222320557,0.001385265146382153
1761508083729490000,3.649489990234375,-0.20622272789478302,-1.289065957069397,-0.1912052184343338
1761508083739462000,3.6594619140625,-0.23842813074588776,-1.1515532732009888,-0.3850151598453522
1761508083749432800,3.669432861328125,-0.22091597318649292,-1.0850735902786255,-0.5375463962554932
1761508083759404800,3.67940478515625,-0.23442552983760834,-0.9397463202476501,-0.650031566619873
1761508083769375700,3.689375732421875,-0.33983343839645386,-0.6531273126602173,-0.7616528868675232
1761508083779347000,3.699346923828125,-0.4933318793773651,-0.18174290657043457,-0.8836044669151306
1761508083789319000,3.70931884765625,-0.5766395330429077,0.4542471468448639,-0.9420949816703796
1761508083799289900,3.719289794921875,-0.45633330941200256,1.1209207773208618,-0.8863018751144409
1761508083809261800,3.72926171875,-0.15603235363960266,1.6327131986618042,-0.6892237067222595
1761508083819233000,3.73923291015625,0.1435948610305786,1.879238247871399,-0.337694376707077
1761508083829204700,3.749204833984375,0.3763282299041748,1.843430757522583,0.1274469494819641
1761508083839176000,3.759176025390625,0.5454304814338684,1.5389490127563477,0.6042456030845642
1761508083849148000,3.76914794921875,0.61883544921875,1.02621591091156,0.9790375828742981
1761508083859118800,3.779118896484375,0.5954538583755493,0.47673916816711426,1.1790410280227661
1761508083869090800,3.7890908203125,0.4912315905094147,-0.016892366111278534,1.179721713066101
1761508083879062000,3.79906201171875,0.3876688480377197,-0.33835116028785706,1.080219030380249
1761508083889033000,3.809032958984375,0.3130657374858856,-0.4380476772785187,0.9005346894264221
1761508083899005000,3.8190048828125,0.26832669973373413,-0.36504167318344116,0.6888028383255005
1761508083908975900,3.828975830078125,0.25120577216148376,-0.1926504671573639,0.5151370763778687
1761508083918947800,3.83894775390625,0.18534308671951294,-0.00867007952183485,0.378287136554718
1761508083928918800,3.848918701171875,0.06926121562719345,0.09880924224853516,0.2633213996887207
1761508083938891800,3.858891845703125,-0.07279293984174728,0.13201794028282166,0.15683268010616302
1761508083948862500,3.868862548828125,-0.2023746371269226,0.09397494792938232,0.028120243921875954
1761508083958833700,3.878833740234375,-0.271010160446167,0.023151373490691185,-0.12329138070344925
1761508083968805600,3.8888056640625,-0.28893643617630005,-0.0777086615562439,-0.26444771885871887
1761508083978776600,3.898776611328125,-0.30803340673446655,-0.18876032531261444,-0.34364116191864014
1761508083988748500,3.90874853515625,-0.31591397523880005,-0.27089086174964905,-0.3640425503253937
1761508083998719700,3.9187197265625,-0.3042912483215332,-0.30974510312080383,-0.3430810272693634
1761508084008691500,3.92869140625,-0.26516780257225037,-0.30362623929977417,-0.30057886242866516
1761508084018662700,3.93866259765625,-0.17932328581809998,-0.27947351336479187,-0.2379208356142044
1761508084028634600,3.948634521484375,-0.05862431228160858,-0.24448329210281372,-0.14918005466461182
1761508084038605600,3.95860546875,0.05144447833299637,-0.1551232784986496,-0.036487892270088196
1761508084048577500,3.96857763671875,0.11856518685817719,-0.04574405029416084,0.07096640020608902
1761508084058548700,3.978548828125,0.16627217829227448,0.06996751576662064,0.154984250664711
1761508084068519700,3.988519775390625,0.22890998423099518,0.18293960392475128,0.2192828208208084
1761508084078491600,3.99849169921875,0.26074308156967163,0.22932642698287964,0.2507708668708801
1761508084088462600,4.008462646484375,0.24539020657539368,0.1345123052597046,0.26381874084472656
1761508084098433500,4.01843359375,0.16913729906082153,-0.1271199733018875,0.23842673003673553
1761508084108405500,4.028405517578125,0.05781210586428642,-0.5135688185691833,0.14416280388832092
1761508084118376400,4.03837646484375,-0.07977285981178284,-0.9462258219718933,-0.04417647421360016
1761508084128348700,4.0483486328125,-0.24086055159568787,-1.280551552772522,-0.29473280906677246
1761508084138319600,4.058319580078125,-0.3552972972393036,-1.4094043970108032,-0.5690107941627502
1761508084148291600,4.06829150390625,-0.4072185456752777,-1.2924073934555054,-0.7586901783943176
1761508084158262500,4.078262451171875,-0.39627477526664734,-0.9785232543945312,-0.7805891036987305
1761508084168233700,4.088233642578125,-0.32309749722480774,-0.4921669065952301,-0.5916923880577087
1761508084178205400,4.098205322265625,-0.20460239052772522,0.07398620247840881,-0.2808964252471924
1761508084188176600,4.1081767578125,-0.06090887263417244,0.4965539574623108,-0.0059109218418598175
1761508084198148600,4.118148681640625,0.0884888619184494,0.7247315049171448,0.13121116161346436
1761508084208119600,4.12811962890625,0.19028232991695404,0.7188025116920471,0.14286036789417267
1761508084218091500,4.138091552734375,0.25966331362724304,0.5598910450935364,0.07137569040060043
1761508084228062700,4.148062744140625,0.2726038992404938,0.34405115246772766,-0.04581911489367485
1761508084238034400,4.158034423828125,0.2185732126235962,0.17108647525310516,-0.09618047624826431
1761508084248005600,4.168005615234375,0.17915281653404236,0.12669344246387482,-0.02286578342318535
1761508084257976600,4.1779765625,0.16753153502941132,0.2588920593261719,0.15614882111549377
1761508084267948500,4.187948486328125,0.18713773787021637,0.49471044540405273,0.37760746479034424
1761508084277919500,4.19791943359375,0.2688300609588623,0.7378093004226685,0.5664737224578857
1761508084287891700,4.2078916015625,0.3971419632434845,0.9350680112838745,0.700798511505127
1761508084297862700,4.217862548828125,0.4991409182548523,1.0297174453735352,0.7815737128257751
1761508084307834600,4.227834716796875,0.49685460329055786,1.0049338340759277,0.7784186601638794
1761508084317805600,4.2378056640625,0.37106868624687195,0.8980526328086853,0.6790511012077332
1761508084327777500,4.247777587890625,0.1693914830684662,0.7415517568588257,0.5006510019302368
1761508084337748500,4.25774853515625,-0.040385302156209946,0.5812550783157349,0.2587450444698334
1761508084347719700,4.2677197265625,-0.2274329513311386,0.44721654057502747,-0.0287285428494215
1761508084357691600,4.277691650390625,-0.341056227684021,0.37117841839790344,-0.3089751601219177
1761508084367662600,4.28766259765625,-0.38151097297668457,0.30762529373168945,-0.524723470211029
1761508084377634600,4.297634521484375,-0.35175955295562744,0.253186970949173,-0.6095378398895264
1761508084387605800,4.307605712890625,-0.26670271158218384,0.21464356780052185,-0.5636297464370728
1761508084397577500,4.317577392578125,-0.1535463184118271,0.13008564710617065,-0.4127621054649353
1761508084407548700,4.327548583984375,-0.05623680725693703,0.019497888162732124,-0.207455575466156
1761508084417520600,4.337520751953125,-0.01973927579820156,-0.1290402114391327,-0.01929064281284809
1761508084427491600,4.34749169921875,-0.04531174525618553,-0.2990732192993164,0.12197087705135345
1761508084437462500,4.357462646484375,-0.1172272115945816,-0.46616658568382263,0.16691544651985168
1761508084447434800,4.367434814453125,-0.19696058332920074,-0.6056821346282959,0.11250318586826324
1761508084457405400,4.377405517578125,-0.27317559719085693,-0.6952360272407532,-0.025676142424345016
1761508084467377700,4.387377685546875,-0.33206766843795776,-0.7084112167358398,-0.16600048542022705
1761508084477348600,4.3973486328125,-0.3194505274295807,-0.6181662678718567,-0.277808278799057
1761508084487321600,4.407321533203125,-0.2407008707523346,-0.43949052691459656,-0.3086860477924347
1761508084497292500,4.41729248046875,-0.09494399279356003,-0.18968506157398224,-0.2119046002626419
1761508084507264500,4.427264404296875,0.043226927518844604,0.04678340628743172,0.04032498225569725
1761508084517235500,4.4372353515625,0.1324119120836258,0.19317112863063812,0.401536226272583
1761508084527207700,4.447207763671875,0.20907819271087646,0.19143180549144745,0.7470025420188904
1761508084537178600,4.4571787109375,0.2472827136516571,0.08059787005186081,1.010909914970398
1761508084547150600,4.467150634765625,0.20140311121940613,-0.08034174889326096,1.1320276260375977
1761508084557121500,4.47712158203125,0.07782209664583206,-0.25276708602905273,1.1175509691238403
1761508084567093500,4.487093505859375,-0.062243398278951645,-0.41171467304229736,0.9580854177474976
1761508084577064400,4.497064453125,-0.18384067714214325,-0.5121976733207703,0.6842188835144043
1761508084587035600,4.50703564453125,-0.2793152630329132,-0.5380293130874634,0.31308844685554504
1761508084597007600,4.517007568359375,-0.41750022768974304,-0.5075553059577942,-0.05600658059120178
1761508084606978600,4.526978515625,-0.5955541133880615,-0.3671976625919342,-0.3837096095085144
1761508084616950500,4.536950439453125,-0.7859811186790466,-0.10172732174396515,-0.6988322138786316
1761508084626921700,4.546921630859375,-0.9356560707092285,0.22135967016220093,-0.9859086871147156
1761508084636893400,4.5568935546875,-1.016315221786499,0.4820604920387268,-1.2590022087097168
1761508084646864600,4.56686474609375,-1.0039892196655273,0.6132097244262695,-1.5004597902297974
1761508084656836600,4.576836669921875,-0.8917785882949829,0.7496266961097717,-1.5942482948303223
1761508084666807600,4.5868076171875,-0.7696627974510193,0.9567660093307495,-1.5540159940719604
1761508084676778500,4.596778564453125,-0.7493909597396851,1.193280816078186,-1.5162813663482666
1761508084686750700,4.606750732421875,-0.7659307718276978,1.3903722763061523,-1.5299556255340576
1761508084696721700,4.6167216796875,-0.7096971273422241,1.4829570055007935,-1.5452044010162354
1761508084706693600,4.626693603515625,-0.5541408061981201,1.4637396335601807,-1.4798754453659058
1761508084716664600,4.63666455078125,-0.32249191403388977,1.3593727350234985,-1.300423264503479
1761508084726636500,4.646636474609375,-0.03712940588593483,1.0836697816848755,-1.0447454452514648
1761508084736607500,4.656607421875,0.2091425508260727,0.5831074118614197,-0.8132917284965515
1761508084746578700,4.66657861328125,0.3565245270729065,0.006662147585302591,-0.6564019918441772
1761508084756550700,4.676550537109375,0.41017186641693115,-0.5569401979446411,-0.594900369644165
1761508084766521600,4.686521484375,0.41796615719795227,-1.0338680744171143,-0.6030504107475281
1761508084776493600,4.69649365234375,0.43487903475761414,-1.3479360342025757,-0.562599778175354
1761508084786464800,4.70646484375,0.48570334911346436,-1.4153447151184082,-0.4389207065105438
1761508084796436500,4.7164365234375,0.5768657326698303,-1.1744558811187744,-0.24508358538150787
1761508084806407700,4.72640771484375,0.6507452726364136,-0.7254842519760132,-0.013112146407365799
1761508084816379600,4.736379638671875,0.6295811533927917,-0.25079822540283203,0.2307574599981308
1761508084826350600,4.7463505859375,0.5005094408988953,0.0870991125702858,0.4652405381202698
1761508084836322600,4.756322509765625,0.3278673589229584,0.21234458684921265,0.6499924659729004
1761508084846293800,4.766293701171875,0.12230700254440308,0.18144606053829193,0.7455019354820251
1761508084856264700,4.7762646484375,-0.08867612481117249,0.14261490106582642,0.7377274632453918
1761508084866236700,4.786236572265625,-0.24661754071712494,0.16869790852069855,0.646923303604126
1761508084876207600,4.79620751953125,-0.28730499744415283,0.23493599891662598,0.5390840768814087
1761508084886179600,4.8061796875,-0.21268348395824432,0.3259170353412628,0.47597113251686096
1761508084896150500,4.816150634765625,-0.04726315289735794,0.4622122049331665,0.5372814536094666
1761508084906122800,4.826122802734375,0.15058362483978271,0.5760519504547119,0.6909072399139404
1761508084916093700,4.83609375,0.34320831298828125,0.5301396250724792,0.8573722839355469
1761508084926065700,4.846065673828125,0.5064582228660583,0.2917102575302124,1.0064719915390015
1761508084936036900,4.856036865234375,0.6076464653015137,-0.029898343607783318,1.107088565826416
1761508084946007800,4.8660078125,0.6262720823287964,-0.3422418534755707,1.119767665863037
1761508084955979800,4.875979736328125,0.5747073292732239,-0.5701844096183777,1.057472825050354
1761508084965950700,4.88595068359375,0.4886195659637451,-0.6433670520782471,0.9408923387527466
1761508084975923000,4.8959228515625,0.39262205362319946,-0.5351875424385071,0.8279380798339844
1761508084985893600,4.9058935546875,0.34545961022377014,-0.3527940511703491,0.7383893132209778
1761508084995865900,4.915865966796875,0.3190816342830658,-0.1827905923128128,0.6681923270225525
1761508085005836800,4.9258369140625,0.2923773229122162,-0.08089084923267365,0.639836311340332
1761508085015808800,4.935808837890625,0.2582026422023773,-0.0781375914812088,0.6378362774848938
1761508085025779700,4.94577978515625,0.20495004951953888,-0.15415459871292114,0.641191303730011
1761508085035751000,4.9557509765625,0.13869373500347137,-0.2553958296775818,0.59931480884552
1761508085045722600,4.96572265625,0.059526748955249786,-0.3715442717075348,0.45025816559791565
1761508085055693800,4.97569384765625,-0.0533737950026989,-0.545195996761322,0.1287251114845276
1761508085065665800,4.985665771484375,-0.20086684823036194,-0.811871349811554,-0.3599489629268646
1761508085075636700,4.99563671875,-0.37356987595558167,-1.106584072113037,-0.8485070466995239
1761508085085608700,5.005608642578125,-0.4883129596710205,-1.2036458253860474,-1.2194640636444092
1761508085095580000,5.015579833984375,-0.6042375564575195,-1.1544694900512695,-1.5114433765411377
1761508085105551600,5.025551513671875,-0.705802321434021,-0.9765124320983887,-1.6915552616119385
1761508085115522800,5.035522705078125,-0.703275203704834,-0.675309956073761,-1.6439704895019531
1761508085125493800,5.04549365234375,-0.5876566767692566,-0.3175811469554901,-1.3638924360275269
1761508085135466000,5.055466064453125,-0.3378942310810089,0.04815257713198662,-0.9176950454711914
1761508085145436700,5.065436767578125,-0.01596357300877571,0.28415924310684204,-0.39492079615592957
1761508085155409000,5.075408935546875,0.23619742691516876,0.25285494327545166,0.050488971173763275
1761508085165379800,5.0853798828125,0.3754599988460541,0.006360225845128298,0.33232012391090393
1761508085175351800,5.095351806640625,0.44058796763420105,-0.2770029306411743,0.4488428235054016
1761508085185322800,5.10532275390625,0.381560355424881,-0.44168058037757874,0.4282459318637848
1761508085195295000,5.115294921875,0.22978776693344116,-0.3903420567512512,0.345826119184494
1761508085205265700,5.125265625,0.08156714588403702,-0.15963904559612274,0.24782924354076385
1761508085215236600,5.135236572265625,0.003991282545030117,0.25747379660606384,0.19408626854419708
1761508085225208800,5.145208740234375,0.007413178216665983,0.7554574608802795,0.17899386584758759
1761508085235179800,5.1551796875,0.06332746148109436,1.177916407585144,0.20556104183197021
1761508085245151700,5.16515185546875,0.08628711104393005,1.4527368545532227,0.2164861261844635
1761508085255122700,5.175122802734375,0.06335651874542236,1.5592933893203735,0.2144649773836136
1761508085265094700,5.1850947265625,0.017153868451714516,1.4988292455673218,0.1278722882270813
1761508085275065600,5.195065673828125,-0.04980763792991638,1.3190690279006958,-0.04496138170361519
1761508085285037800,5.205037841796875,-0.10775855928659439,1.0893441438674927,-0.24619117379188538
1761508085295008800,5.2150087890625,-0.1565096080303192,0.8729327321052551,-0.4604467749595642
1761508085304979700,5.224979736328125,-0.18352845311164856,0.6669535040855408,-0.6261262893676758
1761508085314951700,5.23495166015625,-0.16664932668209076,0.5119526386260986,-0.6839921474456787
1761508085324923000,5.2449228515625,-0.07363282889127731,0.36635443568229675,-0.6585720181465149
1761508085334894600,5.25489453125,0.07108090817928314,0.23406343162059784,-0.5549700856208801
1761508085344865800,5.26486572265625,0.21149739623069763,0.13349154591560364,-0.39508235454559326
1761508085354837800,5.274837646484375,0.30586162209510803,0.05324087291955948,-0.2059486359357834
1761508085364808700,5.28480859375,0.37111279368400574,0.001596854068338871,-0.029080117121338844
1761508085374780700,5.29478076171875,0.37911257147789,-0.04873025417327881,0.13089832663536072
1761508085384751900,5.304751953125,0.33667269349098206,-0.1096295490860939,0.27604806423187256
1761508085394722800,5.314722900390625,0.2644701600074768,-0.152957022190094,0.4269067347049713
1761508085404694800,5.32469482421875,0.17591632902622223,-0.17656970024108887,0.5482001304626465
1761508085414665700,5.334665771484375,0.10497121512889862,-0.16909010708332062,0.6188682317733765
1761508085424637700,5.3446376953125,0.06489303708076477,-0.11055570095777512,0.6372680068016052
1761508085434608600,5.354608642578125,0.035378433763980865,-0.007842576131224632,0.6092713475227356
1761508085444580900,5.364580810546875,0.0066581061109900475,0.10916340351104736,0.5608087778091431
1761508085454551800,5.3745517578125,-0.027286184951663017,0.20859892666339874,0.5085426568984985
1761508085464523800,5.384523681640625,-0.03535210341215134,0.32606247067451477,0.4720299243927002
1761508085474494700,5.39449462890625,-0.0045274836011230946,0.44052574038505554,0.44494831562042236
1761508085484466000,5.4044658203125,0.04185066744685173,0.5374261736869812,0.4530709683895111
1761508085494437600,5.414437744140625,0.08137683570384979,0.5647539496421814,0.5072703957557678
1761508085504408800,5.424408935546875,0.09296265244483948,0.45524290204048157,0.5993278622627258
1761508085514380800,5.434380859375,0.07401113957166672,0.20707213878631592,0.6608229875564575
1761508085524351700,5.444351806640625,0.02583695389330387,-0.1266307234764099,0.654647946357727
1761508085534323700,5.45432373046875,-0.055494800209999084,-0.4477967321872711,0.5266696810722351
1761508085544295000,5.464294921875,-0.16386336088180542,-0.6616970300674438,0.22975121438503265
1761508085554266600,5.4742666015625,-0.2985411286354065,-0.7368649840354919,-0.215315043926239
1761508085564237800,5.48423779296875,-0.46537351608276367,-0.6563576459884644,-0.7103269100189209
1761508085574208800,5.494208740234375,-0.6584514379501343,-0.4388660788536072,-1.137829065322876
1761508085584180700,5.5041806640625,-0.8405298590660095,-0.1578804850578308,-1.4316675662994385
1761508085594151700,5.514151611328125,-0.966793954372406,0.1169477254152298,-1.5692702531814575
1761508085604124000,5.5241240234375,-0.9631571173667908,0.43588656187057495,-1.52732253074646
1761508085614094800,5.5340947265625,-0.8907197713851929,0.625015914440155,-1.4280494451522827
1761508085624066800,5.54406689453125,-0.789391815662384,0.6906327605247498,-1.3934130668640137
1761508085634037800,5.554037841796875,-0.6911816596984863,0.6885425448417664,-1.442539095878601
1761508085644009700,5.564009765625,-0.6383160352706909,0.571936845779419,-1.5862818956375122
1761508085653980700,5.573980712890625,-0.5569902062416077,0.3061341345310211,-1.7855304479599
1761508085663952000,5.583951904296875,-0.4868313670158386,0.009162936359643936,-1.9513291120529175
1761508085673923800,5.593923828125,-0.3362082540988922,-0.27436110377311707,-1.9570976495742798
1761508085683894800,5.603894775390625,-0.11985865235328674,-0.45512744784355164,-1.763338327407837
1761508085693866800,5.61386669921875,0.12654048204421997,-0.4886062443256378,-1.3754477500915527
1761508085703838000,5.623837890625,0.36256206035614014,-0.41047707200050354,-0.8732426762580872
1761508085713809700,5.6338095703125,0.5104699730873108,-0.255900114774704,-0.3793562352657318
1761508085723780900,5.64378076171875,0.6011521816253662,-0.04373752325773239,0.04962389916181564
1761508085733752800,5.6537529296875,0.6342074871063232,0.1937364786863327,0.3776077330112457
1761508085743723800,5.663723876953125,0.615244448184967,0.3766258656978607,0.5974977612495422
1761508085753694700,5.67369482421875,0.552832305431366,0.47478148341178894,0.7550327181816101
1761508085763667000,5.6836669921875,0.4771297872066498,0.4751226305961609,0.8906845450401306
1761508085773638000,5.693637939453125,0.40614956617355347,0.36118200421333313,1.057350516319275
1761508085783609900,5.70360986328125,0.33421066403388977,0.16055941581726074,1.26252019405365
1761508085793580800,5.713580810546875,0.24001894891262054,-0.05873635783791542,1.478203296661377
1761508085803552800,5.723552734375,0.15405957400798798,-0.21849539875984192,1.6556742191314697
1761508085813523700,5.733523681640625,0.1432044506072998,-0.33550047874450684,1.6961463689804077
1761508085823496000,5.743495849609375,0.19212938845157623,-0.33773568272590637,1.577830195426941
1761508085833467000,5.753466796875,0.24591287970542908,-0.2213665246963501,1.3183432817459106
1761508085843437600,5.7634375,0.2455163300037384,-0.026245241984725,0.9510520696640015
1761508085853409800,5.773409912109375,0.1659698337316513,0.1433151364326477,0.541026771068573
1761508085863380700,5.783380615234375,0.03594553470611572,0.2823158800601959,0.19707901775836945
1761508085873352700,5.793352783203125,-0.1467774659395218,0.41123905777931213,0.006419324316084385
1761508085883323600,5.80332373046875,-0.30342698097229004,0.49385589361190796,-0.044201772660017014
1761508085893295900,5.8132958984375,-0.384427934885025,0.4978886842727661,-0.006619816645979881
1761508085903266600,5.8232666015625,-0.3764437735080719,0.42994481325149536,0.07536346465349197
1761508085913238800,5.83323876953125,-0.29802051186561584,0.33819568157196045,0.18053987622261047
1761508085923209700,5.843209716796875,-0.15668630599975586,0.22933603823184967,0.3031667172908783
1761508085933180200,5.85318017578125,0.004643818363547325,0.08886463195085526,0.4323855936527252
1761508085943152000,5.863152099609375,0.142429918050766,-0.0668911412358284,0.5834324359893799
1761508085953123000,5.873123046875,0.244071364402771,-0.21124331653118134,0.7356024384498596
1761508085963095300,5.88309521484375,0.3377842903137207,-0.3295039236545563,0.8658068180084229
1761508085973066000,5.89306591796875,0.4147005081176758,-0.3755958080291748,0.976144552230835
1761508085983038200,5.9030380859375,0.5059667825698853,-0.3703773617744446,1.0710541009902954
1761508085993009200,5.913009033203125,0.5670421123504639,-0.349837064743042,1.1432957649230957
1761508086002981000,5.922981201171875,0.5662328004837036,-0.3541993200778961,1.1833525896072388
1761508086012952000,5.9329521484375,0.4277673363685608,-0.429177463054657,1.1337964534759521
1761508086022923000,5.942923095703125,0.0982496440410614,-0.615889310836792,0.903572678565979
1761508086032895000,5.95289501953125,-0.34519362449645996,-0.8374795317649841,0.46139174699783325
1761508086042866000,5.962865966796875,-0.7887473702430725,-0.9912054538726807,-0.1485094279050827
1761508086052838100,5.972838134765625,-1.1365406513214111,-0.9451240301132202,-0.6938484311103821
1761508086062809000,5.98280908203125,-1.314744472503662,-0.8178268074989319,-1.1040894985198975
1761508086072781000,5.992781005859375,-1.2098793983459473,-0.605479896068573,-1.2965246438980103
1761508086082752000,6.002751953125,-0.7244780659675598,-0.15269963443279266,-1.11721932888031
1761508086092724000,6.012723876953125,-0.05596734583377838,0.44740843772888184,-0.5719015598297119
1761508086102695000,6.02269482421875,0.39102134108543396,0.8091977834701538,0.05502680689096451
1761508086112666000,6.032666015625,0.4604654610157013,0.7578436732292175,0.4094139039516449
1761508086122638000,6.04263818359375,0.35945627093315125,0.3001919090747833,0.40588173270225525
1761508086132609000,6.052609130859375,0.14698724448680878,-0.21557053923606873,0.22406764328479767
1761508086142581000,6.0625810546875,-0.1083579733967781,-0.47137221693992615,-0.00121420924551785
1761508086152552200,6.07255224609375,-0.2554797828197479,-0.33201879262924194,-0.12810200452804565
1761508086162524000,6.08252392578125,-0.28982415795326233,0.17335145175457,-0.0786534920334816
1761508086172495000,6.0924951171875,-0.15418584644794464,0.8380162715911865,0.1508820652961731
1761508086182467000,6.102467041015625,0.12080498784780502,1.3902390003204346,0.44915929436683655
1761508086192438000,6.11243798828125,0.4120630621910095,1.7556332349777222,0.767633318901062
1761508086202409000,6.122408935546875,0.6678777933120728,1.8649860620498657,1.0151294469833374
1761508086212381200,6.132381103515625,0.8018483519554138,1.6546378135681152,1.0344741344451904
1761508086222352100,6.14235205078125,0.7704970836639404,1.2651512622833252,0.87284255027771
1761508086232324000,6.152323974609375,0.5617029666900635,0.8812365531921387,0.5702927708625793
1761508086242295000,6.162294921875,0.2778955101966858,0.5827713012695312,0.20398801565170288
1761508086252267000,6.17226708984375,-0.012640342116355896,0.388837605714798,-0.15916533768177032
1761508086262238000,6.182238037109375,-0.2602884769439697,0.2887597382068634,-0.46270284056663513
1761508086272210200,6.192210205078125,-0.406133234500885,0.26444318890571594,-0.6486381888389587
1761508086282181000,6.20218115234375,-0.46008726954460144,0.24752917885780334,-0.7083486914634705
1761508086292152000,6.212152099609375,-0.4260455071926117,0.23590447008609772,-0.6431004405021667
1761508086302124000,6.2221240234375,-0.3369121551513672,0.14640015363693237,-0.5446676015853882
1761508086312095200,6.23209521484375,-0.22514288127422333,-0.03269560635089874,-0.4642438292503357
1761508086322067000,6.24206689453125,-0.13970281183719635,-0.26424095034599304,-0.4192526638507843
1761508086332038100,6.2520380859375,-0.09688355028629303,-0.5284010767936707,-0.3906909227371216
1761508086342010000,6.262010009765625,-0.07393588870763779,-0.7924119234085083,-0.36708253622055054
1761508086351981000,6.27198095703125,-0.035011813044548035,-0.9866406321525574,-0.28501591086387634
1761508086361953000,6.281953125,-0.004647781141102314,-1.0408660173416138,-0.15005037188529968
1761508086371924200,6.29192431640625,0.033924300223588943,-0.9372121691703796,0.007418123539537191
1761508086381895200,6.301895263671875,0.10765205323696136,-0.7010909914970398,0.18705900013446808
1761508086391867100,6.3118671875,0.20491185784339905,-0.4038597345352173,0.36405149102211
1761508086401838000,6.321838134765625,0.29782554507255554,-0.06854193657636642,0.5347428321838379
1761508086411810000,6.33181005859375,0.3513640761375427,0.28856030106544495,0.6912739276885986
1761508086421781000,6.341781005859375,0.41383329033851624,0.5651351809501648,0.8320643305778503
1761508086431753200,6.351753173828125,0.451373815536499,0.6270328760147095,0.9789243340492249
1761508086441724200,6.36172412109375,0.44573351740837097,0.4796047806739807,1.1023166179656982
1761508086451695000,6.371695068359375,0.399153470993042,0.12200582027435303,1.1478400230407715
1761508086461667000,6.3816669921875,0.3165704607963562,-0.35395750403404236,1.0659486055374146
1761508086471638300,6.39163818359375,0.22522902488708496,-0.8425151109695435,0.8509502410888672
1761508086481610000,6.40160986328125,0.13427196443080902,-1.2509090900421143,0.5050596594810486
1761508086491581200,6.411581298828125,0.02140798792243004,-1.5270389318466187,0.1138213723897934
1761508086501553200,6.42155322265625,-0.0999368205666542,-1.564077377319336,-0.2497006356716156
1761508086511524000,6.431524169921875,-0.24415640532970428,-1.2551740407943726,-0.5412502288818359
1761508086521496000,6.44149609375,-0.3593892455101013,-0.6884334683418274,-0.7617000937461853
1761508086531467300,6.45146728515625,-0.4905191957950592,-0.04887664318084717,-0.9772304892539978
1761508086541439000,6.46143896484375,-0.6862471699714661,0.47398149967193604,-1.2773269414901733
1761508086551410200,6.47141015625,-0.8745604157447815,0.8530451059341431,-1.678490400314331
1761508086561381000,6.481381103515625,-1.0262967348098755,1.135549783706665,-2.1060562133789062
1761508086571353000,6.49135302734375,-1.1005138158798218,1.329990029335022,-2.440877914428711
1761508086581324000,6.501323974609375,-1.0303528308868408,1.3681886196136475,-2.5744004249572754
1761508086591296300,6.511296142578125,-0.7827032804489136,1.268794059753418,-2.4281158447265625
1761508086601267200,6.52126708984375,-0.4314379394054413,0.9626418948173523,-2.0872035026550293
1761508086611239200,6.5312392578125,-0.09667734801769257,0.45407724380493164,-1.709572434425354
1761508086621210000,6.541210205078125,0.14849485456943512,-0.1217312216758728,-1.3647056818008423
1761508086631181000,6.55118115234375,0.3220599293708801,-0.5423410534858704,-1.0220085382461548
1761508086641153000,6.561153076171875,0.4648793935775757,-0.8037649393081665,-0.7098812460899353
1761508086651124000,6.5711240234375,0.576714813709259,-1.0149105787277222,-0.4156026244163513
1761508086661096200,6.58109619140625,0.6056263446807861,-1.1199296712875366,-0.15013235807418823
1761508086671067000,6.59106689453125,0.5466163158416748,-1.0624079704284668,0.019947726279497147
1761508086681039000,6.6010390625,0.4047529399394989,-0.8262098431587219,0.09126744419336319
1761508086691010000,6.611010009765625,0.22165334224700928,-0.5033411979675293,0.08630932867527008
1761508086700982000,6.62098193359375,0.0884295254945755,-0.20210494101047516,0.01600240357220173
1761508086710953000,6.630952880859375,0.0698404312133789,0.040261588990688324,-0.06451435387134552
1761508086720924200,6.640924072265625,0.1841323971748352,0.19779075682163239,-0.07573025673627853
1761508086730896000,6.650895751953125,0.33876270055770874,0.2474902868270874,0.026130367070436478
1761508086740867000,6.6608671875,0.46911856532096863,0.13957899808883667,0.23186355829238892
1761508086750839000,6.670839111328125,0.5179638266563416,-0.13063032925128937,0.42420175671577454
1761508086760810200,6.680810302734375,0.496182382106781,-0.49831196665763855,0.5361741185188293
1761508086770782000,6.690781982421875,0.39975854754447937,-0.8557564616203308,0.5812560319900513
1761508086780753200,6.700753173828125,0.2605830729007721,-1.0631877183914185,0.5556566715240479
1761508086790725000,6.71072509765625,0.11996053904294968,-0.9903198480606079,0.4821317791938782
1761508086800696000,6.720696044921875,0.03645765781402588,-0.7153971791267395,0.36628374457359314
1761508086810667000,6.7306669921875,-0.0005683926865458488,-0.40155932307243347,0.24150308966636658
1761508086820639200,6.74063916015625,-0.018094655126333237,-0.12887506186962128,0.1642029881477356
1761508086830610000,6.75060986328125,-0.04575565829873085,0.05157119780778885,0.14734551310539246
1761508086840582100,6.76058203125,-0.059083178639411926,0.12595728039741516,0.1843397468328476
1761508086850553000,6.770552978515625,-0.03127185255289078,0.15318666398525238,0.2585122883319855
1761508086860525000,6.780525146484375,0.03436308354139328,0.19475995004177094,0.38599035143852234
1761508086870496000,6.79049609375,0.11177664250135422,0.22799773514270782,0.5536884665489197
1761508086880468200,6.80046826171875,0.1644214689731598,0.2488710582256317,0.7430557012557983
1761508086890439000,6.81043896484375,0.18196715414524078,0.22484096884727478,0.9180904030799866
1761508086900410000,6.82041015625,0.17737427353858948,0.15502619743347168,1.0422544479370117
1761508086910382000,6.830382080078125,0.1808883547782898,0.09229963272809982,1.1127655506134033
1761508086920353300,6.840353271484375,0.17075982689857483,0.06988940387964249,1.1335529088974
1761508086930325000,6.850324951171875,0.13095003366470337,0.05355020985007286,1.1030948162078857
1761508086940295700,6.860295654296875,-0.02033056877553463,-0.04258617386221886,0.9854291081428528
1761508086950268000,6.870267822265625,-0.25683581829071045,-0.2276698797941208,0.7676170468330383
1761508086960238600,6.880238525390625,-0.4662263095378876,-0.39205271005630493,0.45883628726005554
1761508086970210800,6.8902109375,-0.6261406540870667,-0.5577253699302673,0.10486745089292526
1761508086980181800,6.900181640625,-0.7348516583442688,-0.6052348017692566,-0.16180844604969025
1761508086990153000,6.910153076171875,-0.7984139323234558,-0.5173465013504028,-0.3415679335594177
1761508087000124700,6.920124755859375,-0.8036984205245972,-0.33984097838401794,-0.4153425693511963
1761508087010095900,6.930095947265625,-0.6342571973800659,-0.03828217834234238,-0.2757013142108917
1761508087020067600,6.940067626953125,-0.2501445710659027,0.4555833637714386,0.15319085121154785
1761508087030038800,6.950038818359375,0.16081355512142181,0.9355209469795227,0.7278133034706116
1761508087040010800,6.9600107421875,0.4313789904117584,1.1940635442733765,1.2155197858810425
1761508087049982000,6.96998193359375,0.5602838397026062,1.1135714054107666,1.4474023580551147
1761508087059953700,6.97995361328125,0.5264451503753662,0.7217493057250977,1.4098753929138184
1761508087069924900,6.9899248046875,0.35851919651031494,0.20893767476081848,1.1641044616699219
1761508087079895800,6.999895751953125,0.11938678473234177,-0.13666526973247528,0.7574880123138428
1761508087089867800,7.00986767578125,-0.08733782917261124,-0.20090816915035248,0.2844076454639435
1761508087099838700,7.019838623046875,-0.1847618669271469,-0.03179078549146652,-0.08769986778497696
1761508087109811000,7.02981103515625,-0.23405785858631134,0.31978827714920044,-0.26752185821533203
1761508087119781600,7.03978173828125,-0.2162514328956604,0.789643406867981,-0.2725323438644409
1761508087129753900,7.04975390625,-0.13730888068675995,1.234462022781372,-0.11490295082330704
1761508087139724800,7.059724853515625,-0.03712688013911247,1.5305365324020386,0.11441092938184738
1761508087149695700,7.06969580078125,0.06451880186796188,1.66854989528656,0.3127100169658661
1761508087159667700,7.079667724609375,0.133672833442688,1.6168204545974731,0.4283447265625
1761508087169638700,7.089638671875,0.12560322880744934,1.4099243879318237,0.47094079852104187
1761508087179610600,7.099610595703125,0.04826983064413071,1.0813770294189453,0.4294418394565582
1761508087189581600,7.10958154296875,-0.05945172905921936,0.7042950391769409,0.3199724555015564
1761508087199553800,7.1195537109375,-0.1464974284172058,0.3891887068748474,0.15186335146427155
1761508087209524700,7.129524658203125,-0.16086944937705994,0.1759617030620575,-0.023388713598251343
1761508087219496700,7.13949658203125,-0.11770252883434296,0.05807475745677948,-0.19654452800750732
1761508087229467600,7.149467529296875,-0.04499213024973869,0.008915345184504986,-0.3038621246814728
1761508087239438800,7.15943896484375,0.028350260108709335,-0.022064941003918648,-0.29604122042655945
1761508087249410600,7.16941064453125,0.07820608466863632,-0.07798382639884949,-0.20278750360012054
1761508087259381800,7.1793818359375,0.11345488578081131,-0.1724480241537094,-0.08767583221197128
1761508087269353700,7.189353759765625,0.13450026512145996,-0.25936606526374817,-0.0005000634118914604
1761508087279324700,7.19932470703125,0.14853698015213013,-0.33454790711402893,0.0324336513876915
1761508087289296600,7.209296630859375,0.14267823100090027,-0.39392051100730896,0.0076745483092963696
1761508087299267800,7.219267822265625,0.09434159100055695,-0.42463263869285583,-0.05358614772558212
1761508087309239600,7.229239501953125,0.017637530341744423,-0.4065571427345276,-0.14086349308490753
1761508087319210800,7.239210693359375,-0.041075050830841064,-0.31753966212272644,-0.24517923593521118
1761508087329181700,7.249181640625,-0.05290423333644867,-0.14418557286262512,-0.32304540276527405
1761508087339153700,7.259153564453125,0.0014532804489135742,0.060589682310819626,-0.2835161089897156
1761508087349124600,7.26912451171875,0.07707447558641434,0.22400902211666107,-0.07650458812713623
1761508087359096800,7.279096923828125,0.1468045562505722,0.3022513687610626,0.2730454206466675
1761508087369067800,7.28906787109375,0.21267832815647125,0.34814387559890747,0.635735034942627
1761508087379039700,7.299039794921875,0.29143068194389343,0.32639357447624207,0.9082395434379578
1761508087389010700,7.3090107421875,0.32913413643836975,0.2238103449344635,1.0823508501052856
1761508087398982700,7.318982666015625,0.2935822606086731,0.05808848515152931,1.144137978553772
1761508087408953600,7.32895361328125,0.2059265673160553,-0.14122585952281952,1.0576897859573364
1761508087418924800,7.3389248046875,0.08474954962730408,-0.3582007586956024,0.8547657132148743
1761508087428896800,7.348896728515625,-0.036822352558374405,-0.5052129626274109,0.5479318499565125
1761508087438867700,7.35886767578125,-0.1248808354139328,-0.5234561562538147,0.1833208203315735
1761508087448839700,7.368839599609375,-0.20533117651939392,-0.4358181059360504,-0.12341723591089249
1761508087458811000,7.378810791015625,-0.2854611575603485,-0.27822473645210266,-0.2981528341770172
1761508087468782600,7.388782470703125,-0.36823713779449463,-0.08294730633497238,-0.35289210081100464
1761508087478753800,7.39875390625,-0.4292357861995697,0.1190987378358841,-0.31526029109954834
1761508087488725800,7.408725830078125,-0.4212554097175598,0.2594406008720398,-0.22630728781223297
1761508087498696700,7.41869677734375,-0.3637641668319702,0.2891758382320404,-0.12179765105247498
1761508087508667600,7.428667724609375,-0.3002440631389618,0.25664472579956055,-0.05230729654431343
1761508087518639900,7.438639892578125,-0.3046625256538391,0.19630999863147736,-0.0699525997042656
1761508087528610800,7.44861083984375,-0.3682301342487335,0.09297826886177063,-0.19149371981620789
1761508087538582800,7.458582763671875,-0.4725040793418884,-0.05360690876841545,-0.42060384154319763
1761508087548553700,7.4685537109375,-0.5783280730247498,-0.20728762447834015,-0.7165586948394775
1761508087558525700,7.478525634765625,-0.6458306908607483,-0.29372265934944153,-1.0426175594329834
1761508087568496600,7.48849658203125,-0.5925408601760864,-0.2658964991569519,-1.320436954498291
1761508087578468900,7.49846875,-0.3967631459236145,-0.06024402007460594,-1.3984452486038208
1761508087588439800,7.508439697265625,-0.1734260767698288,0.2873721420764923,-1.2056137323379517
1761508087598410500,7.518410400390625,-0.06552676111459732,0.6219123005867004,-0.8066946268081665
1761508087608382700,7.5283828125,-0.053772736340761185,0.899008572101593,-0.3043631911277771
1761508087618353700,7.538353759765625,-0.06929071247577667,1.031713604927063,0.10916925221681595
1761508087628325600,7.54832568359375,-0.08461783081293106,1.0774410963058472,0.43080079555511475
1761508087638296600,7.558296630859375,-0.10481817275285721,1.040527582168579,0.6525483131408691
1761508087648268800,7.568268798828125,-0.14531053602695465,0.9629822373390198,0.7972691655158997
1761508087658239500,7.578239501953125,-0.23429660499095917,0.9271703958511353,0.8682032823562622
1761508087668210700,7.588210693359375,-0.38710492849349976,0.940868079662323,0.8288073539733887
1761508087678183000,7.598182861328125,-0.544736385345459,0.9795651435852051,0.6520221829414368
1761508087688153900,7.60815380859375,-0.6180437803268433,1.0072507858276367,0.3554985821247101
1761508087698125800,7.618125732421875,-0.5894118547439575,1.0031561851501465,0.02240452729165554
1761508087708096800,7.6280966796875,-0.4724121689796448,0.9618096351623535,-0.23312129080295563
1761508087718068700,7.63806884765625,-0.2845091223716736,0.8774920701980591,-0.34288719296455383
1761508087728039700,7.648039794921875,-0.09041843563318253,0.6776729822158813,-0.27837058901786804
1761508087738012000,7.658011962890625,0.027710337191820145,0.3741075098514557,-0.07539724558591843
1761508087747982800,7.66798291015625,0.07977268099784851,0.013718601316213608,0.16902504861354828
1761508087757953500,7.67795361328125,0.10147344321012497,-0.3689078688621521,0.3579965829849243
1761508087767925800,7.68792578125,0.13445408642292023,-0.6738409996032715,0.45455238223075867
1761508087777896700,7.697896728515625,0.1704360544681549,-0.8689244985580444,0.41944923996925354
1761508087787868700,7.70786865234375,0.17079037427902222,-0.9684335589408875,0.2850230932235718
1761508087797839600,7.717839599609375,0.11135422438383102,-0.9879095554351807,0.10239976644515991
1761508087807811800,7.727811767578125,0.011286213994026184,-0.8701983690261841,-0.060361720621585846
1761508087817782500,7.737782470703125,-0.08245892077684402,-0.6530961394309998,-0.1995672881603241
1761508087827754800,7.747754638671875,-0.16205304861068726,-0.3805694580078125,-0.27561408281326294
1761508087837725700,7.7577255859375,-0.23743382096290588,-0.16264912486076355,-0.2705157399177551
1761508087847697000,7.76769677734375,-0.296825647354126,-0.04125574231147766,-0.18551233410835266
1761508087857668600,7.777668701171875,-0.3229515254497528,0.019854484125971794,-0.056159671396017075
1761508087867639800,7.787639892578125,-0.3024352490901947,0.03037392906844616,0.06612994521856308
1761508087877611500,7.797611572265625,-0.25829175114631653,-0.005535868927836418,0.1568388044834137
1761508087887582700,7.807582763671875,-0.20131991803646088,-0.08382799476385117,0.22529657185077667
1761508087897554700,7.8175546875,-0.14352452754974365,-0.18237853050231934,0.2627749741077423
1761508087907526000,7.82752587890625,-0.07965274900197983,-0.2528795897960663,0.27850469946861267
1761508087917497600,7.83749755859375,-0.006676537916064262,-0.30694496631622314,0.28065839409828186
1761508087927468800,7.84746875,0.09640992432832718,-0.354367733001709,0.29615530371665955
1761508087937439700,7.857439697265625,0.2046133577823639,-0.4540730118751526,0.30437514185905457
1761508087947411700,7.86741162109375,0.25885483622550964,-0.6219571232795715,0.2963951826095581
1761508087957382700,7.877382568359375,0.21672390401363373,-0.832243800163269,0.20788902044296265
1761508087967355000,7.88735498046875,0.1259942650794983,-1.0038546323776245,0.00799093209207058
1761508087977325600,7.89732568359375,0.024537954479455948,-1.1048794984817505,-0.28638955950737
1761508087987297800,7.9072978515625,-0.08848308771848679,-1.1117428541183472,-0.6191121339797974
1761508087997268700,7.917268798828125,-0.14832139015197754,-0.9997853636741638,-0.886256217956543
1761508088007240700,7.92724072265625,-0.16544528305530548,-0.8477230668067932,-1.0389081239700317
1761508088017211600,7.937211669921875,-0.2666454017162323,-0.7976034283638,-1.1322327852249146
1761508088027182800,7.947182861328125,-0.5134832859039307,-0.8792246580123901,-1.2299665212631226
1761508088037154600,7.957154541015625,-0.4020549952983856,-0.635204017162323,-1.107672095298767
1761508088047125800,7.967125732421875,0.11239677667617798,-0.025894606485962868,-0.7096100449562073
1761508088057097700,7.97709765625,0.6326221227645874,0.6172230839729309,-0.08692564815282822
1761508088067069000,7.98706884765625,0.9070448875427246,0.9505252838134766,0.638292133808136
1761508088077040600,7.99704052734375,0.9540954828262329,0.8443577885627747,1.1351900100708008
1761508088087010600,8.007010498046874,0.8206022381782532,0.3865796625614166,1.3048750162124634
1761508088096981800,8.016981689453125,0.5598148703575134,-0.10769345611333847,1.1551669836044312
1761508088106953700,8.02695361328125,0.32339075207710266,-0.33658567070961,0.7381728291511536
1761508088116924700,8.036924560546876,0.24544668197631836,-0.2990899384021759,0.20214244723320007
1761508088126896600,8.046896728515625,0.2716538608074188,-0.03003721684217453,-0.23987925052642822
1761508088136867800,8.056867919921874,0.2698788642883301,0.359596848487854,-0.4093843996524811
1761508088146838800,8.0668388671875,0.1803532987833023,0.7196018695831299,-0.3634796440601349
1761508088156810800,8.076810791015625,0.05417513847351074,0.9078822731971741,-0.24850910902023315
1761508088166781700,8.08678173828125,-0.03066825307905674,0.9568310379981995,-0.21219682693481445
1761508088176753700,8.096753662109375,-0.06289143860340118,0.9233329892158508,-0.2648262083530426
1761508088186724600,8.106724609375,-0.04487691819667816,0.8110551238059998,-0.3304491639137268
1761508088196696800,8.11669677734375,0.0055979713797569275,0.6144019961357117,-0.38865575194358826
1761508088206667800,8.126667724609375,0.06454942375421524,0.3457133173942566,-0.43078625202178955
1761508088216639700,8.1366396484375,0.10603269189596176,0.055474549531936646,-0.4472048878669739
1761508088226610700,8.146610595703125,0.12562550604343414,-0.21858607232570648,-0.4340662956237793
1761508088236582000,8.156581787109374,0.150274395942688,-0.43864092230796814,-0.4209712743759155
1761508088246553600,8.1665537109375,0.19889691472053528,-0.591264009475708,-0.4243718087673187
1761508088256524800,8.17652490234375,0.2774050533771515,-0.7001084685325623,-0.4290677607059479
1761508088266496800,8.186496826171876,0.35303187370300293,-0.7477335929870605,-0.3935320973396301
1761508088276467700,8.1964677734375,0.40450146794319153,-0.7647953629493713,-0.3302029073238373
1761508088286439700,8.206439697265624,0.3846043348312378,-0.703125536441803,-0.24162840843200684
1761508088296411000,8.216410888671875,0.3057350814342499,-0.531786322593689,-0.17535777390003204
1761508088306381800,8.2263818359375,0.16971127688884735,-0.2776499092578888,-0.11733902990818024
1761508088316353800,8.236353759765626,0.01668044924736023,-0.00034161657094955444,-0.05243885889649391
1761508088326324700,8.24632470703125,-0.11506050825119019,0.25545352697372437,0.025424212217330933
1761508088336296700,8.256296630859374,-0.19618946313858032,0.4177689552307129,0.11405713856220245
1761508088346267600,8.266267578125,-0.20528411865234375,0.5101138353347778,0.19313494861125946
1761508088356240000,8.276239990234375,-0.19131742417812347,0.5746238827705383,0.2612285017967224
1761508088366210800,8.2862109375,-0.17092621326446533,0.6042445302009583,0.32406848669052124
1761508088376182800,8.296182861328125,-0.14931945502758026,0.5834639072418213,0.3765500783920288
1761508088386153700,8.30615380859375,-0.12909767031669617,0.5086089372634888,0.40893980860710144
1761508088396125000,8.316125,-0.09837251156568527,0.4073629677295685,0.4181234538555145
1761508088406096600,8.3260966796875,-0.06692804396152496,0.30032938718795776,0.38827621936798096
1761508088416067800,8.33606787109375,-0.02672043815255165,0.2235446274280548,0.3463284969329834
1761508088426039800,8.346039794921875,0.024115264415740967,0.17841081321239471,0.30509036779403687
1761508088436010800,8.3560107421875,0.07094189524650574,0.15454116463661194,0.29460710287094116
1761508088445982700,8.365982666015626,0.10133131593465805,0.14122219383716583,0.31849250197410583
1761508088455954000,8.375953857421875,0.12045121192932129,0.1473144292831421,0.35392799973487854
1761508088465925600,8.385925537109374,0.12149428576231003,0.16405744850635529,0.38294628262519836
1761508088475896800,8.395896728515625,0.09417344629764557,0.16601087152957916,0.3994792103767395
1761508088485867800,8.40586767578125,0.07050573825836182,0.08636404573917389,0.3925594687461853
1761508088495839700,8.41583984375,0.07460860908031464,-0.04628534987568855,0.36111578345298767
1761508088505810700,8.425810791015625,0.1038229838013649,-0.2536271810531616,0.3032803237438202
1761508088515783000,8.435782958984374,0.12116388976573944,-0.49195054173469543,0.24097327888011932
1761508088525753900,8.44575390625,0.10203737020492554,-0.6749765872955322,0.1806759238243103
1761508088535725800,8.455725830078125,0.0718459039926529,-0.7089684009552002,0.11627243459224701
1761508088545696800,8.46569677734375,0.023410987108945847,-0.6276559829711914,0.016599256545305252
1761508088555668700,8.475668701171875,-0.06139098480343819,-0.4687662422657013,-0.13597777485847473
1761508088565639700,8.4856396484375,-0.18826308846473694,-0.3157806694507599,-0.36507031321525574
1761508088575610600,8.495610595703125,-0.28795987367630005,-0.23495693504810333,-0.639011025428772
1761508088585582800,8.505582763671875,-0.36713820695877075,-0.23030096292495728,-0.8912888765335083
1761508088595553500,8.515553466796876,-0.4294354021549225,-0.25335437059402466,-1.0335216522216797
1761508088605525800,8.52552587890625,-0.4429037570953369,-0.24945682287216187,-1.0483391284942627
1761508088615496700,8.53549658203125,-0.3678915500640869,-0.13293980062007904,-0.9043430685997009
1761508088625468700,8.54546875,-0.18799026310443878,0.1283257156610489,-0.6210731267929077
1761508088635439600,8.555439697265625,0.043605681508779526,0.45732995867729187,-0.2330891340970993
1761508088645411800,8.565411865234376,0.18185925483703613,0.7342063784599304,0.1626085340976715
1761508088655382500,8.575382568359375,0.21139371395111084,0.9579542875289917,0.4052923023700714
1761508088665353700,8.585353759765624,0.16577662527561188,1.1115622520446777,0.4520954191684723
1761508088675325700,8.59532568359375,0.024895407259464264,1.1985269784927368,0.38595980405807495
1761508088685297000,8.605296875,-0.15102796256542206,1.1992316246032715,0.24006453156471252
1761508088695268600,8.6152685546875,-0.2508957087993622,1.1444979906082153,0.0709812343120575
1761508088705239800,8.62523974609375,-0.2424776405096054,1.1025042533874512,-0.0964304730296135
1761508088715211500,8.63521142578125,-0.20896868407726288,1.1543614864349365,-0.1905766874551773
1761508088725182700,8.6451826171875,-0.2215534895658493,1.3484176397323608,-0.1383662074804306
1761508088735153700,8.655153564453125,-0.27625614404678345,1.5668208599090576,0.05429112911224365
1761508088745126000,8.6651259765625,-0.3136789798736572,1.6313484907150269,0.3437016010284424
1761508088755096600,8.6750966796875,-0.28044378757476807,1.4979948997497559,0.5705959796905518
1761508088765068800,8.68506884765625,-0.19639478623867035,1.200423240661621,0.6683613657951355
1761508088775039700,8.695039794921875,-0.10728887468576431,0.8657054305076599,0.601681113243103
1761508088785011700,8.70501171875,-0.04184800386428833,0.5248641967773438,0.3207995891571045
1761508088794982700,8.714982666015626,-0.0077020167373120785,0.19206465780735016,-0.08333057165145874
1761508088804955000,8.724954833984375,-0.004792144522070885,-0.1064537763595581,-0.5129438042640686
1761508088814925600,8.734925537109374,-0.021157268434762955,-0.3805697560310364,-0.8130037784576416
1761508088824896800,8.744896728515625,-0.014926481992006302,-0.5437592267990112,-0.9053182601928711
1761508088834868700,8.75486865234375,0.024519992992281914,-0.6111246943473816,-0.8248783349990845
1761508088844840000,8.76483984375,0.09200270473957062,-0.5915055871009827,-0.57949298620224
1761508088854811600,8.774811767578125,0.1529209017753601,-0.5489884614944458,-0.2414877563714981
1761508088864782800,8.784782958984374,0.21178579330444336,-0.5140947699546814,0.1185351014137268
1761508088874754600,8.794754638671876,0.24989163875579834,-0.46009278297424316,0.45924311876296997
1761508088884725800,8.804725830078125,0.25982174277305603,-0.3629198670387268,0.7295889258384705
1761508088894697700,8.81469775390625,0.24754992127418518,-0.24558980762958527,0.9001835584640503
1761508088904669000,8.8246689453125,0.21026189625263214,-0.13993249833583832,0.9756110310554504
1761508088914639600,8.8346396484375,0.15741731226444244,-0.0432264618575573,0.9946025609970093
1761508088924611800,8.84461181640625,0.09498517960309982,-0.01254289224743843,0.9697090983390808
1761508088934582800,8.854582763671875,0.03676661103963852,-0.03623330593109131,0.9078710079193115
1761508088944555000,8.864554931640624,0.008716676384210587,-0.10916391015052795,0.8547604084014893
1761508088954526200,8.874526123046875,0.007349675986915827,-0.18975383043289185,0.8515358567237854
1761508088964498000,8.884497802734375,-0.01987067237496376,-0.24842287600040436,0.8596181869506836
1761508088974469000,8.89446923828125,-0.13910198211669922,-0.3092936873435974,0.8452759981155396
1761508088984441000,8.904441162109375,-0.2972654104232788,-0.3855244815349579,0.7960435748100281
1761508088994412300,8.914412353515624,-0.4451952278614044,-0.42576244473457336,0.6914843916893005
1761508089004383000,8.924383056640625,-0.5256239771842957,-0.45379623770713806,0.48239076137542725
1761508089014355200,8.934355224609375,-0.5041769742965698,-0.5176876187324524,0.2209775447845459
1761508089024326100,8.944326171875,-0.4450686275959015,-0.6787800192832947,-0.037097565829753876
1761508089034298000,8.954298095703125,-0.4131695628166199,-0.8287777304649353,-0.2249782532453537
1761508089044269000,8.96426904296875,-0.381595641374588,-0.9143515229225159,-0.313161700963974
1761508089054241300,8.9742412109375,-0.13466227054595947,-0.8552597165107727,-0.23911651968955994
1761508089064212000,8.9842119140625,0.3093240261077881,-0.5632987022399902,0.06808482110500336
1761508089074184200,8.99418408203125,0.6705889701843262,-0.19236215949058533,0.621781051158905
1761508089084155100,9.004155029296875,0.7174558639526367,0.0808078870177269,1.282455325126648
1761508089094126000,9.0141259765625,0.49497488141059875,0.21468792855739594,1.7983602285385132
1761508089104098000,9.02409814453125,0.2591730058193207,0.29217860102653503,1.9772534370422363
1761508089114069000,9.034069091796875,0.07623249292373657,0.4386117160320282,1.846372127532959
1761508089124041000,9.044041015625,-0.08280634880065918,0.707069993019104,1.5388778448104858
1761508089134012000,9.054011962890625,-0.19165480136871338,1.0474579334259033,1.1615945100784302
1761508089143984000,9.063984130859374,-0.24183222651481628,1.4029749631881714,0.8136506676673889
1761508089153955000,9.073955078125,-0.23631414771080017,1.6843427419662476,0.5276389122009277
1761508089163927000,9.083927001953125,-0.19913136959075928,1.8191478252410889,0.31399208307266235
1761508089173898000,9.09389794921875,-0.1395876258611679,1.7726210355758667,0.17480194568634033
1761508089183869200,9.103869140625,-0.09667232632637024,1.5626380443572998,0.11066567897796631
1761508089193841000,9.1138408203125,-0.10576728731393814,1.2861433029174805,0.11524844914674759
1761508089203812000,9.12381201171875,-0.15217557549476624,1.032702088356018,0.1225442960858345
1761508089213784000,9.1337841796875,-0.18320512771606445,0.8319037556648254,0.12053893506526947
1761508089223755000,9.143755126953126,-0.17567792534828186,0.687017560005188,0.11422473192214966
1761508089233727000,9.15372705078125,-0.133845254778862,0.609544575214386,0.10833701491355896
1761508089243698200,9.1636982421875,-0.05946303531527519,0.6353870034217834,0.14830832183361053
1761508089253670000,9.173669921875,0.030712667852640152,0.6765453219413757,0.23199763894081116
1761508089263641000,9.18364111328125,0.10578016936779022,0.613508403301239,0.3073001801967621
1761508089273612000,9.193612060546876,0.19803820550441742,0.3755946159362793,0.363715797662735
1761508089283584000,9.203583984375,0.28831735253334045,-0.002535264939069748,0.39631935954093933
1761508089293555000,9.213554931640624,0.35529932379722595,-0.4276849627494812,0.4102191925048828
1761508089303527200,9.223527099609376,0.40247687697410583,-0.8077887892723083,0.41607460379600525
1761508089313498000,9.233498046875,0.4178782105445862,-1.0742132663726807,0.3846823275089264
1761508089323470000,9.243469970703124,0.3784732520580292,-1.2289791107177734,0.2992821931838989
1761508089333441000,9.25344091796875,0.2826671004295349,-1.2575972080230713,0.1388469785451889
1761508089343413000,9.2634130859375,0.13580550253391266,-1.1544591188430786,-0.09213467687368393
1761508089353384000,9.273384033203126,-0.008457140065729618,-0.9173135161399841,-0.37503963708877563
1761508089363355100,9.283355224609375,-0.07023514807224274,-0.6103589534759521,-0.6303308606147766
1761508089373327000,9.2933271484375,-0.0865187793970108,-0.2702024579048157,-0.7547228336334229
1761508089383298000,9.303298095703125,-0.09187768399715424,0.06576967239379883,-0.7102422118186951
1761508089393270000,9.31327001953125,-0.10691709071397781,0.3273696005344391,-0.5088678002357483
1761508089403241200,9.3232412109375,-0.12717732787132263,0.4644865095615387,-0.2126515805721283
1761508089413213000,9.333212890625,-0.13843929767608643,0.4988061189651489,0.07019742578268051
1761508089423184100,9.34318408203125,-0.0903797596693039,0.44123828411102295,0.23447538912296295
1761508089433155000,9.353155029296875,-0.018534332513809204,0.32880493998527527,0.2919362783432007
1761508089443127000,9.363126953125,0.04001617431640625,0.17918124794960022,0.26096051931381226
1761508089453098000,9.373097900390626,0.06799907237291336,0.045933179557323456,0.19005121290683746
1761508089463070200,9.3830703125,0.08321043103933334,-0.03182245418429375,0.10724066197872162
1761508089473041200,9.393041259765624,0.08807362616062164,-0.04882913455367088,0.02487415261566639
1761508089483013000,9.40301318359375,0.10925160348415375,-0.03691038489341736,-0.0449976809322834
1761508089492984000,9.412984130859375,0.138485386967659,-0.02217964455485344,-0.08990949392318726
1761508089502956000,9.4229560546875,0.16394716501235962,-0.02447047457098961,-0.12744911015033722
1761508089512927000,9.432927001953125,0.19182780385017395,-0.05983778461813927,-0.14808887243270874
1761508089522898200,9.442898193359374,0.22684067487716675,-0.09636567533016205,-0.1410187929868698
1761508089532870100,9.4528701171875,0.2665124237537384,-0.1406620442867279,-0.10899960249662399
1761508089542841000,9.462841064453125,0.284884512424469,-0.1909257471561432,-0.05457178130745888
1761508089552813000,9.47281298828125,0.26790693402290344,-0.22445166110992432,0.0003969649551436305
1761508089562784300,9.4827841796875,0.23689550161361694,-0.2117736041545868,0.04344140738248825
1761508089572756000,9.492755859375,0.2098308652639389,-0.16347584128379822,0.07643131911754608
1761508089582727200,9.50272705078125,0.18130432069301605,-0.07658800482749939,0.07514581084251404
1761508089592698000,9.512697998046875,0.12863551080226898,0.03607968986034393,0.051418375223875046
1761508089602670000,9.522670166015626,0.07928256690502167,0.11341960728168488,0.01219279132783413
1761508089612641000,9.53264111328125,0.0324958860874176,0.13688604533672333,-0.0022098501212894917
1761508089622613200,9.54261328125,-0.02724418044090271,0.11621903628110886,0.0013076153118163347
1761508089632584200,9.552584228515625,-0.09757080674171448,0.10656428337097168,0.024886177852749825
1761508089642556200,9.56255615234375,-0.13862286508083344,0.11164120584726334,0.027678389102220535
1761508089652527000,9.572527099609376,-0.12735982239246368,0.1339893937110901,0.028349505737423897
1761508089662499000,9.5824990234375,-0.11197167634963989,-0.02766544744372368,0.3448053002357483
1761508089672470000,9.592469970703124,-0.11279832571744919,-0.43268752098083496,0.33463549613952637
1761508089682441000,9.60244091796875,-0.033830706030130386,-0.5160794258117676,0.25093790888786316
1761508089692413200,9.6124130859375,0.015692371875047684,-0.5550894141197205,0.03920542448759079
1761508089702383900,9.6223837890625,0.06894237548112869,-0.41222554445266724,-0.1523132175207138
1761508089712356000,9.632356201171875,0.10148247331380844,-0.18028976023197174,-0.2973599135875702
1761508089722327000,9.6423271484375,0.08341324329376221,0.07852877676486969,-0.365226686000824
1761508089732299000,9.652299072265626,-0.022009849548339844,0.22097833454608917,-0.3806203007698059
1761508089742270000,9.66227001953125,-0.15277136862277985,0.20579956471920013,-0.28340110182762146
