time,seconds_elapsed,z,y,x
1761466971746758100,0.015758056640625,0.0019727613776922225,0.003425718398671597,-0.006283209026153781
1761466971756712400,0.02571240234375,0.000026888006925582884,0.0037491051341407,-0.01913959274740773
1761466971766666500,0.03566650390625,-0.021818448576331136,-0.0012854184343479573,-0.007710075478762155
1761466971776619500,0.04561962890625,-0.003261632144451141,-0.0021038952103815973,0.008982462614067481
1761466971786573300,0.0555732421875,-0.009695464584231376,0.003398848658055067,0.013149534577841404
1761466971796527400,0.06552734375,-0.0007195464462041854,0.011280322622880338,-0.0065528722634102445
1761466971806481400,0.0754814453125,-0.005956278055906296,0.000026467881817370652,0.006543000465011573
1761466971816435500,0.085435546875,0.006613280659914017,0.0019847258101217445,0.010490112960105762
1761466971826389200,0.09538916015625,0.00017886369824409484,0.0048169718276709315,-0.004300403461771202
1761466971836343300,0.10534326171875,-0.007899813339114188,-0.013957177149318158,-0.005674210282336571
1761466971846297300,0.11529736328125,0.002125321590900421,0.0035870829728431998,-0.00030365170100412795
1761466971856250400,0.12525048828125,0.001079027408361435,0.005010448573157191,0.0006853473490802571
1761466971866204200,0.1352041015625,-0.0040080665975809095,-0.009970336002856493,-0.0029993433586525497
1761466971876158200,0.145158203125,-0.0026624972075223923,-0.0034785262981429695,-0.011995585619611665
1761466971886112500,0.155112548828125,-0.010445406168699264,-0.013279095224663615,-0.010691188490157946
1761466971896066300,0.16506640625,0.003918634748458862,-0.007999583919160067,-0.008959331758585177
1761466971906020400,0.175020263671875,0.005864508119225502,0.01127546378467232,-0.016850576486287173
1761466971915974400,0.184974365234375,0.0034703064590692516,-0.0011472338063642383,-0.0032773657155892575
1761466971925928400,0.194928466796875,-0.008351064237952233,-0.008307024166826158,0.0058737394551630125
1761466971935881500,0.204881591796875,-0.004459317496418953,-0.0014832973603159188,-0.007245695099470322
1761466971945835300,0.214835205078125,-0.009249474382400513,-0.009342395096551626,-0.004510931235936004
1761466971955789300,0.224789306640625,-0.0017675941944122313,0.0036905798799358306,-0.002501346120837843
1761466971965743400,0.234743408203125,0.00032557869255542754,-0.006398688061162829,0.004959741870049037
1761466971975697200,0.244697265625,0.0030184710383415222,0.005882463901024312,-0.007019868149829562
1761466971985651200,0.254651123046875,-0.004314356067776679,0.010548957874719054,0.0027168520350416654
1761466971995605200,0.264605224609375,-0.0005728314518928528,-0.005189074809383601,0.009920491812028922
1761466972005559600,0.2745595703125,0.0031692776858806607,-0.0032923012773506343,-0.007552746617246885
1761466972015512300,0.28451220703125,0.0010743512332439423,0.002841671433020383,-0.009103097885628813
1761466972025466400,0.29446630859375,0.006311082842946052,-0.002206277872622013,-0.011813625781983136
1761466972035420400,0.30442041015625,0.0033189152896404266,0.0074812591334804885,0.004080008455784991
1761466972045374500,0.31437451171875,0.005264788660407066,0.006395820250641554,0.002694297139116679
1761466972055328300,0.324328369140625,0.011101239728927612,-0.006046203095372766,0.00027376345281663814
1761466972065282300,0.3342822265625,-0.0013163432955741882,-0.019178090135380625,-0.0028983049825939814
1761466972075236400,0.344236328125,-0.0020645313143730164,0.004173486292362213,-0.008306195333052891
1761466972085190400,0.3541904296875,0.0037701661884784695,-0.0035481574682518836,0.001775226657485473
1761466972095144200,0.364144287109375,-0.014187515306472777,0.0033840894803404808,0.0037704122128285234
1761466972105097200,0.37409716796875,0.022173837885260582,0.005500972036458551,0.009045715417384054
1761466972115051300,0.38405126953125,-0.005957447099685669,-0.005275419652275741,-0.025614087132783604
1761466972125005300,0.39400537109375,-0.004610708665847778,-0.0007870221918448805,-0.006860125281408545
1761466972134959000,0.403958984375,0.001373041918873787,0.01005045203436166,-0.0031003731723787493
1761466972144913400,0.413913330078125,-0.012692892834544181,-0.011782591322902589,-0.008096776666340883
1761466972154867500,0.423867431640625,0.004815291327238082,-0.006286752119287848,0.0020654942913533886
1761466972164821500,0.433821533203125,-0.01089607254564762,0.0019246661859564482,-0.010478262692107818
1761466972174775300,0.443775390625,-0.013291443249583243,-0.007312460171524435,0.007021582328769727
1761466972184728300,0.453728271484375,-0.014636428117752074,0.0017491086896508931,-0.011126200640248133
1761466972194682400,0.463682373046875,-0.007901566904783249,-0.0006938274830579757,0.006450417106755776
1761466972204636400,0.473636474609375,0.0018225392520427703,0.0027064824797213075,-0.0015326266695570665
1761466972214590200,0.483590087890625,0.0009229600638151168,0.0089250099346973,-0.014491618527803802
1761466972224544300,0.493544189453125,0.0012210662275552748,0.006421027757134289,-0.0044646084470005
1761466972234498300,0.503498291015625,0.006759411132335662,-0.0010021079809404909,-0.015929072018974692
1761466972244452400,0.513452392578125,-0.011047463715076446,-0.011902071250416337,-0.007075662590831052
1761466972254406400,0.523406494140625,-0.018079846569895742,0.002874678653478622,-0.0032075102123722897
1761466972264359200,0.533359130859375,-0.010896657067537308,0.0032912966303527353,0.009826451144804012
1761466972274313500,0.5433134765625,-0.010597381860017775,-0.009279558993410318,-0.013730825614114291
1761466972284267500,0.553267578125,-0.0035649990051984785,-0.005198682887945324,-0.00995061638058978
1761466972294221300,0.56322119140625,-0.015088263538479803,-0.009796111947111785,-0.003591351010117796
1761466972304175400,0.57317529296875,-0.011648352217674254,-0.018697467011585832,0.0016430368038039887
1761466972314129400,0.58312939453125,-0.01104863275885582,0.0037105084231123324,0.015650059856416192
1761466972324083500,0.59308349609375,-0.004164718464016914,-0.007855152213480323,0.007326651952014072
1761466972334037200,0.603037353515625,0.006907295170426368,0.001939443629980087,-0.007139614080468891
1761466972343991300,0.6129912109375,-0.0016249708533287047,-0.011557915721554308,0.00882612983721774
1761466972353944300,0.6229443359375,-0.003570259702205658,-0.0018090952485799788,0.002556134773197118
1761466972363898400,0.6328984375,-0.004319616764783859,-0.0025195268065668643,0.004053268291798304
1761466972373852200,0.64285205078125,-0.013747954845428467,0.006676482089236378,0.005860155600271537
1761466972383806200,0.65280615234375,-0.004171148204803466,-0.009628609893098473,-0.0005870997225516475
1761466972393760500,0.662760498046875,0.0018143559455871582,-0.010987257960438727,-0.004893277621272136
1761466972403714300,0.67271435546875,0.002263268756866455,-0.01023623866373673,-0.012562877813284285
1761466972413668400,0.68266845703125,0.00869885476231575,-0.010729429008159786,-0.0121275551359402
1761466972423622400,0.692622314453125,-0.007461421921849251,0.0021076763363555074,0.010945608492509928
1761466972433575400,0.702575439453125,0.008249357429146766,0.006633282268326729,-0.007133220872300444
1761466972443529500,0.712529541015625,0.009297405177354811,0.0013780286212451754,-0.00411644403412356
1761466972453483300,0.722483154296875,-0.004020926079154014,-0.001129058828856796,-0.002880539855395909
1761466972463437300,0.732437255859375,-0.0014753332495689392,0.003289068140648305,-0.005910329726306372
1761466972473391400,0.742391357421875,0.003762567403912544,0.0002445128129795194,-0.017437034604733344
1761466972483345200,0.75234521484375,-0.00027647885382175443,-0.008927932544145733,-0.00012311149808228946
1761466972493299200,0.76229931640625,-0.00431610963344574,-0.0023723551545292137,-0.005060337858935236
1761466972503253200,0.772253173828125,0.0022679449319839475,-0.006261106221377849,-0.012780927311023697
1761466972513206300,0.782206298828125,0.002718026787042618,-0.010966799694299697,-0.004039565705897985
1761466972523160300,0.792160400390625,0.0027186113089323043,0.005775569460447877,-0.0051325166083348445
1761466972533114400,0.8021142578125,0.012594108635187149,0.006075264793075621,-0.008344581410704995
1761466972543068400,0.812068359375,-0.0017699322819709777,0.002750796545483172,-0.0027058066262863577
1761466972553022500,0.8220224609375,-0.006558920124173164,-0.009355619904305786,0.0019057120362034766
1761466972562976300,0.831976318359375,-0.004016249904036521,0.0002652450737543404,-0.0045317519741453
1761466972572930300,0.841930419921875,0.00017535656690597534,0.004526117388624698,0.004702317059857887
1761466972582884400,0.85188427734375,-0.002366144609451294,0.008170355642493814,0.012784774652367922
1761466972592837400,0.86183740234375,-0.004611293187737464,0.008627744021173566,-0.001098189337379881
1761466972602791400,0.87179150390625,-0.0022165070056915284,0.003081124478392303,-0.011637386724021053
1761466972612745200,0.8817451171875,-0.01239186406135559,0.00829825633848086,0.008888835792907047
1761466972622699300,0.89169921875,0.003919219270348549,0.005150021440628916,0.011721136609383393
1761466972632653300,0.9016533203125,0.01588964304924011,-0.008466781305801124,-0.010040801714960253
1761466972642607400,0.911607421875,0.008108487653732298,0.009061842855811119,-0.011635143392940517
1761466972652561400,0.9215615234375,0.004369301125407218,0.004176481967046857,-0.005726964524525101
1761466972662515500,0.931515380859375,0.010056114590168,0.009689929892588406,-0.00669272197962855
1761466972672468500,0.941468505859375,-0.006404606345295906,0.0010255619217641651,-0.0012756807791563915
1761466972682422300,0.95142236328125,-0.004608955100178718,0.0019358451670967042,-0.005169531000341521
1761466972692376300,0.961376220703125,-0.002661328163743019,0.007962101452983915,-0.000501039719916298
1761466972702330400,0.971330322265625,-0.005056114345788955,-0.0024902641794644293,-0.0027712314079137283
1761466972712284400,0.981284423828125,-0.0053548050314188,0.007341046945191919,0.000852848832271411
1761466972722238200,0.99123828125,-0.028397826966643332,-0.00316609934810549,-0.011472545842907857
1761466972732192300,1.001192138671875,0.03669394614696502,0.0009100092506967484,0.0019304857178562087
1761466972742145300,1.011145263671875,0.004223170652985573,-0.0122930250630714,-0.008463190834427951
1761466972752099300,1.021099365234375,-0.053985272687673565,-0.004243683718051761,-0.02241921378134284
1761466972762053400,1.031053466796875,0.04552373381257057,0.00025941812116652725,0.012990791219018865
1761466972772007200,1.041007080078125,0.0010825345396995544,-0.025532244935072956,0.005043483763901168
1761466972781961500,1.05096142578125,-0.04799976853728294,0.021798867093026638,-0.004092995801521465
1761466972791915500,1.06091552734375,0.027118893072009084,-0.030584377225488422,0.000554332247399725
1761466972801869300,1.070869384765625,0.004523614904284477,-0.0027475268761627375,0.003519372619295609
1761466972811823400,1.0808232421875,-0.04440963509082794,0.00601078472211957,-0.014288840806076768
1761466972821776400,1.0907763671875,0.030557050827145573,-0.01830172742595896,0.003952487356532947
1761466972831730400,1.10073046875,0.009008651363849639,0.007310286480747163,0.010467026628751772
1761466972841684200,1.110684326171875,-0.011191840621829032,-0.001694236697256565,-0.0005184766243735793
1761466972851638300,1.12063818359375,0.017839608073234557,-0.009409706445410847,-0.009477017794270067
1761466972861592300,1.13059228515625,0.0051198272317647935,-0.006830795868113636,-0.0034583140563539927
1761466972871546400,1.14054638671875,-0.015978490376472473,0.014530940182972699,-0.007236019093071809
1761466972881500200,1.150500244140625,0.006767594438791275,-0.01709216897310689,-0.0036134840684680964
1761466972891454200,1.1604541015625,-0.0032569559693336487,-0.000990180081129074,0.0042459013621351915
1761466972901406700,1.17040673828125,-0.011486439654231071,0.0076578578094020485,0.006237492450349964
1761466972911360800,1.18036083984375,0.017245733833312987,0.00040996904037892817,-0.009758618064492474
1761466972921314800,1.190314697265625,0.0010854571491479873,-0.0015800905319862067,-0.008948761844687396
1761466972931268900,1.200268798828125,-0.004003390422463417,0.0046349480579607185,-0.008339816187330871
1761466972941223000,1.210222900390625,0.003028407910466194,-0.00446423113355413,0.00018997303908108732
1761466972951177000,1.220177001953125,-0.009839841490983962,0.012120499774068594,-0.002224868408660404
1761466972961130800,1.230130859375,-0.005949848315119743,-0.003992503702268004,-0.009677834171062568
1761466972971083800,1.240083740234375,0.0022778818041086194,-0.0022408377293497324,-0.009984743554121813
1761466972981037800,1.250037841796875,-0.0001163198560476303,-0.0016380677969194948,0.0019512693526252405
1761466972990992000,1.259991943359375,-0.0007148702710866927,-0.0065857167995534835,-0.013244361837999895
1761466973000946000,1.26994580078125,0.006617372313141822,-0.0011812822064384818,-0.005352681572991423
1761466973010899700,1.279899658203125,-0.005354220509529113,0.00527825093017891,-0.010968847804202231
1761466973020853800,1.289853759765625,-0.019571546432375908,-0.011699570948258041,-0.0020789200285071274
1761466973030807800,1.299807861328125,0.005268295791745185,-0.013788615649379788,-0.0030967855551163664
1761466973040761900,1.309761962890625,-0.002211246308684349,-0.011795670000184326,0.002507080029413919
1761466973050714600,1.319714599609375,-0.008794131830334662,-0.01036012077173218,0.009133525560755515
1761466973060669000,1.3296689453125,0.0015296937853097915,-0.007165398117341101,0.007533545301499543
1761466973070623000,1.339623046875,0.003772504276037216,-0.002897109680995345,-0.010739104443736141
1761466973080577000,1.349576904296875,-0.003858428993821144,-0.0036649522483348843,-0.01647967908097198
1761466973090530800,1.35953076171875,0.0004816460371017456,-0.012216434429213404,-0.0058563544955221
1761466973100484900,1.36948486328125,-0.008346972584724426,0.0023129531174898147,-0.0017278592640010174
1761466973110439000,1.37943896484375,0.0024275194078683853,0.009616755058523267,0.0018634152559476205
1761466973120392000,1.389391845703125,-0.011339724659919738,-0.004419679605774581,-0.0007463625295378733
1761466973130345700,1.399345703125,-0.0020616087049245835,-0.002496566056087613,-0.0009135061072360259
1761466973140299800,1.4092998046875,0.0019786065965890884,0.0051338740234263235,-0.005390406638584681
1761466973150253800,1.41925390625,-0.0026624972075223923,0.005372304155491292,0.007780090241361176
1761466973160208000,1.429207763671875,-0.006553074905276298,0.0035937319093383847,-0.008469173050642712
1761466973170161700,1.43916162109375,-0.002363222000002861,0.0013443272810429335,0.004006834763364168
1761466973180116000,1.449115966796875,0.004371639212965965,-0.003053871145285666,0.010175077352806693
1761466973190068700,1.45906884765625,-0.013432897546887397,0.011354447305016219,0.004482265117988572
1761466973200023000,1.46902294921875,-0.0038543373405933376,-0.005626059720851481,-0.0011997659987333462
1761466973209976800,1.478976806640625,-0.0008615852653980255,-0.005339223869796842,-0.008163149012750363
1761466973219931000,1.488930908203125,0.005723053821921348,-0.01223294717259705,0.005018408117326907
1761466973229885000,1.498885009765625,-0.00953881271779537,-0.0033241942529566586,-0.007519626374001382
1761466973239838700,1.508838623046875,-0.0029565117180347443,0.006789605341199785,-0.006276766727279755
1761466973249792800,1.518792724609375,0.011557166802883148,-0.0012511143059469759,-0.00725131427279266
1761466973259745800,1.528745849609375,-0.004754501050710678,-0.00012717004362493753,0.0033749471926596015
1761466973269699800,1.538699951171875,-0.0037082068681716916,0.0021590594637207684,-0.008007389912169309
1761466973279654000,1.54865380859375,-0.008644494226574897,0.0011715645300224423,-0.0031552685684815515
1761466973289607700,1.558607666015625,-0.003704699736833572,0.0016993877964094281,-0.0010649720543675356
1761466973299561700,1.568561767578125,-0.002358545824885368,0.002922572915814817,0.0005492262431973358
1761466973309516000,1.57851611328125,0.011559504890441894,-0.005088171718176454,0.005428410265390994
1761466973319469800,1.5884697265625,0.003778349494934082,-0.002697331058885902,-0.005047525755601237
1761466973329424000,1.598423828125,0.006323357802629471,-0.003955989350471646,0.01409083059101249
1761466973339377000,1.608376953125,0.0030330840855836865,-0.0008836692330427467,-0.004258718602868612
1761466973349331000,1.6183310546875,-0.012978139516711234,-0.005210117597412318,-0.011076055055321193
1761466973359285000,1.628284912109375,-0.007590601259469985,-0.002546086019929498,-0.008864672320141107
1761466973369238800,1.63823876953125,0.007671265280246734,-0.0010017061221413313,-0.0021282156592409593
1761466973379192800,1.64819287109375,-0.002805120548605919,0.010305157447792588,0.002010191899052006
1761466973389147000,1.65814697265625,0.003778349494934082,-0.0005927965276874602,0.0016559987479544361
1761466973399100700,1.6681005859375,-0.0043014965862035745,-0.005099916954897344,0.0011680713838271913
1761466973409053700,1.6780537109375,-0.020312720188498497,-0.0046615803365595634,-0.010701081979798618
1761466973419007700,1.6880078125,0.01156184297800064,0.0016973785024136305,-0.014452158733672695
1761466973428961800,1.6979619140625,0.004079378268122673,-0.00949985068058595,0.009673396599607077
1761466973438915800,1.707915771484375,-0.01537467926442623,-0.005398863368853926,0.0023201397684577386
1761466973448870000,1.717869873046875,-0.0023567922592163085,-0.0010450155409052967,-0.0078740452852624
1761466973458824000,1.727823974609375,0.003777180451154709,-0.014604973533563315,-0.001837445131051936
1761466973468778000,1.737778076171875,-0.009092822515964508,-0.012758669813442975,-0.0075201709383400156
1761466973478731000,1.74773095703125,-0.008940846824645996,-0.004482643573079258,-0.01637353812564397
1761466973488684800,1.757684814453125,-0.004302081108093261,-0.008525982413440943,0.001582057870553399
1761466973498638800,1.767638916015625,-0.005797288101911545,-0.001834905543271452,-0.004549688918812899
1761466973508593000,1.777593017578125,0.006024667116999626,0.0008301489475183189,-0.0048429448066774055
1761466973518547000,1.787546875,-0.0005611410140991211,-0.002683923588041216,0.0016554636021814076
1761466973528500700,1.797500732421875,-0.012832593566179275,0.004842288932017982,-0.004755881298688473
1761466973538454800,1.807454833984375,-0.009241875597834586,-0.014864464719966053,-0.006549974199314601
1761466973548407800,1.81740771484375,-0.005053191736340523,-0.010031856931746005,-0.0013136084866157034
1761466973558361900,1.82736181640625,-0.0029600188493728637,-0.0038005978593602776,0.0029129148903142776
1761466973568315600,1.837315673828125,-0.007150456276535987,-0.001249488604441285,0.0037005295955590553
1761466973578269700,1.847269775390625,-0.0016121113717555999,0.0036144276374951005,0.0023130096288834466
1761466973588224000,1.85722412109375,-0.013133037817478179,0.0022302250037901103,-0.009955161266610958
1761466973598177800,1.867177734375,-0.01058978307545185,-0.005997340718656778,0.00033318718109803737
1761466973608131800,1.8771318359375,-0.0002624503284692764,0.005583572285994887,0.0020480910654034233
1761466973618084900,1.8870849609375,-0.010437807384133338,0.013960355487093328,0.011904490394721506
1761466973628039000,1.897038818359375,0.009165303230285644,0.011544928375817835,0.0012827073145090253
1761466973637993000,1.906992919921875,0.0013829787909984588,-0.0017317191634327173,0.004151704289639019
1761466973647946800,1.91694677734375,-0.015077157622575759,-0.0008192804936319589,0.0011546993039562947
1761466973657900800,1.92690087890625,0.0069184010863304135,0.0014644647956825792,0.0005034311793468077
1761466973667854800,1.936854736328125,-0.02570259653329849,0.00041088235583156343,0.0011481833690238999
1761466973677808600,1.94680859375,-0.007596446478366851,-0.00361104837032035,-0.005234595022365101
1761466973687761700,1.95676171875,-0.01418050104379654,0.004021894193533808,-0.01847413740888587
1761466973697715700,1.9667158203125,-0.009540566283464431,0.001577898574899882,-0.00652154953913996
1761466973707669800,1.976669677734375,-0.003703530693054199,-0.008816160999052226,-0.00167020479899802
1761466973717624000,1.9866240234375,-0.008044774767756462,0.003843341022543609,0.002092307235165208
1761466973727577900,1.996577880859375,-0.003108487409353256,0.003759352533519268,0.01031770868540043
1761466973737532000,2.006531982421875,-0.014779051458835601,-0.00450169533342123,-0.012292448532691923
1761466973747486000,2.01648583984375,0.00841477712392807,-0.0028585312362760305,0.0002716965057828929
1761466973757439000,2.02643896484375,-0.009692541974782943,0.007650167693290859,-0.00584311370474752
1761466973767392800,2.036392822265625,-0.010888473761081695,-0.003463639256265014,-0.010211289168859366
1761466973777346800,2.046346923828125,-0.0019119711011648178,0.00589744227444753,0.0027199901298547045
1761466973787300900,2.05630078125,-0.014631167420744894,-0.013270126466918736,-0.003567435559579462
1761466973797255000,2.0662548828125,-0.005499766460061073,0.0027391609066165982,0.013901780000538565
1761466973807208700,2.076208740234375,-0.0043014965862035745,0.0025189970836043355,-0.002025419436347147
1761466973817162800,2.086162841796875,-0.0005605564922094345,0.0026759412109851836,-0.009483510325493988
1761466973827115800,2.09611572265625,0.0003384381741285324,0.011018822142481803,-0.003631257472587458
1761466973837069800,2.10606982421875,-0.004900047001242637,-0.003309873466659337,0.004041808180745283
1761466973847023600,2.116023681640625,-0.01148293252289295,-0.0026234986376948654,0.0011819863155702478
1761466973856978000,2.12597802734375,-0.016719079610705373,-0.00027781229438260196,0.0013827587390565896
1761466973866932000,2.135931884765625,-0.01581950042247772,-0.005589015646092594,0.0055640239103755445
1761466973876886000,2.145885986328125,-0.0007066869646310806,0.0022079218404367565,-0.0019461445112916407
1761466973886839800,2.15583984375,-0.009833996272087097,-0.00485942272990942,0.014632850204466375
1761466973896792800,2.165792724609375,0.00019289222359657285,0.00019433526201173662,0.0018188505992584394
1761466973906747600,2.17574755859375,0.010815408524870871,0.0035661132500506934,0.008052381543832598
1761466973916701400,2.185701416015625,-0.021209376767277716,0.005615008603874594,0.004224073122817208
1761466973926655500,2.195655517578125,-0.009088730862736701,-0.0075467803840525444,-0.004948652507987572
1761466973936609500,2.205609619140625,-0.0031049802780151363,-0.015550803016312419,-0.0032672139289221377
1761466973946563600,2.2155634765625,-0.009238952988386154,-0.006626012277323752,0.00046116921924258344
1761466973956517400,2.225517333984375,-0.0037011926054954527,-0.005614679810311645,-0.009723054702411173
1761466973966470400,2.235470458984375,0.0016857611298561096,-0.005325578936934471,-0.003954879101374535
1761466973976424400,2.245424560546875,-0.0023538696497678755,-0.009991287459339946,0.00704412466660724
1761466973986378500,2.25537841796875,-0.008638649007678032,-0.01701702137766406,-0.00017865449192322556
1761466973996332300,2.265332275390625,-0.007890460988879203,-0.007754249122273176,0.0014409252315352205
1761466974006286600,2.27528662109375,0.0013859014004468917,-0.002454480480030179,-0.005890711139561608
1761466974016240600,2.28524072265625,-0.006994973453879356,0.004633377155382186,0.007645562300120945
1761466974026194700,2.295194580078125,-0.002805120548605919,0.00956688803480938,0.00046202887741237644
1761466974036147700,2.305147705078125,0.006322188758850098,-0.009700250357203184,0.0062785596796777095
1761466974046101500,2.3151015625,0.012307108387351036,0.01095850678998977,0.007613252053517499
1761466974056055600,2.3250556640625,0.005422025048732757,0.004169613834843039,-0.003949659218151646
1761466974066009600,2.335009521484375,0.003177460992336273,0.004472359641082585,0.0033019915543030945
1761466974075963400,2.34496337890625,0.013499533042311667,0.008048281899094581,-0.0038893213181843745
1761466974085917400,2.35491748046875,-0.00445814845263958,-0.013152454904001205,0.002374832237283408
1761466974095871500,2.36487158203125,-0.0014648118555545806,-0.011525529555603861,0.0015546330053883139
1761466974105824500,2.374824462890625,-0.0008650923967361449,-0.004545297013130039,0.0000019679093893500977
1761466974115778600,2.384778564453125,-0.006550736817717551,-0.0038240152675658463,-0.008203727618310949
1761466974125732400,2.394732421875,-0.0029600188493728637,-0.005447871876042336,-0.006075969758440623
1761466974135686400,2.404686279296875,0.0016764087796211243,0.004524765681754798,0.003156574038756662
1761466974145640700,2.414640625,-0.007902151426672934,-0.010048387941438704,-0.007727411347697489
1761466974155594500,2.424594482421875,-0.006107669225335121,-0.01103014725409448,-0.009888036005775211
1761466974165548500,2.434548583984375,-0.007306523621082306,-0.00362617287421599,-0.0019692134325698133
1761466974175501600,2.44450146484375,-0.014191022437810896,-0.00953726008152589,-0.0007624537207579123
1761466974185455600,2.45445556640625,0.004212649258971214,-0.006928739817254245,-0.012303221088455756
1761466974195409700,2.46440966796875,-0.012398293802142142,-0.004316164432372898,-0.005808451670853537
1761466974205363500,2.474363525390625,-0.012100772160291672,-0.005150843424536288,0.007615861281601246
1761466974215317500,2.4843173828125,-0.012697569009661673,0.003610409049503505,0.0013698441731452475
1761466974225271600,2.494271484375,0.0019680852025747296,-0.001549713660031557,-0.007407384471449768
1761466974235225300,2.504225341796875,-0.007310030752420425,-0.002104023074544966,-0.004707656244911777
1761466974245178400,2.514178466796875,-0.020778584134578705,-0.0012946429204195736,-0.0005489548172612558
1761466974255132400,2.52413232421875,-0.012998597782850264,0.0035392252431251108,-0.00493403603581246
1761466974265086500,2.53408642578125,0.0037602293163537977,0.0055141237789765,0.0016098660427975118
1761466974275040500,2.54404052734375,-0.008062894946336746,-0.009672960491478443,-0.009890939207270275
1761466974284994600,2.55399462890625,-0.003125438544154167,-0.010097560845408589,0.002335447506266064
1761466974294948600,2.563948486328125,0.001661211210489273,-0.0020811536556109783,-0.00647124069907586
1761466974304902700,2.573902587890625,-0.0028279169023036955,0.006750497173517942,-0.003128017804074625
1761466974314855700,2.583855712890625,-0.007465513575077056,-0.006487809383030981,-0.01696206832852331
1761466974324809500,2.5938095703125,-0.010157821398973465,-0.015206537889596075,-0.004413413120125187
1761466974334763500,2.603763427734375,-0.011355506750941276,-0.003803867528680712,0.007005210578459081
1761466974344717600,2.613717529296875,0.00046411038041114806,0.004493585092201829,-0.008288496421225136
1761466974354671400,2.62367138671875,-0.0011819032609462737,0.0012051197397522629,0.005611573966950527
1761466974364625400,2.63362548828125,0.0021101240217685697,-0.004490772080607712,0.004276424079151184
1761466974374579500,2.643579345703125,0.002257423537969589,0.0011543759332038462,0.0016722817354195285
1761466974384532500,2.653532470703125,-0.014052490749955177,-0.003488536235503852,0.010275335414975415
1761466974394486500,2.663486572265625,-0.01644552336633205,-0.0011742862100712955,0.004989599864662159
1761466974404440300,2.6734404296875,-0.007618658310174942,0.004598872097581625,0.0011274245650187368
1761466974414394600,2.68339453125,-0.0035778584867715833,-0.00275550925321877,-0.0035200784408938486
1761466974424348700,2.6933486328125,-0.00941430955529213,-0.016046915970183907,-0.01157019524781499
1761466974434302500,2.703302490234375,-0.005374094253778458,-0.010946268362924456,-0.0024330743636979606
1761466974444256500,2.713256591796875,0.003302548676729202,-0.0018562953911721706,-0.004825811008785968
1761466974454209500,2.72320947265625,-0.002833177599310875,0.011924337881151586,-0.010709256153099703
1761466974464163600,2.73316357421875,-0.011062661284208297,-0.00906469240002334,-0.0007523678640500292
1761466974474117600,2.74311767578125,-0.0023830957442522046,-0.012062632106989622,-0.00016853666917450026
1761466974484071400,2.753071533203125,0.010036825367808342,-0.004749276886321604,0.003924304439542174
1761466974494025500,2.763025390625,-0.0062754270076751705,0.001630907403770834,0.008112918946144054
1761466974503979500,2.7729794921875,0.0012046996146440505,-0.011302041264344006,-0.002555460061406484
1761466974513933300,2.782933349609375,-0.010169511836767196,-0.015109616853762418,0.0046345864421236905
1761466974523886300,2.79288623046875,-0.006132219144701957,0.0008804726289585233,0.0024982220111676723
1761466974533840400,2.80284033203125,-0.004637012150883675,0.007658296200819313,0.005217982385103823
1761466974543794400,2.81279443359375,-0.005087094005942344,-0.0009618855684064328,-0.0121080604176037
1761466974553748500,2.82274853515625,-0.014664485168457031,0.012098105279169977,-0.001222107692582358
1761466974563702500,2.83270263671875,-0.00613689531981945,-0.002934044157899916,-0.004628891634865431
1761466974573656600,2.842656494140625,-0.008232406294345854,-0.01713403535345569,-0.001021404053166043
1761466974583610600,2.852610595703125,-0.010177695143222809,0.012503763470612465,-0.0010019555714243325
1761466974593563600,2.862563720703125,0.009872574716806411,0.009250771290343254,-0.006680861436831764
1761466974603517400,2.872517333984375,0.0014934534281492232,-0.006332016033120453,-0.001929341504840704
1761466974613471500,2.882471435546875,-0.016163199293613432,0.0030765396348200738,0.008375859040024806
1761466974623425500,2.892425537109375,0.005384615647792816,-0.017134455478563904,-0.010497845317056635
1761466974633379600,2.902379638671875,-0.0019458733707666397,0.0004662110059522092,-0.003845574364236381
1761466974643333400,2.91233349609375,-0.011223989325761794,-0.0028017047488130627,0.0039060689548859953
1761466974653287400,2.922287353515625,-0.007184943068027496,-0.002014883486367762,-0.004631976928628864
1761466974663240400,2.932240478515625,0.009425999993085861,0.004961787125840783,0.007256345499292365
1761466974673194500,2.942194580078125,0.0010462941825389862,-0.00026199367074295876,-0.0038273097676501493
1761466974683148300,2.952148193359375,-0.013169278174638747,0.004068710743635893,-0.00881138835499005
1761466974693102600,2.9621025390625,0.01930208184123039,-0.002653090058360249,-0.0015020619971124688
1761466974703056600,2.972056640625,-0.012868833923339843,-0.005109050109423697,-0.00909560127822915
1761466974713010400,2.982010498046875,-0.006731938603520393,0.024146946322824804,-0.008649188668001443
1761466974722963500,2.99196337890625,0.0028448680371046067,-0.0012991912313736974,0.001755801864863315
1761466974732917500,3.00191748046875,-0.016907880181074142,-0.0009830196879804134,-0.008072177656268468
1761466974742871600,3.01187158203125,-0.019749825608730315,-0.0013422631881199777,-0.00846281123769295
1761466974752825600,3.02182568359375,-0.0016425065100193024,0.00026374723641201854,-0.00367828379983257
1761466974762779400,3.031779296875,-0.0034381577551364896,0.010123151944391428,-0.01116941187760094
1761466974772733400,3.0417333984375,-0.0011930091768503188,-0.004114230385795235,0.0016789923207077661
1761466974782687500,3.0516875,-0.012267360898852348,0.005072517491318285,-0.00428235863171576
1761466974792640500,3.061640625,-0.000893149447441101,0.004849102265294641,-0.013277898781420662
1761466974802594300,3.07159423828125,-0.004185176730155945,-0.006070369422249496,0.0032849148386274465
1761466974812548400,3.08154833984375,-0.0029869068562984463,-0.009420611431915313,0.006744712461769813
1761466974822502700,3.091502685546875,0.0038958383947610854,-0.009548621725756674,-0.0075840847537154326
1761466974832456700,3.101456787109375,-0.002539163088798523,-0.0012800664057955144,-0.0026624823661462868
1761466974842410500,3.111410400390625,-0.010320318484306335,-0.0002491159228608012,0.004567848769533157
1761466974852364500,3.121364501953125,-0.007177928805351257,-0.004724306841846555,-0.007315570581462816
1761466974862317600,3.131317626953125,0.001201192483305931,0.0015712131057865916,-0.00886119430073304
1761466974872271600,3.141271728515625,0.006290040054917335,-0.006397336354292929,0.006021749074128456
1761466974882225400,3.151225341796875,0.0022498247534036633,-0.0025084939558990297,-0.0009443416347945457
1761466974892179500,3.161179443359375,-0.004186345773935318,-0.013343867556564509,-0.0018693903368854079
1761466974902133000,3.171133056640625,0.0010492167919874192,0.002887118009943515,0.00017159998628485482
1761466974912087000,3.181087158203125,-0.00897591813802719,-0.0004216777444817126,0.008678033453284297
1761466974922040800,3.191040771484375,-0.008676058408617973,0.005827281381376087,0.0033000399133452443
1761466974931993900,3.200993896484375,-0.014512509477138518,0.011682254487276077,0.0060596722150105045
1761466974941948000,3.210947998046875,-0.006281856748461723,0.0032704182391054925,-0.0043722796754271254
1761466974951902000,3.22090185546875,-0.005232639956474304,0.003656659344024956,-0.0010296415877266553
1761466974961856000,3.23085595703125,-0.0013408932149410247,0.005254504728410393,0.0067899375596956815
1761466974971809800,3.240809814453125,-0.004184592208266258,0.000046579088084399694,-0.0008916684493524371
1761466974981763800,3.250763916015625,-0.004185761252045631,0.0038267917465418574,-0.015565715174365322
1761466974991718000,3.2607177734375,-0.00044599020183086393,-0.00014549115160480142,0.0007411340839826152
1761466975001671000,3.2706708984375,0.007184943068027496,0.001359013393521309,0.0035677232539470423
1761466975011624700,3.280624755859375,0.0037450317472219464,0.009368223657552152,0.011516416950675193
1761466975021578800,3.290578857421875,0.009432429733872413,-0.002648413883242756,0.010844027264579198
1761466975031532800,3.30053271484375,-0.008075169906020164,-0.00445814845263958,-0.012315444674144964
1761466975041487000,3.310487060546875,-0.01046820252239704,0.0068646250724792475,0.00025244752638536736
1761466975051441000,3.32044091796875,-0.009271686214208602,-0.0026904629266820846,-0.0038166867672916847
1761466975061395000,3.33039501953125,-0.005230301868915557,-0.004990867089852691,-0.005137179083720547
1761466975071348000,3.340347900390625,-0.0037321722656488416,-0.006119359663128853,0.0027675316240973187
1761466975081302000,3.350302001953125,0.006443769311904907,0.0017970212182961403,-0.003184553457648144
1761466975091255800,3.360255859375,0.0018044190734624861,0.0012250848155468703,-0.006003279552387539
1761466975101209900,3.3702099609375,-0.003732756787538528,0.003635232963506132,-0.00461939429580234
1761466975111164000,3.380163818359375,-0.006726677906513214,0.005927179825585335,-0.007242202809508307
1761466975121118000,3.390117919921875,0.0001572363883256912,0.0011374613310210406,-0.013538887805165722
1761466975131071000,3.400071044921875,-0.0007423427999019623,-0.011664664031658322,-0.009417236160495668
1761466975141024800,3.410024658203125,0.0024006314009428023,-0.0024098741533234713,0.003179064146366727
1761466975150978800,3.419978759765625,-0.00538052399456501,0.005076828340254724,0.007447721048415405
1761466975160932900,3.429932861328125,-0.0017903905481100081,-0.0005575790838338434,0.00534765548389114
1761466975170887000,3.439886962890625,0.0019517185896635054,-0.011683313933201133,-0.0016302189922484103
1761466975180841000,3.449841064453125,0.01721300060749054,-0.0005353672520257533,0.007368575414578663
1761466975190795000,3.459794921875,-0.004632335975766182,0.009702113520726561,-0.004504845415499585
1761466975200748000,3.469748046875,-0.008971241962909698,-0.005729574894253164,-0.0037006411912909242
1761466975210701800,3.479701904296875,0.01302665483355522,-0.0017385142304003239,-0.016154695185105084
1761466975220655900,3.48965576171875,-0.004032616516947746,-0.005153619903512299,-0.004985298148880247
1761466975230610000,3.49960986328125,-0.002687047126889229,-0.005714633053448051,-0.0048557026819064045
1761466975240564000,3.50956396484375,-0.004184592208266258,0.001079575397633016,0.004089755529542162
1761466975250517800,3.519517822265625,-0.012117723295092583,-0.00823777658920735,-0.0010044260897237108
1761466975260471800,3.529471923828125,-0.00658171647787094,0.001210142974741757,0.0013954775129677726
1761466975270424800,3.5394248046875,0.0019499650239944457,0.008003949567023664,-0.010326672876568044
1761466975280379000,3.54937890625,0.014371639701724052,0.0008688187237828969,0.005398823411302873
1761466975290332700,3.559332763671875,-0.007924947780370712,0.003913976839650422,-0.0071639756285236215
1761466975300286700,3.56928662109375,0.00030512042641639707,-0.002238116049300879,0.004149399309765431
1761466975310241000,3.579240966796875,-0.018698855251073836,0.007504128552414477,-0.008480534694873495
1761466975320195000,3.589195068359375,-0.007176175239682197,-0.007797229747474193,-0.01038845638365019
1761466975330148900,3.59914892578125,-0.005827683240175247,-0.012506339020188897,-0.0022691439439266104
1761466975340102000,3.609101806640625,-0.006125789403915405,0.004185140197537839,0.000627114926642389
1761466975350056000,3.619055908203125,0.0036018238842487334,0.008177516035642474,0.0007225386959558818
1761466975360010000,3.629010009765625,-0.0020826514929533,-0.0001508797127753496,0.0020851014616549944
1761466975369963800,3.6389638671875,-0.01824468174278736,-0.002638294348027557,0.007454167913866694
1761466975379917800,3.648917724609375,-0.0010369418323040009,-0.0024481786034069954,-0.002457420499554428
1761466975389871900,3.658871826171875,-0.0008867197066545486,-0.005766618969012051,-0.007409602686355356
1761466975399825000,3.668824951171875,-0.005823007065057754,0.004617010542470962,0.0010749488840432605
1761466975409779000,3.678779052734375,-0.0005856909334659576,0.004019574372284114,0.001972337256828905
1761466975419732700,3.688732666015625,0.010486907222867011,-0.00446881597712636,-0.006515954911170411
1761466975429686800,3.698686767578125,-0.0154021517932415,-0.004108969688788056,0.009370001197751844
1761466975439640800,3.708640869140625,0.0009089315384626388,0.0045639286483637985,0.0049236699054250495
1761466975449595000,3.718594970703125,-0.005526654466986656,-0.007673037112224846,-0.007775827341486001
1761466975459549000,3.728548828125,-0.022435119169950484,0.008018946206755936,-0.00011396692711277864
1761466975469502000,3.738501953125,0.007643208229541778,-0.0007053717903792858,0.00048564007974055126
1761466975479456000,3.7484560546875,-0.0007359130591154098,0.0072035564369522034,-0.020427768252778332
1761466975489410000,3.75841015625,-0.007920271605253219,-0.004405176156386733,0.009011233763291965
1761466975499363800,3.76836376953125,0.0009089315384626388,0.010839337389729916,0.008617119308348627
1761466975509318000,3.77831787109375,-0.00028700024783611294,0.0015131079766899347,0.009143681057766662
1761466975519272000,3.78827197265625,-0.009863806888461113,-0.002392265431396663,0.0014534268076153239
1761466975529225700,3.798225830078125,0.004053074783086776,0.0022278686499223113,0.0012927740486746188
1761466975539178800,3.8081787109375,0.0065974985688924785,0.002050393191166222,-0.00700649492831435
1761466975549132800,3.8181328125,0.0003115501672029495,0.0006245433728210627,0.011884062952979002
1761466975559086800,3.8280869140625,0.003603577449917793,-0.010301595517527311,-0.00014106100083736238
1761466975569041000,3.838041015625,0.002404723054170608,-0.006942238619644194,-0.00028889223787846276
1761466975578995000,3.847994873046875,-0.0043289691150188445,-0.012477368654031306,-0.011500041204609441
1761466975588949000,3.857948974609375,-0.002980477115511894,0.002853160941414535,0.008773591365804896
1761466975598903000,3.867903076171875,-0.0044780221968889235,-0.0027820319339632985,-0.001154747253017558
1761466975608856000,3.87785595703125,-0.00492693500816822,-0.011006967307906597,-0.007482412194239441
1761466975618809900,3.887809814453125,-0.009116787913441657,0.003807813051436096,-0.012600888860778649
1761466975628764000,3.897763916015625,-0.0044768531531095505,0.006894691417180001,0.004710181276727235
1761466975646804700,3.9158046875,0.013479074776172637,0.004083086328860372,-0.00948379231163999
1761466975656758800,3.9257587890625,0.00644493835568428,0.00652331908782944,0.010516431286517762
1761466975666712800,3.935712890625,0.001955225721001625,-0.01019221685891971,-0.008188474108607624
1761466975676665900,3.945665771484375,0.005844634374976158,-0.0047600722749717534,0.0010434825980002642
1761466975686619600,3.95561962890625,-0.014059505012631415,-0.0018223931215703487,0.0001384258003454306
1761466975696574000,3.965573974609375,-0.014360533785820006,0.004406016406603157,0.001994151796415099
1761466975706528000,3.975528076171875,0.002696399477124214,-0.00030289193671196696,-0.011329218107281484
1761466975716482000,3.98548193359375,-0.0017944822013378143,0.011158796868752688,-0.004821244431522791
1761466975726435800,3.995435791015625,0.00808101512491703,0.005352138150297105,0.0034885219649499048
1761466975736390000,4.005389892578125,-0.004337736943364143,-0.012957060196064412,-0.0038227100827018146
1761466975746343000,4.015343017578125,-0.017954758885502815,0.008433098231907934,-0.004635952134136459
1761466975756297000,4.025296875,0.009428338080644607,-0.0026111323464661834,-0.003544638920470606
1761466975766250800,4.035250732421875,0.001945288848876953,-0.006591050561796873,-0.006810804534499766
1761466975776204800,4.045204833984375,-0.00972585972249508,0.016560783776454625,-0.0074812979493872256
1761466975786158800,4.055158935546875,0.0074836337536573405,0.00439273679992184,-0.0012846635220441385
1761466975796113000,4.06511279296875,-0.011968670213222503,-0.008647033243533223,0.013857957983476808
1761466975806066000,4.07506591796875,-0.005385200169682502,-0.0020473061849363146,-0.0017551043201863648
1761466975816019700,4.085019775390625,0.001948211458325386,-0.005246284889336675,0.01289775405714754
1761466975825974000,4.09497412109375,-0.004184592208266258,-0.005949610853102058,-0.0062979893242882095
1761466975835928000,4.104927978515625,-0.008225392031669616,-0.00008362316284328699,-0.012652261713345068
1761466975845881900,4.1148818359375,0.009132570004463195,-0.001428589764703065,0.0011758608229938544
1761466975855836000,4.1248359375,-0.002241056925058365,0.0005681187441572546,-0.005984960156874148
1761466975865790000,4.1347900390625,-0.0014946224719285964,-0.00816432776050642,-0.010248148297239095
1761466975875743000,4.144742919921875,0.006734861212968826,0.0009944909300655127,0.01046846852552262
1761466975885696800,4.15469677734375,-0.003890577697753906,0.009437599099334329,0.004635869935745722
1761466975895650800,4.16465087890625,0.00014905308187007903,-0.016280268068332226,-0.0037642527563337353
1761466975905604900,4.17460498046875,-0.013320669344067573,-0.014519596805050968,-0.004507268840970937
1761466975915559200,4.18455908203125,-0.009132570004463195,0.005006539583019912,0.001805034705159778
1761466975925513000,4.194512939453125,-0.004644026413559914,-0.008879453759919852,0.001550555337303376
1761466975935467000,4.204467041015625,-0.010180033230781555,-0.009655698829423636,-0.016124027193849904
1761466975945420000,4.214419921875,-0.0032931963264942166,0.0007919723615981638,0.005373810555165982
1761466975955374000,4.2243740234375,-0.0047884033203125,0.0006036467152647673,-0.0028955259349182595
1761466975965328000,4.234327880859375,-0.01092179150879383,-0.008903126896452158,0.006640761180239496
1761466975975282000,4.244281982421875,-0.0001467149943113327,-0.004779379763640463,-0.0044914279552671355
1761466975985858000,4.254858154296875,0.006285363879799843,0.006403601698298007,0.001258720511200954
1761466975995811800,4.264811767578125,-0.0020925883650779725,-0.01013389253411442,0.002965100879044621
1761466976005766000,4.274765869140625,-0.008676058408617973,-0.007320771342143416,0.0038983191878593057
1761466976015720000,4.284719970703125,0.004342413118481636,0.002994889233354479,0.002337253302162571
1761466976025674000,4.294674072265625,-0.007929039433598517,0.008310184238292277,-0.00899564632262627
1761466976035628000,4.3046279296875,0.0017979893326759337,-0.00010409969529137015,-0.0007741313150530913
1761466976045582000,4.31458203125,-0.0028407763838768003,0.004828424803446978,-0.00964272290013032
1761466976055535000,4.32453515625,0.0038940848290920254,-0.0037409400939941405,0.002287803834857186
1761466976065489200,4.3344892578125,0.010027473017573356,-0.0020119426106102764,-0.002705743835848989
1761466976075443000,4.34444287109375,0.0026946459114551543,-0.0023092085241340097,-0.0018044987031535127
1761466976085397000,4.35439697265625,-0.0002969371199607849,0.0013903766461648046,0.0012820474440944963
1761466976095351000,4.36435107421875,0.006138064363598823,-0.0008751571330241858,0.005000415802909992
1761466976105304800,4.374304931640625,0.00239595522582531,0.013101784162689,0.004446280774565821
1761466976115259000,4.3842587890625,-0.006731938603520393,0.004265219696424901,0.002549412486054643
1761466976125212000,4.3942119140625,-0.011071429112553596,0.0032166604915633795,0.0034548817027185577
1761466976135166000,4.404166015625,-0.009874328282475472,-0.00007715688943862914,0.006499094537092605
1761466976145120000,4.4141201171875,-0.0031412206351757047,0.0033809111425653097,0.006760003645735559
1761466976155074000,4.424073974609375,-0.006882160729169845,0.005193330859392881,0.005438448173037613
1761466976165028000,4.434028076171875,-0.01930441992878914,-0.0013033011509105562,-0.0017737082705454666
1761466976174982100,4.443982177734375,0.0022445640563964844,-0.007764770516287535,0.005502973338944139
1761466976184936000,4.45393603515625,-0.012569558715820313,0.0018092231127433479,-0.012837205809215083
1761466976194889000,4.463888916015625,-0.00015080664753913878,-0.0000798420368693769,-0.0019218083648229365
1761466976204843000,4.473843017578125,-0.0076338558793067925,-0.003638301703426987,0.006062315121601568
1761466976214797000,4.483797119140625,-0.002995674684643745,-0.0010665880518965422,-0.004468698673172912
1761466976224751000,4.493751220703125,-0.001648351728916168,-0.0010757760053500532,-0.0004533917673412361
1761466976234705000,4.503704833984375,-0.013320669344067573,-0.0016590740523301064,0.005532850170688471
1761466976244659000,4.513658935546875,-0.00658697717487812,0.002696856134850532,0.005859281671547797
1761466976254613000,4.523613037109375,-0.01840893239378929,-0.0046094300242140885,0.0018224690409173489
1761466976264566000,4.53356591796875,-0.0019487959802150724,-0.004767981586791575,-0.0030580378616272353
1761466976274519800,4.543519775390625,-0.008233575338125229,-0.007600739060994237,0.0023052592910345992
1761466976284473900,4.553473876953125,-0.0007528641939163207,0.0056081952705979345,-0.006065439802093896
1761466976294428200,4.56342822265625,0.007028291201591492,-0.008603522895369678,-0.000668873992425506
1761466976304382200,4.57338232421875,-0.0007528641939163207,-0.004723576189484447,0.0028308226724984703
1761466976314336000,4.5833359375,-0.008682488149404526,0.007955397717561572,-0.004571433818095829
1761466976324290000,4.5932900390625,0.002090250277519226,0.0011108838513493537,-0.007923299245978704
1761466976334243000,4.6032431640625,0.007027706679701804,-0.002001110689342022,-0.005257954777532723
1761466976344197000,4.613197021484375,0.003285597541928291,-0.0038874358925968405,0.005190861482737818
1761466976354151000,4.62315087890625,-0.009732873985171317,0.0007571202439256012,0.0009003537938959197
1761466976364105000,4.63310498046875,0.005080664265155792,0.00152023183722049,-0.0004315030208745156
1761466976374059000,4.64305908203125,-0.0007557868033647537,-0.003072100921720266,-0.00401950758609164
1761466976384013000,4.653012939453125,-0.0264952082157135,-0.007186130378115922,0.003720520929172926
1761466976393966000,4.662966064453125,0.002234627184271812,0.006737601159326732,0.010692708018742269
1761466976403920000,4.672919921875,-0.0016553659915924071,0.003577895019389689,0.0027867329398446597
1761466976413874000,4.6828740234375,-0.002104278802871704,0.0014757899072952569,0.004455878007506544
1761466976423828000,4.692827880859375,0.0016349077254533767,-0.00352653015833348,0.010721898722252808
1761466976433782000,4.702781982421875,-0.007644377273321151,0.00508692960916087,-0.0013669829270787886
1761466976443736000,4.712736083984375,-0.0016600421667098998,0.007378474612440913,-0.013363919397327118
1761466976453690000,4.722690185546875,-0.0016600421667098998,-0.0038450580555945634,-0.012228247022948925
1761466976463643100,4.73264306640625,-0.0006137479841709137,0.01627584762154147,-0.0011339356479627895
1761466976473597000,4.742596923828125,-0.014829904863238335,0.008960793634131551,0.0004592720918008126
1761466976483551000,4.752551025390625,-0.010789105039834976,-0.0025869660195894538,0.0022196830601780675
1761466976493505000,4.762505126953125,-0.020514380240440368,0.0023002397663891313,0.0056210267818853025
1761466976503459000,4.772458984375,-0.004953823015093803,-0.011672682941332458,0.00010512774599774274
1761466976513412900,4.782412841796875,-0.006599252134561538,0.0023592947435565293,0.008930417903821217
1761466976523367000,4.792366943359375,-0.009590835165977477,0.002151771206408739,0.010353928492963313
1761466976533320000,4.80231982421875,0.0025298107385635375,0.006487791116721928,-0.008600530645617981
1761466976543274000,4.81227392578125,0.0008820435315370559,0.003885499663837254,0.0154851470517111
1761466976553227800,4.822227783203125,0.0014800094246864319,0.004045238536503165,-0.004155918098808616
1761466976563182000,4.83218212890625,-0.004206219518184662,0.001366630444396287,-0.0011528609711967874
1761466976573136100,4.84213623046875,-0.00929448256790638,-0.011464447018131613,0.008465278901881538
1761466976583090200,4.852090087890625,-0.016031097346544263,0.009151512166950851,0.00787879852137121
1761466976593044000,4.8620439453125,-0.005107552272081375,-0.006253160376939922,0.007156737603561486
1761466976602997000,4.8719970703125,-0.0045090018570423124,-0.0038570772869512436,-0.0026481553008052285
1761466976612951000,4.881950927734375,0.0007288987964391708,-0.012855280322022735,0.007160290400672238
1761466976622905000,4.891905029296875,-0.005108721315860748,-0.0029035211554728447,-0.004146942205786763
1761466976632859000,4.90185888671875,0.005962123274803161,-0.006397756479401141,0.003882187468266056
1761466976642813000,4.91181298828125,-0.00286824891269207,-0.014546028154250233,0.006285298806073842
1761466976652767000,4.92176708984375,0.005958616143465042,0.00439186001708731,0.006153494828171097
1761466976662721000,4.931720947265625,0.0014683189868927,0.001903696463163942,-0.00046017113669950046
1761466976672674000,4.941674072265625,-0.022175006929039953,0.005514416039921343,0.002949131843766372
1761466976682627800,4.9516279296875,-0.00751285984814167,0.00009714023154228926,-0.0003878071555096539
1761466976692582000,4.961581787109375,-0.004970774149894714,-0.0013193755028769374,-0.006818022580686374
1761466976702536200,4.9715361328125,-0.014249474626779555,0.013712719135265797,-0.00805094763857196
1761466976712490000,4.981489990234375,-0.008864274457097053,0.005399411358125507,0.005034549826307921
1761466976722444000,4.991444091796875,-0.01006429789662361,0.007034264284651726,-0.0014272503305095597
1761466976732397000,5.00139697265625,-0.013057634493708609,-0.009249711844418198,-0.00022581039579818024
1761466976742351000,5.01135107421875,-0.0006388824254274368,-0.007405910608638077,0.009267241222065058
1761466976752305200,5.02130517578125,-0.004082300877571106,-0.0008813311454840003,0.0016814628390071447
1761466976762259000,5.031259033203125,0.005790858361124992,0.002851297777891159,-0.0155939183555427
1761466976772213000,5.041212890625,-0.0046843584239482875,0.01048743694582954,-0.0018553466847457457
1761466976782167000,5.0511669921875,0.0012993921607732772,0.005030925105605274,-0.005470423917856532
1761466976792120800,5.061120849609375,-0.00573474425971508,0.0024138927413150666,0.0013644433392983046
1761466976802073900,5.071073974609375,-0.01635901412665844,-0.006736194653529673,0.0019169558056586536
1761466976812028000,5.08102783203125,-0.002893383353948593,-0.0018564597879536448,0.005586599355898215
1761466976821982000,5.09098193359375,-0.003941431102156639,0.005366659865994006,-0.004705401211977005
1761466976831936000,5.10093603515625,-0.0030459435671567913,0.01893597020888701,0.002182273088415968
1761466976841890000,5.11089013671875,-0.01067863040268421,-0.004068601145781577,0.0035478309579775667
1761466976851844000,5.120843994140625,-0.014119710767269134,-0.0024281769949942825,0.014360663933272007
1761466976861798100,5.130798095703125,0.0030880291432142256,0.0035848544831387696,0.004572378814178228
1761466976871751200,5.140751220703125,-0.010830606094002724,0.0008416749885305761,0.009941324537503533
1761466976881705000,5.150705078125,0.0015875614523887633,0.002558872436266392,-0.008742037458560661
1761466976891659000,5.160658935546875,-0.006194178465008735,-0.0021849428236484524,-0.0075730450531817034
1761466976901613000,5.170613037109375,-0.002454407414793968,0.00788786717299372,0.002903013979985553
1761466976911566800,5.18056689453125,0.009963175609707832,0.006188936034310609,-0.0006494317897275323
1761466976921521000,5.19052099609375,-0.006796820533275604,0.005334967819787562,-0.014590033976046834
1761466976931473700,5.2004736328125,-0.013082768934965133,-0.00972445321669802,0.007259498720892588
1761466976941428000,5.210427978515625,-0.0027601123631000517,-0.00035997415250167247,0.006895375262125162
1761466976951382000,5.220382080078125,-0.0008136544704437256,0.01501525310119614,-0.01005058218181366
1761466976961335800,5.230335693359375,-0.0003647416591644287,0.009182437028177082,0.0003252290639837156
1761466976971289900,5.240289794921875,-0.014430676412582397,-0.0007064860352315009,-0.007740533407463226
1761466976981244000,5.250243896484375,0.005469371321797371,-0.008863507272116839,-0.004184550252837652
1761466976991198000,5.260197998046875,0.005918284133076667,-0.00376510642087087,-0.0025170677047106436
1761466977001150700,5.270150634765625,-0.01188859071433544,0.010464311798568814,0.002629344712824968
1761466977011104800,5.280104736328125,-0.0073988780796527855,0.003401862599048763,0.0038259988745645386
1761466977021058800,5.290058837890625,0.004121463844180107,-0.005345507480110973,0.007546115376238594
1761466977031012900,5.300012939453125,0.005316226586699485,0.00731620476488024,0.0012667185858663288
1761466977040966700,5.309966552734375,0.0062122986435890195,-0.002338525950163603,0.00879065552339307
1761466977050920700,5.319920654296875,-0.004561024305224418,-0.005936239914875477,-0.0016992174059952958
1761466977060875000,5.329875,-0.0038163434177637097,0.011262074580136686,0.0006790740135649685
1761466977070827800,5.339827880859375,-0.005462357059121132,0.004082081681862473,0.005523295749409589
1761466977080781800,5.34978173828125,-0.0009732289463281631,0.003341839507501572,-0.0023096169473879853
1761466977090735900,5.35973583984375,0.008302548921108245,-0.0021013927260413764,-0.008972010860356386
1761466977100690000,5.36968994140625,-0.012348609441518783,0.00646620033942163,0.008187833646146463
1761466977110644000,5.37964404296875,0.0006698620855808258,-0.001469067905563861,-0.01354490883728722
1761466977120597800,5.38959765625,-0.004717091649770736,-0.006094480950199067,0.003850616150946007
1761466977130550800,5.39955078125,-0.013995207604765891,0.006352072440460324,0.0015808171885932096
1761466977140504800,5.4095048828125,-0.004569207611680031,0.006263316444773227,0.0009310805798333603
1761466977150459000,5.419458984375,-0.012350363007187842,0.00773881409112364,-0.0012928422619224874
1761466977160412700,5.42941259765625,-0.008161679145693778,0.008846720534097402,0.0006465368651537573
1761466977170366700,5.43936669921875,-0.0033732758253812787,0.008999591274559498,0.002920398939626466
1761466977180320800,5.44932080078125,0.005454173752665519,0.0038158136948011814,0.0035854150304978245
1761466977190275000,5.459275146484375,-0.005021627554297447,0.009417341762594879,0.0036064532519492786
1761466977200227800,5.469227783203125,-0.009364040672779083,-0.0009438932539895176,0.00429513534407597
1761466977210182000,5.479181884765625,0.00170621939599514,0.014304182222392409,0.0011197452945285477
1761466977220136000,5.489135986328125,0.01083294418156147,-0.0029975378481671214,-0.0007358060299608041
1761466977230090000,5.499090087890625,-0.0072726213514804836,0.0025062289335764944,-0.0024694551431093713
1761466977240043800,5.509043701171875,-0.008468553137779236,0.0011268303391523658,-0.006115271434833994
1761466977249997800,5.518997802734375,0.012930208721756934,0.002576590756047517,-0.00017448863181489287
1761466977259951900,5.528951904296875,-0.0020347206979990005,0.003996412692405283,0.0033682825585550744
1761466977269905000,5.53890478515625,0.0033528175592422486,0.0012565211334265767,-0.007531756344856694
1761466977279859000,5.54885888671875,-0.005175941333174706,0.0025840251438319682,-0.0010655979608636698
1761466977289812700,5.558812744140625,-0.0020347206979990005,0.0039849231840111314,-0.009008063417027005
1761466977299766800,5.568766845703125,0.006195347508788108,0.006233323165308684,-0.001091064620616089
1761466977309720800,5.578720947265625,-0.045128597015142435,-0.006734842946659774,-0.0221744680729229
1761466977319674600,5.588674560546875,-0.0012847791135311127,0.012432287403289229,-0.01134696382652619
1761466977329627600,5.598627685546875,0.1513426541119814,0.032901988251786675,0.03340241662117187
1761466977339581700,5.608581787109375,-0.11995090602636337,-0.05924598796116188,0.012514980126015143
1761466977349536000,5.618535888671875,-0.04737900629043579,0.08856768830707296,-0.020240808013046625
1761466977359489800,5.62848974609375,0.09777063840031623,-0.07219599736193194,-0.006061186035373247
1761466977369443800,5.63844384765625,-0.06862579245865344,0.03477647688677534,-0.0038048430637485577
1761466977379398000,5.64839794921875,-0.051420390635728834,0.013056154922675341,-0.001264510360348504
1761466977389351000,5.658350830078125,0.07352817754745483,-0.02217241311315447,0.02918250193777494
1761466977399305000,5.668304931640625,-0.013412439280748367,0.03773530842605978,0.019609990163065957
1761466977409258800,5.6782587890625,-0.045585693132877345,-0.021017434391751886,-0.024995178916305302
1761466977419212800,5.688212890625,0.035816578790545464,-0.006465944611094891,-0.020387735353200695
1761466977429166800,5.698166748046875,-0.00009703063368797301,0.01060395773127675,0.014106475684716133
1761466977439121000,5.708120849609375,-0.017603461229801175,-0.002306925235502422,0.00954788764846162
1761466977449074700,5.71807470703125,0.024596096596121785,0.004029712173808366,0.005334660146644455
1761466977459027700,5.72802783203125,0.006790975314378738,0.012641527973487972,-0.001999073995882645
1761466977468981800,5.737981689453125,0.0006564180821180344,0.006026018823869526,-0.027701711628376504
1761466977478935800,5.747935791015625,0.006194762986898422,0.005048570360150188,-0.013136387401900719
1761466977488889900,5.757889892578125,-0.004279284754395485,0.008306932835280894,0.007856368064676643
1761466977498844000,5.767843994140625,-0.0026338556349277493,0.009090192167460917,0.002422068912493705
1761466977508798000,5.7777978515625,-0.0009884265154600142,-0.005855886421352625,0.0013094888631021604
1761466977518751700,5.787751708984375,-0.001437339326739311,0.0059737771799787875,-0.001786587445483019
1761466977528704800,5.797704833984375,-0.00038929157853126526,0.002642532131727785,-0.001968671722341969
1761466977538658800,5.807658935546875,-0.013855506873130797,-0.0021904227163642644,-0.005788596763735404
1761466977548612900,5.81761279296875,-0.0021837737798690794,0.001990991154126823,0.009454473743966081
1761466977558567000,5.82756689453125,0.007242810735106468,0.0077221734835766255,0.009413239834568229
1761466977568520700,5.837520751953125,-0.011163783571124077,-0.0030076939160004258,0.003084311378499842
1761466977578474800,5.847474853515625,-0.015502105036377906,0.006365023253578692,-0.012670034832053352
1761466977588427800,5.857427734375,0.012928455156087875,0.00398214670503512,-0.013447654441313352
1761466977598381800,5.8673818359375,-0.009516016364097594,0.01590266692759469,-0.006396636526327347
1761466977608335600,5.877335693359375,0.0015577508360147476,0.015428911936003714,0.010292519445216749
1761466977618290000,5.8872900390625,-0.01340484049618244,-0.001670472229178995,-0.0010800805752427549
1761466977628244000,5.897243896484375,0.0064963762819767,-0.001350117701012641,0.002293356221987051
1761466977638198000,5.907197998046875,0.004850947162508964,-0.00466547106038779,-0.004999195955958566
1761466977648151800,5.91715185546875,-0.013854922351241111,0.00855425865985453,0.0009966800330410478
1761466977658104800,5.927104736328125,-0.004276946666836738,0.004600735261105,0.003999840764874534
1761466977668059000,5.937058837890625,-0.008915712383389472,-0.0003390957612544298,0.005066602061295998
1761466977678013000,5.947012939453125,0.0009609539866447448,0.005021536222752183,-0.01425128070808714
1761466977687966700,5.956966796875,-0.006819616886973381,0.013377349701058118,-0.014463758981565478
1761466977697920800,5.966920654296875,-0.00921381854712963,-0.002467687021475285,0.004072881741143646
1761466977707874800,5.976874755859375,-0.004873743516206741,0.007818126405030488,0.011908612872345839
1761466977717827800,5.986827880859375,0.004104512709379196,-0.0004263721859082579,0.0027892240077417225
1761466977727782000,5.996781982421875,0.006200023683905601,0.009123400317318738,-0.013692545138561399
1761466977737735700,6.006735595703125,0.005303951627016067,0.00038803120320662855,-0.0011168560781763517
1761466977747689700,6.016689697265625,-0.0012795184165239333,0.008442487114761024,-0.011706570369558175
1761466977757644000,6.02664404296875,0.015031564915180205,0.01139238642891869,0.006228555658645928
1761466977767597800,6.036597900390625,-0.011155015742778777,0.007214753684401512,0.008929730633943108
1761466977777550800,6.04655078125,-0.0026285949379205704,0.01153983207559213,-0.0046247326246229925
1761466977787505000,6.0565048828125,0.0084440032184124,0.002713825535960495,0.006830122868789476
1761466977797459000,6.066458984375,-0.007265607088804245,0.0008157733622938395,-0.0033945221115092863
1761466977807412700,6.076412841796875,-0.005768062007427215,0.0049581521303392944,-0.007242026425461517
1761466977817366800,6.08636669921875,-0.011153846698999404,-0.002273644020408392,-0.004820605681528104
1761466977827320800,6.09632080078125,-0.009655132573843001,0.004351564539317041,0.005948843668121844
1761466977837275000,6.10627490234375,-0.0047153380841016765,0.010398151227179913,-0.004365336194698466
1761466977847228000,6.116227783203125,-0.002021276694536209,-0.01267932096691802,-0.003511942512677342
1761466977857181700,6.126181640625,0.001572363883256912,0.00682440265994519,-0.008435358687653206
1761466977867135700,6.1361357421875,-0.0003723404437303543,0.006345861895382404,0.002598260592216684
1761466977877089800,6.14608984375,-0.006209960556030273,0.00986501246485859,0.01053664067419595
1761466977887043800,6.1560439453125,-0.004564531436562538,-0.002957132772542536,0.007103563807086902
1761466977896998000,6.165997802734375,-0.014290975680947303,-0.00986190719231963,0.018080662845581536
1761466977906951700,6.17595166015625,0.0038145898520946502,0.004375822197739035,-0.002797173562523676
1761466977916905700,6.18590576171875,-0.005762801310420036,0.005455452394299209,-0.001046821907623962
1761466977926859500,6.195859619140625,-0.0014227262794971466,0.008882394635677337,-0.008932765124534489
1761466977936813600,6.2058134765625,-0.0009755670338869094,0.01091565402895212,0.0028536467110709053
1761466977946767600,6.215767578125,0.005607318487763404,0.009597283173073082,-0.005172050038524321
1761466977956721700,6.2257216796875,0.00037117139995098113,0.0034179186847060916,0.0012203327210823772
1761466977966674700,6.2356748046875,-0.005614332750439643,-0.00121839934643358,-0.0071091316064150305
1761466977976628500,6.24562841796875,-0.009206804284453392,-0.004321808721870183,0.0009771236659114947
1761466977986582500,6.25558251953125,-0.007559621599316596,0.003269157863780856,-0.0004338402522000251
1761466977996536600,6.26553662109375,-0.003071078008413315,0.013155487111303954,-0.010272942528489511
1761466978006490400,6.275490478515625,0.006505144110321998,-0.001485763312038034,0.0004207615749182878
1761466978016444700,6.285444580078125,-0.0009779051214456557,0.001714530566614121,0.00403696389850229
1761466978026398700,6.295398681640625,-0.013397241711616515,0.005284991198219359,0.005057960384647594
1761466978036351700,6.305351806640625,0.0002209492743015289,0.0031429559345357116,-0.009964106049825203
1761466978046305500,6.315305419921875,-0.013545710271596907,-0.0030084428346715867,0.0028391929232107938
1761466978056259600,6.325259521484375,-0.00007715688943862914,0.006681121731735766,-0.008965114757866832
1761466978066213600,6.335213623046875,-0.0048655602097511285,0.0015859357508830724,-0.0026339954863564344
1761466978076167700,6.345167724609375,0.00291442614197731,0.004487776405923068,0.003284307483851444
1761466978086121500,6.35512158203125,-0.011300561693310738,0.008787062768731266,0.007355713078894768
1761466978096074500,6.365074462890625,-0.003069324442744255,0.015025573565810918,0.003313183093530824
1761466978106028500,6.375028564453125,-0.017731471523642538,0.0033959991138428447,-0.01412953233331791
1761466978115982600,6.384982666015625,-0.012794599643349646,-0.0034358927328139543,-0.00043240805940586137
1761466978125936400,6.394936279296875,0.016532617127895353,0.006073931352514773,0.00638783559029689
1761466978135890400,6.404890380859375,-0.008906944555044174,-0.0055367740022018545,0.002588123076103511
1761466978145844700,6.4148447265625,-0.00022737901508808136,-0.005569598559569567,0.010489959979767444
1761466978155798800,6.424798828125,-0.0009767360776662827,0.01454856717120856,-0.0036584916831518054
1761466978165751800,6.434751708984375,0.0000713116705417633,-0.0047820466447621585,-0.008406159992632455
1761466978175705600,6.44470556640625,0.006805588361620903,0.019736856529302894,-0.012347710967442253
1761466978185659600,6.45465966796875,-0.003220131090283394,-0.0034610637066885826,-0.00036026156145817364
1761466978195613700,6.46461376953125,0.000969137293100357,-0.0025450265740044413,-0.00794575938542548
1761466978205567500,6.4745673828125,-0.012048749712109565,-0.002866239618696272,-0.001074524192357785
1761466978215521500,6.484521484375,-0.005164250895380974,-0.0023287352085113525,-0.006420700105215655
1761466978225474600,6.494474609375,0.002918517795205116,-0.0007907485188916325,-0.024050963718618732
1761466978235428600,6.5044287109375,-0.009947393518686294,0.00357088075671345,-0.0075268849485612
1761466978245382700,6.514382568359375,-0.002913257098197937,-0.005750690747518092,0.0008719785098379361
1761466978255336400,6.52433642578125,-0.003212532305717468,0.0020380634325556455,0.00033919251561019336
1761466978265290500,6.53429052734375,-0.0008183306455612182,-0.000525448646210134,-0.013257496455853106
1761466978275244500,6.54424462890625,0.007710428246855736,0.0034001638323068618,0.005443683183047688
1761466978285197600,6.554197509765625,-0.002765373060107231,-0.0010416180074214936,-0.000056869584535888856
1761466978295151400,6.5641513671875,0.0005278232663869858,-0.002878551110997796,-0.012279067319666501
1761466978305105700,6.574105712890625,-0.00530862780213356,0.0016250987174920737,-0.006262857503758277
1761466978315059700,6.584059814453125,-0.003513561078906059,0.0028503661961294707,0.01446932563924929
1761466978325013800,6.594013671875,-0.01129471647441387,0.013942673699930309,0.0046311469532112825
1761466978334967600,6.603967529296875,-0.0148836808770895,-0.004439827344659716,-0.012356443404813762
1761466978344920600,6.613920654296875,-0.04675415239036083,-0.007542926192842424,0.0024028541824256534
1761466978354874600,6.62387451171875,0.13595043919086455,0.029853779662307352,0.016089922853204187
1761466978364828700,6.63382861328125,-0.026557167536020276,-0.04595688279913738,0.012347127587196883
1761466978374782500,6.643782470703125,-0.11229951449036597,0.056090939730033276,-0.027612709037517197
1761466978384736500,6.653736572265625,0.08686930515766143,-0.023410832334309815,-0.01668992315652431
1761466978394690600,6.663690673828125,-0.01144201599061489,-0.006088160807266831,-0.011700475130556151
1761466978404644600,6.67364453125,-0.05528700293600559,0.048886780504882335,-0.011487375802570022
1761466978414597600,6.68359765625,0.05170446827411651,-0.035241171789076174,0.02615046359838452
1761466978424551400,6.693551513671875,0.006814356189966201,0.02725165260620415,0.021476311474619432
1761466978434505700,6.703505615234375,-0.05423953970968723,0.017436361034587025,-0.0039052038739057025
1761466978444459800,6.713459716796875,0.037485973307490345,-0.007580098131764679,-0.0034652238585753366
1761466978454413600,6.72341357421875,0.011598667857050896,0.013509159387182444,0.005184270770102739
1761466978464367600,6.73336767578125,-0.02790332144796848,-0.005735767173022032,-0.00021915860519220584
1761466978474320600,6.743320556640625,0.019084055176377294,-0.0029493513248860835,-0.0045578208512743
1761466978484274700,6.753274658203125,0.011153846698999404,-0.0010398644417524336,-0.004341287457186263
1761466978494228500,6.763228515625,-0.016527356430888176,0.006519574494473636,-0.00964821649257792
1761466978504182500,6.7731826171875,0.0012789338946342468,0.00025879706665873524,-0.009085585632646689
1761466978514136600,6.783136474609375,0.0017266776621341704,-0.0038937743018381296,0.0009182091109949396
1761466978524090600,6.793090576171875,-0.018325345763564108,0.0010893113403581082,0.004687600693805143
1761466978534043600,6.803043701171875,0.0023240590333938596,-0.0018803338538855314,-0.0038328807065001456
1761466978543997400,6.81299755859375,-0.0026151509344577786,0.0028042072331532835,0.0006354512134363175
1761466978553951500,6.822951416015625,-0.008749123644828796,0.012781594031304121,-0.004502128016616916
1761466978563905500,6.832905517578125,0.007112462353706359,0.001710694641713053,-0.006818995832465588
1761466978573859600,6.842859619140625,-0.01413549285829067,0.02054890356454998,-0.004049341035351972
1761466978583813600,6.852813720703125,-0.013538111487030982,0.0018822518163360655,0.005713111812397255
1761466978593766700,6.8627666015625,-0.02161737304627895,-0.006252484523504972,0.0049804296066955425
1761466978603720700,6.872720703125,-0.006953472399711609,0.002149798445031047,-0.016046009504597166
1761466978613674800,6.8826748046875,0.0030728315740823743,-0.004748601032886654,0.0022865320430893914
1761466978623628500,6.892628662109375,0.0018768997877836226,-0.0018061543728224933,-0.0009376901295996504
1761466978633582600,6.90258251953125,-0.012487141129374503,0.00786329898731783,-0.0008200288414809619
1761466978643536600,6.91253662109375,0.006218728384375572,0.0031712869798764583,-0.004510978043352952
1761466978653490400,6.922490478515625,-0.005003507375717163,-0.0013699001137167214,-0.007546743280612281
1761466978663443500,6.932443359375,0.005021627554297447,0.01946969349309802,-0.00804186814132845
1761466978673397500,6.9423974609375,0.006217559340596199,-0.003818151782359928,0.003255954747268697
1761466978683351600,6.9523515625,-0.017126491367816923,-0.004842964785452932,0.004570455999739351
1761466978693305600,6.9623056640625,-0.01248772565126419,0.0021990992131642995,0.009402916515842661
1761466978703259400,6.97225927734375,0.0044184009641408915,0.006366703754011541,-0.0008364668071619235
1761466978713213700,6.982213623046875,-0.01563479150533676,0.00017058906024321912,-0.0050624521842080866
1761466978723166700,6.992166748046875,-0.01473813492655754,0.011422525838855653,-0.0042995306746917775
1761466978733120800,7.002120849609375,-0.00007540332376956939,0.0019465492242015897,-0.00629518259173783
1761466978743074600,7.012074462890625,-0.015638883158564567,0.002428012598212808,-0.008637602119840448
1761466978753028600,7.022028564453125,-0.0068096800148487084,0.013331848325207828,-0.013891364779445576
1761466978762982700,7.031982666015625,0.005909516304731369,-0.0068842248220928005,-0.01011669937071856
1761466978772936700,7.041936767578125,0.008005027279257775,0.004027118357922882,-0.005932485046720831
1761466978782889700,7.0518896484375,-0.009800678524374962,0.009199424695596098,-0.0017250268444535322
1761466978792843500,7.061843505859375,-0.012643792995810508,0.003214943458512425,-0.00538305102425802
1761466978802797600,7.071797607421875,-0.01578501363098621,0.0028597733452916142,0.00230090249091445
1761466978812751600,7.081751708984375,-0.005161912807822227,-0.003514182133413851,-0.009481500460676034
1761466978822705400,7.091705322265625,-0.001869301003217697,-0.00249917813828215,-0.0048187402347160966
1761466978832659500,7.101659423828125,0.006661211454868316,0.00928936800137162,0.004273950992152094
1761466978842613800,7.11161376953125,-0.004561608827114105,0.007927943455055356,-0.0060241568019904655
1761466978852566500,7.12156640625,-0.010099953731894493,0.005021664086915552,-0.00045300218121847136
1761466978862520600,7.1315205078125,0.004413140267133712,0.010027984474226832,-0.0000028626731218537312
1761466978872474600,7.141474609375,-0.023866028755903244,0.0059029769660905,0.0014959068217838649
1761466978882428700,7.1514287109375,-0.008005027279257775,0.004421323573589325,-0.005291533961793175
1761466978892382700,7.1613828125,0.005611410140991211,0.0012912453869357704,-0.003122898385551525
1761466978902335700,7.171335693359375,-0.008005027279257775,-0.00709478056654334,0.005751157109221094
1761466978912289500,7.18128955078125,-0.0008206687331199646,0.010330693747848271,-0.002231999689879012
1761466978922243600,7.19124365234375,0.0044172319203615185,-0.006614467970002442,0.0040855694052472245
1761466978932197600,7.20119775390625,0.00007832593321800231,0.016552527404762804,0.010635690876678563
1761466978942151400,7.2111513671875,-0.003960720324516296,0.004084803361911326,0.0015017212162842042
1761466978952105500,7.22110546875,-0.003362169909477234,0.00825998842101544,-0.008677240581306978
1761466978962059500,7.2310595703125,-0.002316460248827934,0.01417065550321713,-0.005073749325535027
1761466978972012500,7.241012451171875,-0.0029138416200876235,-0.00847743056397885,0.004327957047332893
1761466978981966600,7.250966552734375,-0.011295885518193244,0.013341602534241973,-0.006370394119262345
1761466978991920400,7.26092041015625,-0.007104279047250747,-0.004857230772823095,-0.0020286134717316597
1761466979001874700,7.270874755859375,-0.013986439776420593,-0.007739179417304694,0.002066022872671601
1761466979011828700,7.280828857421875,0.0063648588567972175,-0.007025204195361584,-0.010426235677348449
1761466979021782500,7.290782470703125,0.0014256488889455795,0.007679868711810559,0.0019974973850825336
1761466979031735600,7.300735595703125,-0.0018669629156589508,0.004879113811068237,-0.0006179566559410887
1761466979041689600,7.310689697265625,-0.023563246417045592,0.004965988376922905,0.0007349238243157742
1761466979051643600,7.3206435546875,0.005766308441758156,0.016316124833002685,-0.005063328967042616
1761466979061597700,7.33059765625,-0.004558686217665672,-0.0022249460404738784,-0.014758270107355202
1761466979071551500,7.340551513671875,-0.025658757391571998,0.01443515165830031,-0.006580936734803254
1761466979081505500,7.350505615234375,0.0011257891595363616,-0.008148819664120673,0.0013475044771737883
1761466979091458600,7.36045849609375,-0.0036620296388864514,-0.00637304216325283,0.010831195182469673
1761466979101412600,7.37041259765625,-0.019972528448700903,0.021015004972647876,-0.0060733485430915606
1761466979111366400,7.380366455078125,0.005315642064809799,-0.010547259107977151,-0.00007424512561119627
1761466979121320400,7.390320556640625,0.015492168164253233,-0.0035559937148354945,0.0031201727097475668
1761466979131274800,7.400274658203125,-0.01607961266338825,-0.0034931210790760813,-0.01420848046268802
1761466979141228800,7.410228759765625,-0.005753448960185051,0.007684179560746997,-0.0072813029856799395
1761466979151181800,7.420181884765625,0.00966039327085018,-0.0016402780203148722,0.009955225198692642
1761466979161135600,7.430135498046875,-0.016973931154608726,-0.00632733985800296,0.004581483713007765
1761466979171089700,7.440089599609375,-0.012036474752426148,-0.0027307401381433008,-0.01203819749369868
1761466979181043700,7.450043701171875,0.005621347013115882,0.0114572683586739,0.009021485729247797
1761466979190997500,7.45999755859375,-0.011288286733627318,0.0017541319246403872,-0.003968286001397064
1761466979200951600,7.46995166015625,0.0033761984348297117,0.0008637772224843502,-0.004565400227886857
1761466979210904600,7.479904541015625,0.01938742203712463,0.011503208125941454,-0.0020262417056655974
1761466979220858600,7.489858642578125,-0.01667524046897888,0.007156666821613907,-0.0014448507755150785
1761466979230812700,7.499812744140625,-0.019667992544174194,0.011945508533343672,-0.004371221371146384
1761466979240766500,7.509766357421875,0.014597265151143074,0.005889514696318656,0.0013063932945398845
1761466979250720500,7.519720458984375,-0.020867431461811064,-0.0006730038907378911,-0.01504876492844196
1761466979260674600,7.529674560546875,-0.012190204009413718,0.0062926886697299775,-0.01932148979459889
1761466979270627600,7.539627685546875,0.01698854420185089,-0.005648253286350518,-0.006556374257348943
1761466979280581400,7.549581298828125,0.0012777648508548736,0.006874909004475921,0.005355348454113118
1761466979290535700,7.55953564453125,-0.010990765091776848,0.0022855719202198085,0.0064733641575032376
1761466979300489700,7.56948974609375,0.005919453176856041,0.008689082286972552,-0.004031543942113057
1761466979310443500,7.579443603515625,0.008014379629492759,-0.0016435111570172012,0.0013198304481367813
1761466979320397600,7.5893974609375,-0.017874094864726065,0.010668346470687538,-0.0006747448983194772
1761466979330350600,7.5993505859375,-0.0026122283250093457,0.005942505258880555,0.0014879461359698324
1761466979340304600,7.6093046875,0.012799860340356826,0.0020782310461625454,0.011083432360889855
1761466979350258700,7.6192587890625,-0.011740122154355048,-0.0030429844250902532,-0.01897753291184781
1761466979360212500,7.62921240234375,-0.004109188884496688,0.005061484640650451,-0.0058676990150881465
1761466979370166500,7.63916650390625,0.0026239187628030775,0.008671820624917745,-0.004081191770118312
1761466979380120600,7.64912060546875,-0.025358313140273092,0.014512874803319573,0.0037293512625445144
1761466979390073600,7.659073486328125,-0.015333178210258484,-0.009107143302261828,-0.006911077438044594
1761466979400027400,7.66902734375,-0.006503390544652939,-0.001819141718558967,-0.00809871004098968
1761466979409981400,7.6789814453125,-0.0068026657521724695,0.010741155978571624,-0.0045120334935229035
1761466979419935700,7.688935791015625,-0.0035100539475679394,0.0009843531285412608,-0.0025127637056400996
1761466979429889800,7.698889892578125,0.004570376655459404,-0.00499234666088596,0.0036337613839830737
1761466979439843600,7.708843505859375,-0.0030611411362886426,-0.004854399494919926,-0.005412009403150296
1761466979449796600,7.718796630859375,-0.018172201028466225,-0.010486980288103222,-0.006065693817954161
1761466979459750700,7.728750732421875,0.01908873135149479,-0.003957943845540285,0.0013714967032923595
1761466979469704700,7.73870458984375,0.007867080113291739,0.0018305764280259608,0.012737645291723311
1761466979479658500,7.748658447265625,-0.016073767444491384,-0.0024224048413336277,0.0016007542941020802
1761466979489612500,7.758612548828125,0.00008767828345298767,0.00966970908846706,-0.00009217864534584805
1761466979499566600,7.768566650390625,0.012805705559253693,-0.001507993410155177,-0.006881954091548686
1761466979509519600,7.77851953125,-0.013379706054925918,0.004286737408488989,-0.0017036153053108136
1761466979519473700,7.7884736328125,-0.002305354332923889,0.00033162484085187314,-0.01298936188033549
1761466979529427500,7.798427490234375,0.006673486414551734,0.00510360674932599,-0.00010921768675907514
1761466979539381500,7.808381591796875,-0.004848609074950218,0.0175195640723221,0.0012196614342246902
1761466979549335600,7.81833544921875,0.011760580420494078,0.0021326646471396087,0.00896551718748815
1761466979559289600,7.82828955078125,-0.0021568857729434964,0.0006716339175589383,-0.006035365465882932
1761466979569242400,7.838242431640625,-0.01547580155134201,0.002393215279467404,-0.008887852837151149
1761466979579196700,7.84819677734375,0.002181435692310333,0.010154716126434505,-0.00424522037130082
1761466979589150700,7.858150634765625,-0.0024567455023527143,-0.004825812721252441,0.004709681807339074
1761466979599104800,7.868104736328125,0.006971008056402206,0.0017218918891623615,-0.0026318942899932153
1761466979609058600,7.87805859375,-0.017421090400218962,0.002380209667421877,-0.006835203756816918
1761466979619012600,7.8880126953125,-0.014577975928783416,0.006416369848325848,-0.00712918573046627
1761466979628965600,7.897965576171875,-0.002007248169183731,0.00591587298028171,-0.0035484845493483587
1761466979642029600,7.911029541015625,-0.010684475621581077,0.004798376725055277,-0.012967793935921509
1761466979651983600,7.920983642578125,0.004130816194415092,0.002180595442093909,-0.0029942299337621077
1761466979661937400,7.9309375,0.004129062628746033,-0.007768569908570498,0.0029657145128643603
1761466979671891700,7.9408916015625,-0.007841945672035217,0.0001721234302036464,-0.001928454161796253
1761466979681845800,7.950845703125,-0.007991583275794982,-0.01090869456520304,-0.013027004176715854
1761466979691799600,7.960799560546875,-0.0032020109117031096,0.006547156621143221,-0.006106438532762695
1761466979701752600,7.970752685546875,-0.0009562778115272521,0.0014130634020082652,0.0005304536148905754
1761466979711706600,7.98070654296875,0.015204583394527434,0.004537789560109377,-0.00597275597913831
1761466979721660700,7.99066064453125,-0.018762568137049674,0.007946301095653325,-0.011426415421039563
1761466979731614500,8.000614501953125,-0.00604454086124897,-0.00576647283853963,0.004336260797263822
1761466979741568500,8.010568603515624,0.006076105043292045,-0.002178092957753688,0.012922385033260797
1761466979751521500,8.020521484375,-0.008287351351976394,0.0020872911354526875,0.003380450489083887
1761466979761475600,8.0304755859375,-0.0011053308933973312,0.0072016019418835635,0.0015363575631810818
1761466979771429600,8.0404296875,0.0012888707667589186,-0.0002768624463118613,-0.008666253967233932
1761466979781383400,8.050383544921875,0.0005418517917394638,0.006240447025839239,0.004585190632101148
1761466979791337500,8.06033740234375,-0.007539163333177566,0.009875004135910422,0.006744887704172288
1761466979801291800,8.070291748046875,-0.009784311911463736,0.011835600151773542,-0.004812288231865386
1761466979811244500,8.08024462890625,-0.007690554502606391,0.0008163030852563678,-0.014624620090593815
1761466979821198600,8.090198486328125,0.002484218031167984,0.010114859040081501,-0.005244944598909933
1761466979831152600,8.100152587890625,0.0020329671323299405,-0.006679021106194704,0.0028341479969793
1761466979841106700,8.110106689453126,0.00502455016374588,0.007587130660749971,-0.0203602103087469
1761466979851060700,8.120060791015625,-0.005602057790756225,0.00484396943245083,-0.0012710291493916884
1761466979861014500,8.1300146484375,-0.004855623337626457,0.004937365070637315,0.0006584228095365688
1761466979870967600,8.139967529296875,0.012651391780376433,0.021265253406669942,-0.0031731495725776764
1761466979880921600,8.149921630859374,-0.008448094871640204,0.007101027644239366,-0.005612439904164057
1761466979890875600,8.159875732421876,-0.015031564915180205,-0.0019161358196288347,0.0007478409589268267
1761466979900829400,8.169829345703125,-0.006053308689594268,0.0003449227138422429,-0.001106906933375285
1761466979910783200,8.179783203125,0.006964578315615653,0.007855718469060956,0.000714958177699009
1761466979920737300,8.1897373046875,-0.01533200916647911,0.0021795542624779046,-0.012702420998003798
1761466979930691300,8.19969140625,-0.011891513323783874,0.01122618128284812,-0.013864665143832097
1761466979940644400,8.209644287109375,-0.0024649288088083266,0.004811126608774066,-0.009060595609396113
1761466979950598100,8.21959814453125,-0.009946808996796607,0.013060063912812619,0.0007133461759251076
1761466979960552200,8.22955224609375,0.0032189620465040204,0.011499755793530493,-0.004323318546477822
1761466979970506200,8.23950634765625,0.015937573844194412,-0.007311729519162326,-0.0069022924850345585
1761466979980460300,8.249460205078124,-0.005609072053432464,-0.00033113165050745007,0.002804757505713496
1761466979991036200,8.2600361328125,-0.003514145600795746,-0.0039382527643814684,-0.0023443038120458367
1761466980000990200,8.269990234375,-0.011593991681933402,0.0008446523969061672,-0.0076546657718950875
1761466980010944300,8.2799443359375,-0.009199205499887467,0.0038087811658158895,0.00025780783185909965
1761466980020897000,8.28989697265625,-0.004709492865204811,0.004095196891762316,0.0005027430532354629
1761466980030851000,8.29985107421875,-0.00949789618551731,0.014404336394928396,-0.013175001237593824
1761466980040805000,8.30980517578125,0.0017255086183547972,0.011833937917649745,0.003257990299083758
1761466980050759400,8.319759521484375,0.007261515435576438,0.007677347961161285,0.008550808610732201
1761466980060713200,8.329713134765624,0.0015747019708156585,-0.004260452189762145,0.0029601786795770747
1761466980070667300,8.339667236328125,0.007110124266147613,0.0040280864723026754,-0.005754606587521266
1761466980080620300,8.349620361328125,0.0017225860089063643,-0.0041795507069677116,-0.01863624405186274
1761466980090574300,8.35957421875,-0.004862637600302696,-0.01354167341729626,0.0015806470835901564
1761466980100528000,8.369528076171875,-0.0018716390907764435,0.004643807217851281,0.0004382098958187271
1761466980110482200,8.379482177734374,0.012791677033901213,0.007416048410162329,0.0013728940759348916
1761466980120436200,8.389436279296875,-0.09404957205057143,-0.0096520821002312,-0.02008721575337695
1761466980130390300,8.399390380859375,-0.005161912807822227,0.029400683866254985,-0.01641215081969276
1761466980140344000,8.409343994140626,0.060680386412143704,-0.007474591930676251,0.005058012900286121
1761466980150297000,8.419297119140625,-0.04272036682963371,0.00696030399929732,-0.0007665182599332183
1761466980160251100,8.429251220703126,-0.003966565543413162,0.024723686764854938,-0.00818740039212862
1761466980170205200,8.439205078125,0.041973347854614255,-0.023358718554582446,0.018643585966457613
1761466980180159000,8.449158935546874,-0.040327334213256835,0.019573299998044965,0.004631202322960598
1761466980190113300,8.45911328125,-0.013093874850869177,0.018844620397314427,-0.011441547916445414
1761466980200067300,8.4690673828125,0.03748480426371097,0.0063935186957009135,-0.0006143256561947054
1761466980210020400,8.479020263671876,-0.029554011264443396,0.008839359211549162,0.020324145764810963
1761466980219974400,8.488974365234375,0.0021679916888475417,-0.0029300621025264264,-0.011541110717225819
1761466980229928200,8.49892822265625,0.016233341920375823,-0.0061950187152251595,0.0016552552520937751
1761466980239882200,8.50888232421875,-0.03374503321349621,0.014136771499924362,0.0024563390769762918
1761466980249836300,8.518836181640625,-0.010552373674511908,0.004598890363890678,-0.0161160322587064
1761466980259790000,8.5287900390625,0.01323883627951145,-0.0005841748298145831,-0.005338939029540051
1761466980269743000,8.5387431640625,-0.034793080961704255,0.012823807471524923,0.015535954790341202
1761466980279697200,8.548697265625,-0.013695347875356673,0.006891659209877252,-0.0068873340903868666
1761466980289651200,8.558651123046875,0.01907470282614231,-0.004765095509961247,-0.003048746874774224
1761466980299605200,8.568605224609374,-0.026116438031196593,0.00963898515664041,-0.006308266406418988
1761466980309559000,8.57855908203125,-0.003669628423452377,0.010489866364933549,-0.0099926574325189
1761466980319513300,8.588513427734375,0.01129471647441387,-0.0046596441077999765,0.016738745575689246
1761466980329466000,8.598466064453126,-0.002622165197134018,0.004344020553678274,-0.0003388211957964813
1761466980339420400,8.60842041015625,0.005757540613412856,-0.004327526076603681,-0.0075675879933522075
1761466980349374200,8.618374267578124,0.010994856745004652,0.011087631328683345,-0.010929599214269546
1761466980359328300,8.628328369140625,-0.010255436554551123,0.002046338070556521,0.003397711865727615
1761466980369282300,8.6382822265625,-0.0020247838258743286,0.003798953891545534,-0.007184097109589492
1761466980379236000,8.648236083984376,0.008898176726698875,0.010107735179550945,-0.0012531607033830368
1761466980389189000,8.658189208984375,-0.022526304584741592,0.008659856192488222,-0.000286678304139059
1761466980399143200,8.66814306640625,0.005157236632704735,-0.00006356675550341606,-0.0068628081455506616
1761466980409097200,8.67809716796875,0.0038110827207565303,-0.005166972575429827,0.005476258291132399
1761466980419051300,8.68805126953125,-0.001875146222114563,0.00395021719681099,-0.004323472953871532
1761466980429005000,8.698005126953126,0.004411386701464653,0.009578158347494899,0.002314282276884478
1761466980438959000,8.707958984375,-0.0002256254494190216,0.004253492726013064,0.011220502744021359
1761466980448912100,8.717912109375,-0.0041167876690626146,0.006518131456058472,0.0020790638756909173
1761466980458866200,8.7278662109375,-0.003069324442744255,0.010104702972248195,0.0035071430399737434
1761466980468820000,8.737820068359374,0.009801847568154335,-0.0039154929433017965,0.004390564536199963
1761466980478774300,8.747774169921875,-0.009201543587446213,-0.006175108438357711,-0.0036745768807391866
1761466980488728300,8.757728271484375,-0.002915595185756683,0.009633359133452176,0.0011471447581076063
1761466980498682400,8.767682373046876,-0.0048608840346336364,0.0063491680973209435,-0.005770317325773066
1761466980508635400,8.777635498046875,-0.01189385141134262,0.0008081563114188611,-0.0009416322274220874
1761466980518589200,8.787589111328124,-0.0012689970225095747,0.007059252595435828,-0.010359077308827545
1761466980528543200,8.797543212890625,-0.009648702833056449,0.014094192733522503,0.01057582304875832
1761466980538497300,8.807497314453125,-0.0029167642295360565,0.002952237401716411,-0.002139903813746059
1761466980548451000,8.817451171875,-0.00022387188374996183,0.00820785637497902,-0.013126539578032679
1761466980558405000,8.827405029296875,0.004713584518432617,0.0006231368670240044,-0.00608191258792649
1761466980568358100,8.837358154296876,0.00830196439921856,0.009416245784051716,0.004144499657773122
1761466980578312200,8.847312255859375,-0.007711012768745422,-0.0030740006178617474,-0.0062978009529761035
1761466980588266200,8.857266357421874,-0.009956161347031593,0.015514434794988482,-0.0014849855668478994
1761466980598220000,8.867219970703125,-0.012950666987895964,-0.0035517193985171616,0.014056331241433509
1761466980608174300,8.87717431640625,-0.012949497944116591,0.005976188332773745,-0.002991156912675069
1761466980618128400,8.88712841796875,-0.0005289923101663589,0.015529723695665597,-0.001435027782410907
1761466980628081400,8.897081298828125,-0.0044195700079202645,0.0033996889082714915,-0.003390935065069061
1761466980638035200,8.90703515625,-0.008608838391304016,0.002342471472918987,0.007928299077259726
1761466980647989200,8.9169892578125,-0.010852817925810812,0.009649579615890979,0.001586549384702812
1761466980657943300,8.926943359375,-0.016838906598091126,0.006680573742464184,-0.0026985038130093015
1761466980667897300,8.9368974609375,-0.023273323559761045,-0.004408865950815379,0.0012144969207511166
1761466980677851100,8.94685107421875,-0.01579085884988308,-0.0008397387597709893,0.009729834928002674
1761466980687804200,8.95680419921875,-0.005914777001738548,0.009483812861237674,0.009700501518952659
1761466980697758200,8.96675830078125,-0.0038210195928812026,0.004749021157994866,-0.0019369654055815771
1761466980707712300,8.976712158203124,0.0026139818906784056,0.012804262520838529,0.0019068162916679283
1761466980717666000,8.986666015625,-0.0024731121152639386,0.00545755301984027,0.005369789113063597
1761466980727620000,8.9966201171875,0.007403554254770278,0.0012299071211367845,0.005889946237870026
1761466980737574100,9.00657421875,0.0012684125006198882,-0.0035427141081541776,0.007010697891862946
1761466980747527200,9.016527099609375,0.0032131168276071545,0.00020745047191157937,0.004274969338881783
1761466980757481200,9.026481201171874,-0.006961655706167221,-0.005190170787926763,-0.00437843199664494
1761466980767435300,9.036435302734375,-0.004568038567900657,0.0018466690463013946,-0.006396927645627874
1761466980777389300,9.046389404296875,-0.008757891473174094,0.0005123882352374493,-0.001270122398393869
1761466980787343400,9.05634326171875,-0.0014244798451662063,0.012581358751468359,0.0067036223995557516
1761466980797297200,9.066297119140625,-0.002471358549594879,0.011055738353077322,0.0026850755071558523
1761466980807250200,9.076250244140626,-0.004115034103393554,-0.007744695842638611,-0.004050496664810634
1761466980817204200,9.086204345703125,-0.0018710545688867567,-0.004886109807435423,-0.004088444351045473
1761466980827158300,9.096158203125,0.008155249404907226,0.0009268507876433431,-0.002325018300030206
1761466980837112000,9.106112060546875,-0.00426467170715332,0.007199592647887766,-0.0026520143440036917
1761466980847066000,9.116066162109375,-0.005610825619101524,0.0029846235676668584,-0.00084081076378352
1761466980857020200,9.126020263671874,-0.009350012147426605,0.014883041556272654,-0.005690318883632426
1761466980866973200,9.13597314453125,0.0035205753415822982,0.004914057260286063,0.0035808441720684638
1761466980876927200,9.14592724609375,-0.0038099136769771573,0.0032094087668694555,0.012692827760818181
1761466980886881000,9.155881103515625,-0.010694997015595436,0.003116305389627814,0.008037795896054013
1761466980896835300,9.16583544921875,-0.004561608827114105,0.013234287968557327,0.010476914410170866
1761466980906789400,9.175789306640626,0.009503741404414177,-0.00499572592806071,-0.0041892715229056195
1761466980916743700,9.18574365234375,0.011300561693310738,0.01411280610244721,0.011394935720675858
1761466980926696700,9.19569677734375,0.0021720833420753476,-0.0011239442623220384,-0.002949122139789688
1761466980936650800,9.205650634765625,-0.006206453424692154,0.007203282442316413,-0.009388024336565286
1761466980946604800,9.215604736328125,-0.009947393518686294,-0.00493024121010676,-0.006530831678249523
1761466980956558600,9.22555859375,0.005016366857290268,-0.0016358393072150646,-0.0014037961042748066
1761466980966512600,9.2355126953125,-0.00949964975118637,-0.0009763524851761758,0.0055695015198027244
1761466980976466700,9.245466796875,-0.009051905983686447,0.004153557749185711,0.003764974846363475
1761466980986419700,9.255419677734375,-0.007556114467978477,-0.0017826821656897662,0.002494924371561501
1761466980996373800,9.265373779296874,-0.004713584518432617,0.013800141690392046,-0.008674627928290282
1761466981006327600,9.27532763671875,-0.0038163434177637097,-0.004718004965223371,0.005202452597476076
1761466981016281600,9.285281494140625,-0.013094459372758865,0.011599124514777213,0.001369799791722471
1761466981026236000,9.29523583984375,-0.017434534403681753,-0.0016923370011150836,0.007892889837161056
1761466981036189700,9.305189697265625,-0.0066594578891992565,-0.002324168631248176,-0.004052083835820668
1761466981046142700,9.315142822265624,0.0020189386069774627,0.00591627483908087,-0.011286691856518155
1761466981056096800,9.3250966796875,0.0011216975063085555,0.004858765142783522,0.009260484400182031
1761466981066050800,9.33505078125,0.005610241097211838,0.0032219577211886645,0.009372647529275855
1761466981076004900,9.3450048828125,-0.02177402491271496,0.007146382889617234,-0.003394800958133419
1761466981085958700,9.354958740234375,0.01099544126689434,0.010057758557982742,-0.0010064973179236404
1761466981095912700,9.36491259765625,-0.0029220249265432354,0.01144512126315385,0.005263024249117006
1761466981105865700,9.37486572265625,-0.0035217443853616712,0.003721596072707325,0.00479934769354586
1761466981115819800,9.38481982421875,-0.0042705169260501856,0.011231222784146665,-0.01682232763933716
1761466981125773600,9.394773681640626,-0.008909867164492607,-0.0034208960930816826,0.0047504379385907665
1761466981135727600,9.4047275390625,-0.011302899780869484,-0.004655424590408802,0.007450238374131731
1761466981145681700,9.414681640625,0.0017161562681198119,0.004445398568920791,-0.003340403889774461
1761466981155635700,9.4246357421875,0.006206453424692154,0.005288023405522107,0.0022744039274060924
1761466981165588700,9.434588623046874,-0.014894202271103859,-0.0006320508258417249,0.003004158814376569
1761466981175542500,9.44454248046875,-0.012948328900337218,0.008629588918387889,0.007108110405574552
1761466981185496800,9.454496826171875,-0.012050503277778625,0.01385822855317965,0.00465538691614638
1761466981195451000,9.464450927734376,-0.0003787701845169067,0.013406849790178239,0.0033982184703927483
1761466981205404700,9.47440478515625,-0.003970072674751282,0.01610092944605276,-0.00020149251563852884
1761466981215358700,9.484358642578124,-0.013247019585967064,-0.003676971479691565,0.010304346880328375
1761466981225311700,9.494311767578125,-0.013843816435337065,0.0001483224295079708,-0.00031586001720061176
1761466981235265800,9.504265869140625,0.00336450799703598,0.014658292889688163,-0.005624322138202842
1761466981245219600,9.514219482421876,-0.00950315688252449,-0.0041085312973707915,0.0023447975732124177
1761466981255173600,9.524173583984375,-0.005461188015341759,0.009428959135152399,-0.001255328400527651
1761466981265127700,9.534127685546874,-0.00037350948750972747,0.00015581161621958017,-0.0003718887806979182
1761466981275081700,9.544081787109375,-0.014290391159057616,-0.0029553061416372657,-0.006814844242911204
1761466981285034800,9.55403466796875,-0.01384323191344738,0.002359787933900952,0.008119816190277924
1761466981294988500,9.563988525390625,0.0005213935256004333,0.0019321736389771103,-0.0016639460194477578
1761466981304942600,9.573942626953125,-0.004265256229043007,0.007685330338217318,0.0029824652890878497
1761466981314897000,9.58389697265625,0.005461188015341759,0.015633019673358648,-0.002665780005752458
1761466981324850700,9.5938505859375,-0.002918517795205116,0.008140471960883588,0.007951073168893345
1761466981334804700,9.6038046875,-0.011448445731401443,0.002179937854968011,0.0020927566149090125
1761466981344757800,9.6137578125,-0.008306056052446364,0.00038706308882683515,-0.010012937602144665
1761466981354711800,9.6237119140625,-0.004264087185263633,-0.008963661444652824,-0.005692072449301485
1761466981364665900,9.633665771484376,0.008454524612426757,-0.002071819571685046,-0.0038674531213153383
1761466981374619600,9.64361962890625,-0.005609072053432464,0.013098477960750459,0.007182712295034434
1761466981384573700,9.65357373046875,-0.0015700257956981658,0.006551814529951661,-0.0010245628402823059
1761466981394527700,9.66352783203125,-0.002171498820185661,0.009838051392696797,0.00571098492903693
1761466981404480800,9.673480712890624,-0.019979542711377144,0.0012189838683232665,-0.0028341068977839313
1761466981414434600,9.6834345703125,0.0021662381231784818,0.00947709085950628,-0.004098207122411986
1761466981424388600,9.693388671875,0.002167407166957855,-0.0019507139426656066,0.007727829760339227
1761466981434342700,9.7033427734375,-0.007708090159296989,0.00609159487336874,0.009384096509296795
1761466981444296700,9.713296630859375,-0.003966565543413162,0.007580463457945734,0.011978449538431595
1761466981454249700,9.723249755859374,-0.0062087915122509,0.005379154021386057,0.0034116521990566976
1761466981464203500,9.73320361328125,0.002172667863965034,0.007378218884114176,0.0038660386240080696
1761466981474157800,9.74315771484375,0.003970072674751282,0.01554101227466017,-0.004177498601310071
1761466981484112000,9.75311181640625,-0.00874853912293911,0.010105287494137883,0.0030632203559987827
