time,seconds_elapsed,z,y,x
1761466971746758100,0.015758056640625,-0.00028104911325499415,-0.0001513772876933217,0.0005425482522696257
1761466971756712400,0.02571240234375,0.000597356993239373,0.0009826722089201212,-0.00025578984059393406
1761466971766666500,0.03566650390625,0.0010325175244361162,-0.0005110948695801198,-0.0012430234346538782
1761466971776619500,0.04561962890625,-0.0005147746996954083,0.0007259802659973502,0.0002496996894478798
1761466971786573300,0.0555732421875,-0.0009616531315259635,0.00012410589260980487,0.0006401191931217909
1761466971796527400,0.06552734375,0.00015556940343230963,0.00017998419934883714,0.0010830011451616883
1761466971806481400,0.0754814453125,0.0005752835422754288,0.0005014277412556112,-0.0003114298451691866
1761466971816435500,0.085435546875,-0.001268069725483656,-0.000983809120953083,0.0003258427605032921
1761466971826389200,0.09538916015625,0.0009026727639138699,0.0004431125125847757,-0.0006768375169485807
1761466971836343300,0.10534326171875,0.000778509653173387,0.000510136247612536,-0.0014081655535846949
1761466971846297300,0.11529736328125,0.0007199200335890055,0.000486167729832232,-0.0002946981694549322
1761466971856250400,0.12525048828125,-0.00044752846588380635,-0.0010996111668646336,-0.0013636928051710129
1761466971866204200,0.1352041015625,-0.0008976026438176632,-0.00012542676995508373,0.001582029857672751
1761466971876158200,0.145158203125,-0.00028015245334245265,0.0009000654681585729,0.0012821261771023273
1761466971886112500,0.155112548828125,0.000714005553163588,-0.0005795868346467614,-0.00004785647615790367
1761466971896066300,0.16506640625,-0.00004130718298256397,0.000440339557826519,0.0009494643891230226
1761466971906020400,0.175020263671875,0.00007054558955132961,0.0003292857436463237,-0.0004015571903437376
1761466971915974400,0.184974365234375,0.00019330537179484963,-0.00013600732199847698,0.0005060173571109772
1761466971925928400,0.194928466796875,-0.0017294968711212277,-0.0017176587134599686,0.00016246968880295753
1761466971935881500,0.204881591796875,0.0004731512162834406,-0.0011980918934568763,-0.00008967355825006962
1761466971945835300,0.214835205078125,-0.0005082236602902412,-0.0007054070592857897,0.00011485721915960312
1761466971955789300,0.224789306640625,0.0006656901095993817,-0.00002963919541798532,0.0012221670476719737
1761466971965743400,0.234743408203125,-0.0010688267648220062,-0.0002741173666436225,0.00006928457878530025
1761466971975697200,0.244697265625,-0.00046746793668717146,0.000635467586107552,0.00021253409795463085
1761466971985651200,0.254651123046875,-0.0010304602328687906,-0.00043006311170756817,-0.0008487354498356581
1761466971995605200,0.264605224609375,0.0016193394549190998,-0.0009236906189471483,0.00016850978136062622
1761466972005559600,0.2745595703125,0.00016418821178376675,-0.0004951879964210093,0.0003440121654421091
1761466972015512300,0.28451220703125,-0.00038205692544579506,-0.000043785024899989367,0.00020443042740225792
1761466972025466400,0.29446630859375,0.00046376301907002926,-0.0001953188912011683,-0.0007335348054766655
1761466972035420400,0.30442041015625,0.0002829094883054495,0.0009908485226333141,-0.0007163668051362038
1761466972045374500,0.31437451171875,0.0004895708407275379,0.0007287933840416372,0.0003150755073875189
1761466972055328300,0.324328369140625,-0.0003675530315376818,0.00040964497020468116,-0.0005813429597765207
1761466972065282300,0.3342822265625,0.001092924503609538,-0.00012804722064174712,0.00025142752565443516
1761466972075236400,0.344236328125,-0.001469944603741169,0.000025394198019057512,0.0011505080619826913
1761466972085190400,0.3541904296875,0.0005189041839912534,-0.0009091090178117156,-0.0005379361100494862
1761466972095144200,0.364144287109375,-0.00017013930482789874,-0.001011513639241457,0.0008785451063886285
1761466972105097200,0.37409716796875,-0.0006087619112804532,-0.0008024554699659348,-0.0003680805675685406
1761466972115051300,0.38405126953125,-0.0009799154940992594,-0.00039238063618540764,0.00008078105747699738
1761466972125005300,0.39400537109375,-0.0006108013913035393,-0.000967889791354537,0.0006421753205358982
1761466972134959000,0.403958984375,0.0018138275481760502,0.0009904063772410154,0.00007471279241144657
1761466972144913400,0.413913330078125,0.00037279119715094566,-0.0005150786018930376,-0.00021370756439864635
1761466972154867500,0.423867431640625,-0.000703109020832926,-0.0002238148299511522,-0.0005322606302797794
1761466972164821500,0.433821533203125,-0.00013159465743228793,-0.0006126363296061754,0.0006512482650578022
1761466972174775300,0.443775390625,-0.0003151883138343692,0.0009545101202093065,0.000026629772037267685
1761466972184728300,0.453728271484375,-0.0011628724168986082,-0.0005120927235111594,-0.0007459532935172319
1761466972194682400,0.463682373046875,0.001044152770191431,-0.00039734653546474874,-0.00018024095334112644
1761466972204636400,0.473636474609375,0.0022148783318698406,0.001340365968644619,0.0007433432620018721
1761466972214590200,0.483590087890625,0.00003934511914849281,0.000013145268894731998,0.00039893249049782753
1761466972224544300,0.493544189453125,-0.0013987618731334805,-0.0008542462601326406,0.000400264048948884
1761466972234498300,0.503498291015625,0.0011053374037146568,-0.0011639243457466364,-0.0003087748773396015
1761466972244452400,0.513452392578125,0.0007066621328704059,0.00003769388422369957,-0.0010944074019789696
1761466972254406400,0.523406494140625,-0.0015672328881919384,0.0011838728096336126,0.00019288924522697926
1761466972264359200,0.533359130859375,-0.0010636290535330772,0.0008488470339216292,-0.0006220380309969187
1761466972274313500,0.5433134765625,0.0005164631875231862,-0.00016010121908038855,-0.00041754101403057575
1761466972284267500,0.553267578125,-0.00029580091359093785,0.0005570880603045225,0.0004027124959975481
1761466972294221300,0.56322119140625,-0.00005584093742072582,0.00014495215145871043,0.0009094728156924248
1761466972304175400,0.57317529296875,-0.0008542566210962832,0.0001366963260807097,-0.001677521737292409
1761466972314129400,0.58312939453125,0.00013595732161775231,0.0008842473616823554,-0.0005422481335699558
1761466972324083500,0.59308349609375,-0.0001553924521431327,-0.00011550329509191215,-0.0006535681895911694
1761466972334037200,0.603037353515625,-0.0006711260066367686,-0.0007198022212833166,0.0006900951266288757
1761466972343991300,0.6129912109375,0.0005611185915768147,-0.0005051514599472284,0.001360146445222199
1761466972353944300,0.6229443359375,0.0001429975382052362,-0.0002890060131903738,0.00042401254177093506
1761466972363898400,0.6328984375,-0.0017270741518586874,-0.0007822234183549881,0.0006620991043746471
1761466972373852200,0.64285205078125,-0.0010691088391467929,0.0004892566939815879,-0.0000955602154135704
1761466972383806200,0.65280615234375,0.0007362480973824859,0.0004868598480243236,-0.0010388519149273634
1761466972393760500,0.662760498046875,-0.0004106233245693147,-0.00047300124424509704,-0.0002917663659900427
1761466972403714300,0.67271435546875,0.0003699492081068456,-0.00048285492812283337,0.0013439471367746592
1761466972413668400,0.68266845703125,0.0009422461153008044,0.0009012633236125112,-0.00012170360423624516
1761466972423622400,0.692622314453125,-0.001897216308861971,-0.00083937868475914,-0.0008735139854252338
1761466972433575400,0.702575439453125,-0.000027543981559574604,-0.0013888926478102803,0.00027567031793296337
1761466972443529500,0.712529541015625,0.0008113518124446273,-0.0005209684604778886,0.00043359585106372833
1761466972453483300,0.722483154296875,0.0020565104205161333,-0.001300412812270224,-0.0002838163636624813
1761466972463437300,0.732437255859375,0.000041296472772955894,0.00005460350075736642,-0.000506190350279212
1761466972473391400,0.742391357421875,-0.00018176648882217705,-0.0002998354902956635,-0.0015087733045220375
1761466972483345200,0.75234521484375,-0.00016898332978598773,0.000622417195700109,0.0005698238965123892
1761466972493299200,0.76229931640625,0.0006949291564524174,0.0016386292409151793,0.00009211944416165352
1761466972503253200,0.772253173828125,0.00029891717713326216,0.0009286303538829088,-0.0008855268824845552
1761466972513206300,0.782206298828125,0.000602381129283458,0.0012695684563368559,-0.0008000768721103668
1761466972523160300,0.792160400390625,0.0013187713921070099,0.0003414569073356688,0.000026568304747343063
1761466972533114400,0.8021142578125,0.00042152259266003966,0.0005727941170334816,-0.00019141356460750103
1761466972543068400,0.812068359375,0.00031845824560150504,0.0007930375868454576,-0.0002382853999733925
1761466972553022500,0.8220224609375,0.000939711113460362,-0.0003108871169388294,0.0002560126595199108
1761466972562976300,0.831976318359375,0.0004446295788511634,0.0009178954060189426,-0.0005405389238148928
1761466972572930300,0.841930419921875,-0.000097850919701159,0.0010176919167861342,-0.0007868546526879072
1761466972582884400,0.85188427734375,0.0006129468092694879,-0.0002909855102188885,-0.0009897875133901834
1761466972592837400,0.86183740234375,0.0006306585273705423,0.0004584304988384247,-0.00002769683487713337
1761466972602791400,0.87179150390625,-0.0013448743848130107,0.0007188876043073833,0.0006021407898515463
1761466972612745200,0.8817451171875,-0.0017955548828467727,0.00023506610887125134,0.001051574945449829
1761466972622699300,0.89169921875,-0.0001385360665153712,0.0013389464002102613,0.0002915088552981615
1761466972632653300,0.9016533203125,-0.000029856222681701183,0.0007060789503157139,0.0001895795576274395
1761466972642607400,0.911607421875,0.0008298121392726898,0.0005665292264893651,-0.0005228158552199602
1761466972652561400,0.9215615234375,-0.00035186909371986985,0.0007888111285865307,-0.00046645617112517357
1761466972662515500,0.931515380859375,0.0012646696995943785,0.0009954724228009582,-0.0007285112515091896
1761466972672468500,0.941468505859375,-0.0007819405873306096,-0.0007756529957987368,-0.00017703580670058727
1761466972682422300,0.95142236328125,-0.0010759535944089293,0.0005902822595089674,-0.0003051338717341423
1761466972692376300,0.961376220703125,0.0016878421884030104,0.0006402822909876704,-0.0007335804402828217
1761466972702330400,0.971330322265625,0.0005024691927246749,0.00036650936817750335,-0.00010853656567633152
1761466972712284400,0.981284423828125,0.0005087057361379266,0.0018190897535532713,-0.0014192825183272362
1761466972722238200,0.99123828125,-0.000025790708605200052,0.0013570311712101102,0.00025478051975369453
1761466972732192300,1.001192138671875,0.0005130645586177707,-0.004932234529405832,0.002076925942674279
1761466972742145300,1.011145263671875,0.0006539457244798541,-0.001426449278369546,-0.00146055081859231
1761466972752099300,1.021099365234375,0.0005048432503826916,0.0023828246630728245,0.0009834951488301158
1761466972762053400,1.031053466796875,-0.0009566994849592447,-0.0032545547001063824,-0.0010516925249248743
1761466972772007200,1.041007080078125,0.0008754843147471547,-0.0028676497749984264,0.0003668833523988724
1761466972781961500,1.05096142578125,0.0006331367185339332,0.00014571694191545248,-0.00030290172435343266
1761466972791915500,1.06091552734375,0.0002488063764758408,-0.0012647409457713366,-0.0006913873367011547
1761466972801869300,1.070869384765625,-0.001651359023526311,-0.002212027320638299,0.0012540518073365092
1761466972811823400,1.0808232421875,0.00039368815487250686,0.0007913091103546321,-0.0005262782797217369
1761466972821776400,1.0907763671875,-0.0001115135382860899,-0.0008875476196408272,0.001291595515795052
1761466972831730400,1.10073046875,0.002317702630534768,-0.00002753821900114417,0.0009413460502400994
1761466972841684200,1.110684326171875,-0.0007436010055243969,0.0004153454792685807,-0.0012019658461213112
1761466972851638300,1.12063818359375,0.00006850407226011157,-0.0006195130990818143,-0.0008835545741021633
1761466972861592300,1.13059228515625,-0.0007179274107329547,0.0013520249631255865,0.0002102055586874485
1761466972871546400,1.14054638671875,0.000051878567319363356,-0.0003294799826107919,-0.00003227405250072479
1761466972881500200,1.150500244140625,-0.000047457346227020025,-0.0009286912390962243,-0.0001523825339972973
1761466972891454200,1.1604541015625,-0.0012574202846735716,-0.0013599449303001165,-0.0007694282103329897
1761466972901406700,1.17040673828125,-0.0007162659894675016,0.00013808324001729488,-0.000544124748557806
1761466972911360800,1.18036083984375,0.0002066981396637857,-0.0017541388515383005,-0.0007642810232937336
1761466972921314800,1.190314697265625,0.00011641695164144039,-0.00024838748504407704,0.0020762465428560972
1761466972931268900,1.200268798828125,0.0005544473533518612,0.0001615852816030383,-0.0005195667035877705
1761466972941223000,1.210222900390625,0.001324633602052927,0.00038928556023165584,-0.00039546331390738487
1761466972951177000,1.220177001953125,-0.00018964341143146157,-0.0006838056724518538,-0.0007930065039545298
1761466972961130800,1.230130859375,-0.00019337184494361281,-0.0008491879561915994,0.0006328499875962734
1761466972971083800,1.240083740234375,0.0006000428693369031,-0.0009625541279092431,0.0005064052529633045
1761466972981037800,1.250037841796875,0.0007294724928215146,-0.00024296797346323729,0.0005873653572052717
1761466972990992000,1.259991943359375,-0.00006888230564072728,-0.002000534674152732,-0.0007357369177043438
1761466973000946000,1.26994580078125,-0.0005628986982628703,-0.0006572362035512924,0.0009553703712299466
1761466973010899700,1.279899658203125,0.00024915364338085055,-0.0005774110904894769,0.00039285747334361076
1761466973020853800,1.289853759765625,-0.00003287510480731726,-0.0003899245639331639,-0.0007363227196037769
1761466973030807800,1.299807861328125,-0.0000381275312975049,0.0006218755734153092,-0.0006900457665324211
1761466973040761900,1.309761962890625,-0.00018699822248890996,-0.00019331806106492877,-0.002144131576642394
1761466973050714600,1.319714599609375,0.00006685475818812847,-0.0013261407148092985,-0.0006925160996615887
1761466973060669000,1.3296689453125,0.00048230786342173815,0.00037695077480748296,0.0006166938692331314
1761466973070623000,1.339623046875,0.0002200102317146957,0.00010827160440385342,-0.00026255869306623936
1761466973080577000,1.349576904296875,-0.0015645739622414112,-0.0008752337889745831,-0.000523814931511879
1761466973090530800,1.35953076171875,-0.0005268603563308716,-0.0014845479745417833,0.0004911108408123255
1761466973100484900,1.36948486328125,-0.000450960302259773,-0.00014710842515341938,-0.0010436689481139183
1761466973110439000,1.37943896484375,0.0006623176741413772,-0.0021100344602018595,0.000012310454621911049
1761466973120392000,1.389391845703125,-0.0006407670443877578,0.0006830889615230262,-0.00009181909263134003
1761466973130345700,1.399345703125,-0.00042202742770314217,-0.00006803619908168912,-0.0007752259261906147
1761466973140299800,1.4092998046875,0.0011532322969287634,-0.0006246368866413832,-0.0006306162104010582
1761466973150253800,1.41925390625,-0.00045814772602170706,0.00012577848974615335,0.0013769731158390641
1761466973160208000,1.429207763671875,-0.0006980985053814948,0.0002323049120604992,0.00019825808703899384
1761466973170161700,1.43916162109375,-0.0013425129000097513,-0.0008503429125994444,-0.0003479707520455122
1761466973180116000,1.449115966796875,0.001175505924038589,0.0011174667160958052,-0.0009519755840301514
1761466973190068700,1.45906884765625,-0.00014069792814552784,-0.0005860512028448284,-0.0010665669105947018
1761466973200023000,1.46902294921875,0.0003019194700755179,0.0000046379282139241695,0.000014143995940685272
1761466973209976800,1.478976806640625,-0.000053106341511011124,-0.0004132279136683792,-0.0000636582262814045
1761466973219931000,1.488930908203125,-0.0021247793920338154,-0.0006340039544738829,-0.0002575365360826254
1761466973229885000,1.498885009765625,0.0003306564758531749,0.00002719258191064,0.00011508911848068237
1761466973239838700,1.508838623046875,0.000940786674618721,0.0006146858795545995,0.0007518508937209845
1761466973249792800,1.518792724609375,0.001536776078864932,0.000045940803829580545,0.0005315903108566999
1761466973259745800,1.528745849609375,0.0004936159239150584,0.000001998618245124817,0.0006815262604504824
1761466973269699800,1.538699951171875,-0.0012903872411698103,-0.001423502340912819,0.0004312728997319937
1761466973279654000,1.54865380859375,-0.001986537594348192,0.00025109335547313094,-0.0016158991493284702
1761466973289607700,1.558607666015625,0.000637517252471298,0.0001867485698312521,-0.00030511943623423576
1761466973299561700,1.568561767578125,0.001925954595208168,-0.000726715661585331,-0.0006249649450182915
1761466973309516000,1.57851611328125,-0.0015188902616500854,-0.0005891817854717374,-0.000749863451346755
1761466973319469800,1.5884697265625,0.0016428146045655012,0.0006286818534135818,0.0008046238217502832
1761466973329424000,1.598423828125,0.00029555975925177336,-0.0001371527323499322,-0.00002985564060509205
1761466973339377000,1.608376953125,0.00001805834472179413,0.00011558126425370574,-0.00141656375490129
1761466973349331000,1.6183310546875,0.0004579023225232959,-0.00059743836754933,-0.0004511317238211632
1761466973359285000,1.628284912109375,0.0003226138069294393,0.0011021909303963184,0.00016592280007898808
1761466973369238800,1.63823876953125,-0.0008829204016365111,-0.0005776025354862213,-0.00022765016183257103
1761466973379192800,1.64819287109375,-0.00021952699171379209,0.0003534386050887406,-0.0005735948216170073
1761466973389147000,1.65814697265625,-0.00026096453075297177,-0.0024048995692282915,-0.0004962938837707043
1761466973399100700,1.6681005859375,-0.0011997288092970848,-0.00025519594782963395,0.0002928005997091532
1761466973409053700,1.6780537109375,0.0010788303334265947,-0.000007585447747260332,0.000586450332775712
1761466973419007700,1.6880078125,0.00026203878223896027,-0.0003759006503969431,-0.0006572459824383259
1761466973428961800,1.6979619140625,-0.00014262268086895347,-0.0008967638714239001,0.000988402054645121
1761466973438915800,1.707915771484375,0.00001636805245652795,0.000882760330568999,0.00019770953804254532
1761466973448870000,1.717869873046875,-0.0000034013064578175545,-0.002008875599130988,-0.00007527763955295086
1761466973458824000,1.727823974609375,-0.0002476131485309452,-0.0003318830858916044,0.00009436579421162605
1761466973468778000,1.737778076171875,-0.00044012253056280315,-0.00016460774349980056,0.0010139724472537637
1761466973478731000,1.74773095703125,0.0009436560212634504,-0.00031188054708763957,-0.0013485178351402283
1761466973488684800,1.757684814453125,-0.0003620905918069184,-0.00029209867352619767,-0.0012618466280400753
1761466973498638800,1.767638916015625,-0.0017306890804320574,-0.00022205756977200508,0.00031634257175028324
1761466973508593000,1.777593017578125,-0.00013793728430755436,-0.001745827030390501,-0.0001032461877912283
1761466973518547000,1.787546875,-0.0014870946761220694,-0.0007292984519153833,0.0020110374316573143
1761466973528500700,1.797500732421875,0.0010039543267339468,-0.0012651392025873065,-0.00002794829197227955
1761466973538454800,1.807454833984375,-0.0013880969490855932,0.00024940050207078457,0.0010730023495852947
1761466973548407800,1.81740771484375,-0.0007466957904398441,0.000037389283534139395,0.00021209917031228542
1761466973558361900,1.82736181640625,-0.001201830105856061,0.0007109027355909348,0.00036523095332086086
1761466973568315600,1.837315673828125,-0.0003527830704115331,0.0006757609080523252,-0.0007121607195585966
1761466973578269700,1.847269775390625,-0.00012641437933780253,-0.00032851716969162226,0.00004843808710575104
1761466973588224000,1.85722412109375,-0.0005626647034659982,0.0004967077984474599,-0.0003202499356120825
1761466973598177800,1.867177734375,-0.00010033996659331024,0.0008623597677797079,-0.00015353597700595856
1761466973608131800,1.8771318359375,0.0013240939006209373,-0.0008561868453398347,0.0004637411329895258
1761466973618084900,1.8870849609375,-0.0010304069146513939,-0.0010820229072123766,-0.00020471238531172276
1761466973628039000,1.897038818359375,-0.00019693109788931906,0.0006323100533336401,0.0008663830813020468
1761466973637993000,1.906992919921875,0.0014180097496137023,0.0006104721687734127,0.0010466790990903974
1761466973647946800,1.91694677734375,0.0017831510631367564,-0.00022933835862204432,-0.0008478492964059114
1761466973657900800,1.92690087890625,-0.00038119987584650517,0.00008917570812627673,0.001462443033233285
1761466973667854800,1.936854736328125,0.00007660052506253123,0.001051604631356895,-0.00021952856332063675
1761466973677808600,1.94680859375,0.0008435908821411431,-0.0011798579944297671,0.0019525456009432673
1761466973687761700,1.95676171875,0.0012940787710249424,0.0010408575180917978,0.00019100774079561234
1761466973697715700,1.9667158203125,-0.0007251298520714045,0.0003572240239009261,0.00017289817333221436
1761466973707669800,1.976669677734375,0.00005109235644340515,0.0007293137023225427,0.0002451818436384201
1761466973717624000,1.9866240234375,0.0008761396165937185,-0.00017909059533849359,0.0007101697847247124
1761466973727577900,1.996577880859375,0.000008164090104401112,0.00044908677227795124,-0.0008569492492824793
1761466973737532000,2.006531982421875,-0.0006424461607821286,0.0008059503161348403,0.0003795563243329525
1761466973747486000,2.01648583984375,0.0006595409940928221,-0.00010085717076435685,-0.00008945353329181671
1761466973757439000,2.02643896484375,-0.000006781949196010828,-0.00011656983406282961,0.0001824554055929184
1761466973767392800,2.036392822265625,-0.0009025270119309425,0.0016337399138137698,0.0004436350427567959
1761466973777346800,2.046346923828125,0.0011595585383474827,0.0009658191120252013,0.0008612186647951603
1761466973787300900,2.05630078125,0.0003707193536683917,-0.0009339320822618902,-0.0022307559847831726
1761466973797255000,2.0662548828125,0.0008277178276330233,0.0013587833382189274,-0.0012017106637358665
1761466973807208700,2.076208740234375,-0.0003774632350541651,0.000029996444936841726,-0.0019062366336584091
1761466973817162800,2.086162841796875,0.002750153187662363,0.0002651535323821008,0.0008442760445177555
1761466973827115800,2.09611572265625,0.0012741251848638058,-0.00023462514218408614,0.00024077529087662697
1761466973837069800,2.10606982421875,0.00029914191691204906,0.0004956136690452695,0.0003582206554710865
1761466973847023600,2.116023681640625,-0.0008222050382755697,0.0015244574751704931,-0.001264828024432063
1761466973856978000,2.12597802734375,-0.00047812465345487,0.0010054073063656688,-0.0006389850750565529
1761466973866932000,2.135931884765625,-0.00023299347958527505,0.00022623510449193418,0.00016515329480171204
1761466973876886000,2.145885986328125,-0.0018833543872460723,-0.00016338536806870252,-0.000464950455352664
1761466973886839800,2.15583984375,0.0014939301181584597,-0.0007960613584145904,-0.0008598656859248877
1761466973896792800,2.165792724609375,-0.0015559219755232334,-0.0006575769511982799,0.00012656929902732372
1761466973906747600,2.17574755859375,0.00005452544428408146,-0.001155989128164947,0.0006845996249467134
1761466973916701400,2.185701416015625,0.0003615879686549306,-0.0006720927776768804,0.0013027193490415812
1761466973926655500,2.195655517578125,0.0002742678625509143,-0.0004811026738025248,-0.00002760114148259163
1761466973936609500,2.205609619140625,0.0014258186565712094,-0.0007274451199918985,0.0004001026973128319
1761466973946563600,2.2155634765625,0.0009636913891881704,0.000001946900738403201,-0.0006312287878245115
1761466973956517400,2.225517333984375,-0.0006033125682733953,0.0008664089255034924,-0.00022296630777418613
1761466973966470400,2.235470458984375,0.0009026835905387998,-0.00048061751294881105,0.0002500934060662985
1761466973976424400,2.245424560546875,0.000992432120256126,-0.00008380651706829667,-0.0005824107211083174
1761466973986378500,2.25537841796875,0.0004945534165017307,0.00001827289815992117,0.00031614024192094803
1761466973996332300,2.265332275390625,0.0004482144140638411,-0.00009917252464219928,-0.0002101005520671606
1761466974006286600,2.27528662109375,-0.000506856304127723,-0.0012659672647714615,0.0007882372010499239
1761466974016240600,2.28524072265625,-0.0000679673976264894,-0.0005453158519230783,0.0003043408505618572
1761466974026194700,2.295194580078125,-0.001229213085025549,-0.0008320609922520816,0.0005321069620549679
1761466974036147700,2.305147705078125,-0.0002707414678297937,0.0006182965007610619,0.00027910666540265083
1761466974046101500,2.3151015625,-0.0008258874295279384,0.0002918815007433295,0.0012423532316461205
1761466974056055600,2.3250556640625,-0.00099739502184093,-0.000554471043869853,-0.000425584614276886
1761466974066009600,2.335009521484375,-0.0010679721599444747,0.0007310973014682531,0.0008101549465209246
1761466974075963400,2.34496337890625,-0.0006927328067831695,0.0005942108109593391,0.0005105494055896997
1761466974085917400,2.35491748046875,-0.002080025617033243,-0.0009972283151000738,-0.00043709250167012215
1761466974095871500,2.36487158203125,-0.0003199424536433071,-0.0006361037376336753,0.0001085891854017973
1761466974105824500,2.374824462890625,0.00034543819492682815,-0.0005798235069960356,-0.0013934460002928972
1761466974115778600,2.384778564453125,0.0003246655687689781,0.0006644052919000387,-0.0006775881629437208
1761466974125732400,2.394732421875,0.0008611679077148438,0.0006089743110351264,0.0010506634134799242
1761466974135686400,2.404686279296875,0.0002046987065114081,0.000524552131537348,0.0005443964619189501
1761466974145640700,2.414640625,-0.0005684823263436556,-0.0014245409984141588,0.0006144435610622168
1761466974155594500,2.424594482421875,0.0014709662646055222,-0.001502038910984993,0.0005726318340748549
1761466974165548500,2.434548583984375,0.0012964506167918444,-0.00020381034119054675,0.0013394972775131464
1761466974175501600,2.44450146484375,-0.00016136368503794074,0.000007644644938409328,0.0006018015556037426
1761466974185455600,2.45445556640625,0.0001754030236043036,-0.0007644493016414344,0.00041959923692047596
1761466974195409700,2.46440966796875,0.00004916917532682419,-0.00015618331963196397,0.00121082435362041
1761466974205363500,2.474363525390625,0.0013159754453226924,-0.0002569163334555924,-0.0002050942275673151
1761466974215317500,2.4843173828125,-0.00002519256668165326,0.0004040802305098623,-0.0008549056947231293
1761466974225271600,2.494271484375,-0.00016116100596264005,0.0005257218726910651,-0.0006370898336172104
1761466974235225300,2.504225341796875,0.002100661862641573,0.0002146646729670465,0.0018042298033833504
1761466974245178400,2.514178466796875,0.0011419467628002167,0.0006796287489123642,-0.0003171090502291918
1761466974255132400,2.52413232421875,-0.0017076355870813131,0.0005169095238670707,0.0004900950007140636
1761466974265086500,2.53408642578125,-0.0008745987433940172,0.00035406940151005983,0.0003153933212161064
1761466974275040500,2.54404052734375,-0.000198688474483788,-0.0009804406436160207,0.0004767810460180044
1761466974284994600,2.55399462890625,0.001228785840794444,0.0005747717223130167,0.0013587293215095997
1761466974294948600,2.563948486328125,-0.0012096044374629855,0.001932184910401702,0.0014932190533727407
1761466974304902700,2.573902587890625,0.0003308642189949751,-0.00003126906813122332,-0.00016584270633757114
1761466974314855700,2.583855712890625,0.0010808103252202272,-0.001118371495977044,0.0006890320219099522
1761466974324809500,2.5938095703125,-0.0006135336006991565,0.0006163935759104788,-0.0007761430460959673
1761466974334763500,2.603763427734375,-0.0019373910035938025,-0.000662190024740994,0.0013416025321930647
1761466974344717600,2.613717529296875,0.000826065253932029,0.0006019428838044405,-0.0005134770181030035
1761466974354671400,2.62367138671875,0.0003229941357858479,0.00044321842142380774,-0.00027698837220668793
1761466974364625400,2.63362548828125,0.0005676789442077279,-0.0004939942737109959,-0.0005647630896419287
1761466974374579500,2.643579345703125,-0.00009518186561763287,0.001897257985547185,0.0013596370117738843
1761466974384532500,2.653532470703125,-0.0015259169740602374,0.0012326580472290516,-0.0007340577431023121
1761466974394486500,2.663486572265625,-0.001569326501339674,0.0015692815650254488,0.00017993920482695103
1761466974404440300,2.6734404296875,-0.0006375134689733386,-0.0011829799041152,0.001193328178487718
1761466974414394600,2.68339453125,0.00037262350087985396,0.0013922969810664654,0.00013232487253844738
1761466974424348700,2.6933486328125,-0.0012773075141012669,-0.0012354361824691296,-0.00021297368220984936
1761466974434302500,2.703302490234375,0.0002103343140333891,0.00036592251854017377,0.0008405728731304407
1761466974444256500,2.713256591796875,0.0010735529940575361,-0.00018206896493211389,-0.0005968906916677952
1761466974454209500,2.72320947265625,0.0004860596964135766,0.0012302054092288017,-0.0002187218051403761
1761466974464163600,2.73316357421875,-0.0007382654584944248,0.00044999606325291097,-0.0013255304656922817
1761466974474117600,2.74311767578125,0.00021061883307993412,-0.0017335296142846346,0.0000012563541531562805
1761466974484071400,2.753071533203125,-0.0004889706615358591,0.000277467246633023,0.00029021291993558407
1761466974494025500,2.763025390625,0.0013491432182490826,0.00033259467454627156,0.0007898218464106321
1761466974503979500,2.7729794921875,-0.0006172540015541017,0.0006607723771594465,0.0014196316478773952
1761466974513933300,2.782933349609375,-0.0015261908993124962,0.0005358701455406845,0.0009634321322664618
1761466974523886300,2.79288623046875,0.00008096854435279965,-0.0006047402275726199,0.0016601161332800984
1761466974533840400,2.80284033203125,-0.0009153200080618262,-0.00015173654537647963,-0.000056823715567588806
1761466974543794400,2.81279443359375,0.0003392535145394504,0.0011759186163544655,0.0006695883348584175
1761466974553748500,2.82274853515625,-0.0004900548374280334,0.0002797648194245994,0.0004669218324124813
1761466974563702500,2.83270263671875,-0.0006652808515354991,0.00034218659857288003,0.001139639993198216
1761466974573656600,2.842656494140625,0.001242075115442276,-0.00020376141765154898,0.00006878282874822617
1761466974583610600,2.852610595703125,-0.0010308986529707909,0.0006467481143772602,-0.000005379552021622658
1761466974593563600,2.862563720703125,-0.0008106552995741367,-0.0013735259417444468,-0.00016703340224921703
1761466974603517400,2.872517333984375,-0.0006171312998048961,-0.0006691869348287582,0.000277362996712327
1761466974613471500,2.882471435546875,-0.0002432235050946474,-0.00034002019674517214,0.0002600525040179491
1761466974623425500,2.892425537109375,0.001148211769759655,-0.0019010503310710192,0.00004420406185090542
1761466974633379600,2.902379638671875,0.0014475510688498616,0.0014550653286278248,0.0000018598511815071106
1761466974643333400,2.91233349609375,0.0009296197677031159,-0.000022229331079870462,0.0002907488960772753
1761466974653287400,2.922287353515625,0.0004041780484840274,-0.00033648236421868205,0.0006340302061289549
1761466974663240400,2.932240478515625,-0.000694813730660826,0.00001240381971001625,-0.0003234508913010359
1761466974673194500,2.942194580078125,0.00027244637021794915,0.002228952944278717,-0.0001607316080480814
1761466974683148300,2.952148193359375,-0.000618507619947195,0.0017426041886210442,-0.00015187147073447704
1761466974693102600,2.9621025390625,0.00043850101064890623,-0.0007019113982096314,0.00017942581325769424
1761466974703056600,2.972056640625,-0.0004976917407475412,0.0007338466821238399,-0.0015279802028089762
1761466974713010400,2.982010498046875,-0.0001445565721951425,0.0004464915837161243,-0.00009413412772119045
1761466974722963500,2.99196337890625,-0.0004257812979631126,0.0002987954649142921,-0.0002784866373986006
1761466974732917500,3.00191748046875,-0.0019389893859624863,0.0009267688146792352,0.0008200672455132008
1761466974742871600,3.01187158203125,-0.00043235466000624,0.00024431769270449877,-0.00027845054864883423
1761466974752825600,3.02182568359375,0.0003442231100052595,0.00013353023678064346,0.00012182258069515228
1761466974762779400,3.031779296875,-0.00016218647942878306,-0.000051784649258479476,-0.0012383221182972193
1761466974772733400,3.0417333984375,-0.0009563411585986614,-0.0001527184504084289,-0.0005347148980945349
1761466974782687500,3.0516875,-0.00004860025364905596,-0.0005880335229448974,-0.0001583518460392952
1761466974792640500,3.061640625,0.0018768651643767953,-0.0010018887696787715,-0.0010603645350784063
1761466974802594300,3.07159423828125,0.0005728152464143932,0.0002775458851829171,-0.0013648918829858303
1761466974812548400,3.08154833984375,0.0010178294032812119,0.0004730219370685518,-0.0001901716459542513
1761466974822502700,3.091502685546875,-0.00017874740296974778,-0.00003522116458043456,-0.00006046099588274956
1761466974832456700,3.101456787109375,-0.00045837933430448174,0.00042577204294502735,0.00003994000144302845
1761466974842410500,3.111410400390625,0.0003955765860155225,-0.0009936073329299688,-0.000703462865203619
1761466974852364500,3.121364501953125,-0.00026302310288883746,0.0016818043077364564,0.0008779221680015326
1761466974862317600,3.131317626953125,0.0007224580040201545,-0.00045511338976211846,-0.0004684722516685724
1761466974872271600,3.141271728515625,-0.002097030635923147,-0.0008796212496235967,0.0001097000204026699
1761466974882225400,3.151225341796875,-0.0005189534276723862,-0.0006903206231072545,0.0008602100424468517
1761466974892179500,3.161179443359375,0.0005460446700453758,0.0012127743102610111,0.0010463650105521083
1761466974902133000,3.171133056640625,-0.0009633047156967223,0.0002210614620707929,-0.00027904240414500237
1761466974912087000,3.181087158203125,0.0004465727834030986,0.0008567580371163785,-0.0009192661382257938
1761466974922040800,3.191040771484375,0.00010787579230964184,-0.0007670263876207173,0.0002020618412643671
1761466974931993900,3.200993896484375,0.0017800747882574797,-0.0013513239100575447,0.0006294990889728069
1761466974941948000,3.210947998046875,0.00008037540828809142,0.000029007380362600088,-0.0026392836589366198
1761466974951902000,3.22090185546875,0.0003679968067444861,-0.001080998219549656,0.0005346718244254589
1761466974961856000,3.23085595703125,-0.0012212670408189297,0.000648604123853147,0.00006261863745748997
1761466974971809800,3.240809814453125,-0.0009046171326190233,0.0007537989877164364,0.0002687473315745592
1761466974981763800,3.250763916015625,0.000035353703424334526,0.0003664680989459157,0.0007837938610464334
1761466974991718000,3.2607177734375,-0.0002994056267198175,0.00027405639411881566,0.0002314543817192316
1761466975001671000,3.2706708984375,0.002069008070975542,0.000330585811752826,-0.0001446485985070467
1761466975011624700,3.280624755859375,0.0005134557140991092,-0.0010670410702005029,-0.0011499919928610325
1761466975021578800,3.290578857421875,-0.0011632805690169334,-0.0002874586789403111,-0.0005461436230689287
1761466975031532800,3.30053271484375,0.00020558421965688467,0.00016421341570094228,-0.0012404294684529305
1761466975041487000,3.310487060546875,-0.0005033938796259463,-0.00031832262175157666,-0.00018106400966644287
1761466975051441000,3.32044091796875,-0.0004911433206871152,-0.00017531088087707758,-0.0009094385895878077
1761466975061395000,3.33039501953125,0.00034022307954728603,-0.00004072347655892372,-0.00015467521734535694
1761466975071348000,3.340347900390625,0.0012102777836844325,-0.0007294169045053422,-0.0003826417960226536
1761466975081302000,3.350302001953125,-0.0007992145256139338,0.00015614001313224435,0.0009135970612987876
1761466975091255800,3.360255859375,-0.0008902946719899774,-0.00030884789885021746,0.00023129512555897236
1761466975101209900,3.3702099609375,-0.00027013919316232204,-0.00006496126297861338,0.0010853648418560624
1761466975111164000,3.380163818359375,0.00011495390208438039,0.0013915214221924543,0.0018606109078973532
1761466975121118000,3.390117919921875,0.0008979965350590646,0.0006107469671405852,0.0004085015971213579
1761466975131071000,3.400071044921875,-0.0011758069740608335,0.0006943703046999872,0.0007227547466754913
1761466975141024800,3.410024658203125,0.0004455493181012571,-0.00030651240376755595,-0.00048255035653710365
1761466975150978800,3.419978759765625,-0.0009781765984371305,-0.00004791945684701204,0.0009680733783170581
1761466975160932900,3.429932861328125,-0.00148874893784523,0.0008672315161675215,-0.0005418756045401096
1761466975170887000,3.439886962890625,0.0014641640009358525,-0.0010742128361016512,-0.0008119202684611082
1761466975180841000,3.449841064453125,0.0014318260364234447,-0.000262613088125363,-0.0004944093525409698
1761466975190795000,3.459794921875,-0.0005988344200886786,-0.0007046977989375591,-0.0014776482712477446
1761466975200748000,3.469748046875,0.0006518885493278503,-0.0008468014420941472,0.00007406785152852535
1761466975210701800,3.479701904296875,0.0013568273279815912,0.0005955665837973356,-0.0008082373533397913
1761466975220655900,3.48965576171875,-0.00013075125752948225,0.00011790974531322718,0.0006928632501512766
1761466975230610000,3.49960986328125,-0.0008897521765902638,0.0016875769942998886,0.00007634144276380539
1761466975240564000,3.50956396484375,-0.0007624316494911909,-0.0009636095492169261,0.001023444114252925
1761466975250517800,3.519517822265625,0.0010099021019414067,-0.002274950034916401,-0.00012517720460891724
1761466975260471800,3.529471923828125,-0.0006484104669652879,0.0003792394418269396,-0.0006361333653330803
1761466975270424800,3.5394248046875,-0.0008156569674611092,0.001954232808202505,-0.0012081803288310766
1761466975280379000,3.54937890625,0.0003526763175614178,-0.0008982046856544912,-0.0010969294235110283
1761466975290332700,3.559332763671875,0.0006008829222992063,-0.0018849058542400599,0.0010056364117190242
1761466975300286700,3.56928662109375,0.00014297501184046268,-0.0005990155041217804,0.000866955379024148
1761466975310241000,3.579240966796875,-0.0005688879755325615,0.00035892357118427753,-0.00032614078372716904
1761466975320195000,3.589195068359375,-0.000994998263195157,-0.002429679501801729,-0.0007080147042870522
1761466975330148900,3.59914892578125,-0.0009265551343560219,0.00027263001538813114,-0.0003037468995898962
1761466975340102000,3.609101806640625,-0.0003400525311008096,0.0001539973891340196,-0.0008959292899817228
1761466975350056000,3.619055908203125,0.0010706238681450486,0.00043522712076082826,-0.001621374161913991
1761466975360010000,3.629010009765625,-0.00005109613994136453,0.000561255554202944,0.0004697316326200962
1761466975369963800,3.6389638671875,0.00033319799695163965,0.0005431461031548679,-0.0004661031998693943
1761466975379917800,3.648917724609375,-0.0004626832087524235,0.0012342826230451465,0.0009004274616017938
1761466975389871900,3.658871826171875,-0.0000419037532992661,0.0006617029430344701,-0.0006330206524580717
1761466975399825000,3.668824951171875,0.001252558664418757,-0.0009267323766835034,-0.00052854442037642
1761466975409779000,3.678779052734375,0.0001846311497502029,0.0006490600644610822,0.00040702405385673046
1761466975419732700,3.688732666015625,0.001299707219004631,-0.0005102299037389457,-0.00026779575273394585
1761466975429686800,3.698686767578125,-0.00020737556042149663,-0.0001477736805099994,0.0010909490520134568
1761466975439640800,3.708640869140625,-0.00011621997691690922,0.00033495400566607714,-0.00013701594434678555
1761466975449595000,3.718594970703125,-0.0013109140563756227,-0.0008698600577190518,-0.0003838909324258566
1761466975459549000,3.728548828125,-0.0001379787572659552,-0.0008991064969450235,-0.000706853112205863
1761466975469502000,3.738501953125,0.0003650923608802259,-0.0005691408296115696,0.00020767631940543652
1761466975479456000,3.7484560546875,-0.00021420171833597124,0.00034446787321940064,0.000879096332937479
1761466975489410000,3.75841015625,-0.0006629443378187716,-0.00177887047175318,0.0012495421105995774
1761466975499363800,3.76836376953125,-0.0010205346625298262,0.00034218188375234604,-0.0006154309958219528
1761466975509318000,3.77831787109375,-0.0017212124075740576,0.0003163492074236274,0.0006796643137931824
1761466975519272000,3.78827197265625,-0.0005900965188629925,-0.0005325792008079588,-0.00013727694749832153
1761466975529225700,3.798225830078125,0.0007529355934821069,0.00006556679727509618,0.00029202457517385483
1761466975539178800,3.8081787109375,-0.0012564498465508223,-0.0008509588078595698,0.0001447026152163744
1761466975549132800,3.8181328125,0.0006783365970477462,-0.0016128892311826348,-0.0003423895686864853
1761466975559086800,3.8280869140625,0.0016572321765124798,0.000591472489759326,0.00044506252743303776
1761466975569041000,3.838041015625,0.0004116718773730099,-0.00003996305167675018,0.0005276205483824015
1761466975578995000,3.847994873046875,0.0009113085689023137,-0.000583470391575247,-0.0006554021965712309
1761466975588949000,3.857948974609375,0.0012053216341882944,0.0007278700941242278,-0.0004964114632457495
1761466975598903000,3.867903076171875,-0.000379272794816643,0.001036530826240778,0.000008060131222009659
1761466975608856000,3.87785595703125,0.000043370877392590046,0.0005611565429717302,0.0000456108245998621
1761466975618809900,3.887809814453125,-0.00010268256301060319,-0.0001077494234777987,0.0007915373425930738
1761466975628764000,3.897763916015625,-0.0007623475976288319,0.0006387346074916422,-0.000710219144821167
1761466975646804700,3.9158046875,0.00021577609004452825,-0.0001123368856497109,0.0005260834004729986
1761466975656758800,3.9257587890625,0.0009501631138846278,0.0013905580854043365,0.0008861751994118094
1761466975666712800,3.935712890625,0.000015926198102533817,-0.0005799148930236697,0.0014981696149334311
1761466975676665900,3.945665771484375,-0.0005394929321482778,0.00044874835293740034,0.001426800969056785
1761466975686619600,3.95561962890625,0.0008235128480009735,0.00023196707479655743,0.000860879197716713
1761466975696574000,3.965573974609375,-0.0001178547099698335,-0.0006091154064051807,0.0007495966274291277
1761466975706528000,3.975528076171875,-0.0009815178345888853,0.0011488372692838311,0.0004681004211306572
1761466975716482000,3.98548193359375,-0.0011680698953568935,0.0009854151867330074,0.00023789121769368649
1761466975726435800,3.995435791015625,-0.0000924191263038665,0.0006341441767290235,-0.001126446295529604
1761466975736390000,4.005389892578125,-0.0006199710187502205,-0.00047160073881968856,-0.00003648409619927406
1761466975746343000,4.015343017578125,-0.0011169168865308166,0.0004868708783760667,-0.0006346299778670073
1761466975756297000,4.025296875,0.00024467112962156534,-0.0008879908127710223,0.001137533108703792
1761466975766250800,4.035250732421875,-0.000017916550859808922,0.0000310660689137876,0.00025549414567649364
1761466975776204800,4.045204833984375,-0.0000026969355531036854,-0.0010322898160666227,-0.00031822011806070805
1761466975786158800,4.055158935546875,-0.00021601613843813539,0.0005879774107597768,-0.0005448551382869482
1761466975796113000,4.06511279296875,-0.000011795258615165949,0.00022542622173205018,-0.0005729612894356251
1761466975806066000,4.07506591796875,0.000547202245797962,-0.0009133414132520556,0.0006153411231935024
1761466975816019700,4.085019775390625,0.000029553368221968412,0.0004988854634575546,-0.0011963262222707272
1761466975825974000,4.09497412109375,-0.0003534092102199793,-0.000940020487178117,-0.00016701454296708107
1761466975835928000,4.104927978515625,0.0012049491051584482,-0.0010072003351524472,0.0004017120227217674
1761466975845881900,4.1148818359375,-0.0004230412596371025,-0.00023967729066498578,0.0005228857044130564
1761466975855836000,4.1248359375,-0.0009734889608807862,0.00015156733570620418,0.0014441092498600483
1761466975865790000,4.1347900390625,0.0007650225888937712,-0.0012513858964666724,0.000878453953191638
1761466975875743000,4.144742919921875,0.002158631570637226,-0.0006795325316488743,0.0005580782890319824
1761466975885696800,4.15469677734375,0.001149826217442751,-0.00005901599070057273,-0.00022861966863274574
1761466975895650800,4.16465087890625,0.0001480540377087891,0.0009259543148800731,0.00020716828294098377
1761466975905604900,4.17460498046875,0.0012511353706941009,-0.0003065566415898502,0.0020463471300899982
1761466975915559200,4.18455908203125,-0.0007446740637533367,0.00012223160592839122,0.0003568020183593035
1761466975925513000,4.194512939453125,0.0004737221170216799,-0.0007432957063429058,0.00007424061186611652
1761466975935467000,4.204467041015625,-0.001125425798818469,-0.000527722411789,-0.0015982326585799456
1761466975945420000,4.214419921875,-0.0004753482062369585,-0.0005974972154945135,-0.0010616059880703688
1761466975955374000,4.2243740234375,0.0005701812915503979,0.0011145201278850436,0.00010439008474349976
1761466975965328000,4.234327880859375,-0.0005110620986670256,-0.00024742039386183023,-0.0013725992757827044
1761466975975282000,4.244281982421875,0.000026879366487264633,0.0010961333755403757,-0.00026377872563898563
1761466975985858000,4.254858154296875,-0.0015558372251689434,-0.0020136397797614336,0.00012184702791273594
1761466975995811800,4.264811767578125,0.00032996758818626404,0.0000807236647233367,-0.0008583632297813892
1761466976005766000,4.274765869140625,-0.0006452819798141718,-0.0014290222898125648,-0.00023118872195482254
1761466976015720000,4.284719970703125,-0.00025400053709745407,-0.0002453695051372051,0.0006591870915144682
1761466976025674000,4.294674072265625,0.0010589378653094172,0.00010510248830541968,0.0003148403484374285
1761466976035628000,4.3046279296875,0.0016001489711925387,0.0002473670174367726,0.0006088903173804283
1761466976045582000,4.31458203125,0.00013035029405727983,-0.000019215396605432034,-0.0001325337216258049
1761466976055535000,4.32453515625,0.0002887308946810663,-0.0014647641219198704,0.00032832520082592964
1761466976065489200,4.3344892578125,0.0004543794202618301,-0.0003411764919292182,0.0014055737992748618
1761466976075443000,4.34444287109375,-0.0013018189929425716,-0.0012849511113017797,0.00033101532608270645
1761466976085397000,4.35439697265625,-0.0009654617169871926,0.0011286716908216476,-0.0003387697506695986
1761466976095351000,4.36435107421875,0.0007024687947705388,-0.0009523360058665276,-0.0006450123619288206
1761466976105304800,4.374304931640625,0.0006127202650532126,-0.0005973366787657142,0.0018618210451677442
1761466976115259000,4.3842587890625,0.0006028465577401221,-0.0011157310800626874,-0.00036128051578998566
1761466976125212000,4.3942119140625,0.0027943619061261415,0.0007202521665021777,-0.0007945767138153315
1761466976135166000,4.404166015625,-0.0003786961897276342,0.002065003151074052,0.0006768179591745138
1761466976145120000,4.4141201171875,0.0006535450229421258,-0.0004961589002050459,0.0003583040088415146
1761466976155074000,4.424073974609375,0.0011990552302449942,0.0006395711679942906,0.0012832473730668426
1761466976165028000,4.434028076171875,-0.0007932555745355785,-0.00003234430914744735,0.002409231849014759
1761466976174982100,4.443982177734375,0.00011293066199868917,-0.0005448446609079838,-0.0012542856857180595
1761466976184936000,4.45393603515625,-0.00015817914390936494,-0.0012844044249504805,0.00044054980389773846
1761466976194889000,4.463888916015625,-0.0003303837147541344,-0.0003140143526252359,0.0009433880914002657
1761466976204843000,4.473843017578125,0.00012421788414940238,0.0007760174921713769,0.0009681554511189461
1761466976214797000,4.483797119140625,-0.0010231219930574298,0.00044560845708474517,0.00011469470337033272
1761466976224751000,4.493751220703125,0.00042723549995571375,0.0005300306365825236,0.0006398700643330812
1761466976234705000,4.503704833984375,-0.0015630470588803291,-0.0001275036484003067,-0.00009469594806432724
1761466976244659000,4.513658935546875,-0.0009174968581646681,0.0005199108272790909,0.0005583111196756363
1761466976254613000,4.523613037109375,0.00012916786363348365,-0.00005036004586145282,-0.00018937373533844948
1761466976264566000,4.53356591796875,0.00040320714469999075,0.00019678130047395825,-0.00017685675993561745
1761466976274519800,4.543519775390625,-0.0022494352888315916,-0.001092913094907999,-0.0005190989468246698
1761466976284473900,4.553473876953125,0.0005322364741005003,0.0008522596908733249,0.0012287335703149438
1761466976294428200,4.56342822265625,-0.0017303782515227795,-0.0012603135546669364,-0.0004916936159133911
1761466976304382200,4.57338232421875,-0.00025685131549835205,-0.00017241225577890873,-0.00027864077128469944
1761466976314336000,4.5833359375,0.00006588996620848775,0.0004992296453565359,-0.0008234954439103603
1761466976324290000,4.5932900390625,-0.000020929088350385427,0.00009735859930515289,0.0017131653148680925
1761466976334243000,4.6032431640625,-0.0006775399087928236,0.0003051312523894012,0.001082525122910738
1761466976344197000,4.613197021484375,0.0009288788423873484,0.0009424256859347224,0.00038264645263552666
1761466976354151000,4.62315087890625,0.0007622873526997864,-0.0015136611182242632,-0.000055481214076280594
1761466976364105000,4.63310498046875,0.0008989074849523604,0.0011327220126986504,-0.0006911775562912226
1761466976374059000,4.64305908203125,-0.0004823997733183205,0.00009747775038704276,0.0007793162949383259
1761466976384013000,4.653012939453125,-0.0022201123647391796,0.00022158108185976744,-0.00008727633394300938
1761466976393966000,4.662966064453125,-0.0011158206034451723,-0.000013358017895370722,0.00020746514201164246
1761466976403920000,4.672919921875,0.0006866067415103316,0.00009370106272399426,-0.000985897146165371
1761466976413874000,4.6828740234375,-0.0005156015977263451,-0.0009381736163049936,0.0007654158398509026
1761466976423828000,4.692827880859375,-0.0002740528725553304,0.0013561396626755595,0.0008548980113118887
1761466976433782000,4.702781982421875,0.0009672088781371713,0.00009714002953842282,0.0001494798343628645
1761466976443736000,4.712736083984375,0.0009333867346867919,0.0007930240826681256,0.00030500837601721287
1761466976453690000,4.722690185546875,0.0007240662234835327,-0.00012308504665270448,0.0014803020749241114
1761466976463643100,4.73264306640625,0.0010585591662675142,0.000038302503526210785,0.00023287744261324406
1761466976473597000,4.742596923828125,-0.00036640308098867536,-0.0008736844756640494,0.0010006350930780172
1761466976483551000,4.752551025390625,-0.0006596171297132969,0.000156958878505975,-0.0013072604779154062
1761466976493505000,4.762505126953125,-0.0008313479484058917,0.0008823457174003124,-0.0006885447073727846
1761466976503459000,4.772458984375,-0.00018979248125106096,0.00040484091732650995,0.0007157400250434875
1761466976513412900,4.782412841796875,-0.0012967189541086555,0.00007504707900807261,-0.0013821935281157494
1761466976523367000,4.792366943359375,0.0006881350418552756,0.00009182497160509229,-0.0006239914800971746
1761466976533320000,4.80231982421875,-0.00038773161941207945,0.00013203127309679985,0.0006505849305540323
1761466976543274000,4.81227392578125,0.0008903193520382047,0.0005192549433559179,0.001110512763261795
1761466976553227800,4.822227783203125,-0.00006456620758399367,-0.000016844947822391987,-0.0002977875992655754
1761466976563182000,4.83218212890625,0.0017514433711767197,-0.0005311013082973659,-0.0005217595025897026
1761466976573136100,4.84213623046875,0.0007347360369749367,0.00006357760867103934,0.0013821927132084966
1761466976583090200,4.852090087890625,0.0003549692337401211,0.0015746552962809801,0.0008253257256001234
1761466976593044000,4.8620439453125,-0.0009812545031309128,0.00007175793871283531,-0.0005612531676888466
1761466976602997000,4.8719970703125,0.0007892149733379483,0.000636081793345511,0.00007843808270990849
1761466976612951000,4.881950927734375,-0.00001698685809969902,0.000058183621149510145,0.0008218572475016117
1761466976622905000,4.891905029296875,-0.0004580063105095178,-0.0009016196709126234,-0.00019893236458301544
1761466976632859000,4.90185888671875,0.001493365503847599,-0.001190920826047659,0.0010652774944901466
1761466976642813000,4.91181298828125,0.00012050598161295056,0.001965723931789398,0.002042391337454319
1761466976652767000,4.92176708984375,-0.00021875521633774042,-0.00013985700206831098,0.0009552985429763794
1761466976662721000,4.931720947265625,-0.0005607050843536854,0.0003783941501751542,0.0015297424979507923
1761466976672674000,4.941674072265625,-0.00048484609578736126,0.0005898135132156312,0.000883499626070261
1761466976682627800,4.9516279296875,0.000023551343474537134,-0.0004096707853022963,0.0018528902437537909
1761466976692582000,4.961581787109375,-0.001357727451249957,0.001328133512288332,0.000785639975219965
1761466976702536200,4.9715361328125,-0.0009207027032971382,0.00039922300493344665,0.0002080004196614027
1761466976712490000,4.981489990234375,-0.0012116235448047519,0.0006520233582705259,0.0011384764220565557
1761466976722444000,4.991444091796875,-0.0018313410691916943,0.0006634749006479979,0.00015310687012970448
1761466976732397000,5.00139697265625,0.00001027603866532445,-0.0012201948557049036,0.000024370616301894188
1761466976742351000,5.01135107421875,0.00033997540595009923,-0.00017969790496863425,0.00019188341684639454
1761466976752305200,5.02130517578125,-0.000257125124335289,-0.0009486731141805649,0.0010884548537433147
1761466976762259000,5.031259033203125,0.0005535411764867604,0.00123165687546134,0.0010786012280732393
1761466976772213000,5.041212890625,-0.0002470639883540571,0.0002514833468012512,0.0010412854608148336
1761466976782167000,5.0511669921875,-0.0026223373133689165,-0.0009277643403038383,0.0011518066748976707
1761466976792120800,5.061120849609375,-0.0007949156570248306,0.00020543270511552691,0.0005573860835283995
1761466976802073900,5.071073974609375,-0.00019676965894177556,0.0012938666623085737,-0.00022798008285462856
1761466976812028000,5.08102783203125,-0.0015662990044802427,0.001507387962192297,0.0003640770446509123
1761466976821982000,5.09098193359375,0.00026915158377960324,-0.0005933134234510362,0.00001626834273338318
1761466976831936000,5.10093603515625,0.0003934234846383333,-0.00010375765850767493,0.0008685782086104155
1761466976841890000,5.11089013671875,-0.0012851669453084469,-0.00010588820441626012,-0.00023370422422885895
1761466976851844000,5.120843994140625,-0.00007346965139731765,-0.0014246664941310883,0.000345554668456316
1761466976861798100,5.130798095703125,0.0005252090049907565,-0.00020946614677086473,0.0003721863031387329
1761466976871751200,5.140751220703125,0.000048290472477674484,-0.000003952911356464028,0.0010873503051698208
1761466976881705000,5.150705078125,-0.0003160299966111779,-0.000014871853636577725,0.0013850918039679527
1761466976891659000,5.160658935546875,0.00023634964600205421,-0.000047500478103756905,0.0000037348363548517227
1761466976901613000,5.170613037109375,-0.0016073567094281316,-0.00023525334836449474,0.0018676812760531902
1761466976911566800,5.18056689453125,-0.00045562934246845543,-0.00013288654736243188,0.0011834672186523676
1761466976921521000,5.19052099609375,-0.0004982398822903633,0.0006255816551856697,0.000922743696719408
1761466976931473700,5.2004736328125,-0.0011021723039448261,-0.00010350701631978154,-0.00026407744735479355
1761466976941428000,5.210427978515625,-0.0003154745209030807,0.0004219346446916461,0.00041156657971441746
1761466976951382000,5.220382080078125,-0.0004914021119475365,-0.00013831621618010104,-0.00011376827023923397
1761466976961335800,5.230335693359375,0.0013168842997401953,-0.0005143545567989349,-0.00025198631919920444
1761466976971289900,5.240289794921875,-0.0006972456467337906,-0.00021942653984297067,0.0003205577377229929
1761466976981244000,5.250243896484375,0.0005046389997005463,-0.00008493690984323621,0.0002896650694310665
1761466976991198000,5.260197998046875,-0.0005207881331443787,0.0002855344209820032,-0.0015775663778185844
1761466977001150700,5.270150634765625,-0.000015320198144763708,0.000011761469068005681,0.0015018467092886567
1761466977011104800,5.280104736328125,0.0006360590341500938,0.00048255501314997673,0.000651658046990633
1761466977021058800,5.290058837890625,-0.00046142961946316063,0.0001238271943293512,-0.00019682524725794792
1761466977031012900,5.300012939453125,0.0011157928965985775,0.0007184767164289951,0.002063772175461054
1761466977040966700,5.309966552734375,0.0011016781209036708,0.0016178261721506715,-0.0002539767883718014
1761466977050920700,5.319920654296875,0.0017247273353859782,-0.0007863625069148839,0.001457304460927844
1761466977060875000,5.329875,-0.0003591961576603353,0.0008751836721785367,0.0009236070327460766
1761466977070827800,5.339827880859375,-0.00008328550029546022,0.0009536446304991841,0.00043934048153460026
1761466977080781800,5.34978173828125,0.0001726442715153098,0.001381348236463964,-0.0012136837467551231
1761466977090735900,5.35973583984375,0.0010083619272336364,0.0008537929388694465,0.0009385296143591404
1761466977100690000,5.36968994140625,-0.0011226995848119259,-0.0003994906146544963,0.000025065382942557335
1761466977110644000,5.37964404296875,-0.00002399645745754242,-0.0002181651652790606,0.0012866483302786946
1761466977120597800,5.38959765625,-0.0011129630729556084,0.0010111499577760696,-0.00010245642624795437
1761466977130550800,5.39955078125,0.0011630733497440815,0.0008443134720437229,-0.0005267041269689798
1761466977140504800,5.4095048828125,0.0007348369690589607,-0.000895529636181891,0.0005313695874065161
1761466977150459000,5.419458984375,0.0008727239328436553,0.001063819508999586,0.000434978399425745
1761466977160412700,5.42941259765625,-0.0003419438435230404,-0.0006304835551418364,-0.00010697497054934502
1761466977170366700,5.43936669921875,0.00009033537935465574,0.00023411447182297707,0.0012823747238144279
1761466977180320800,5.44932080078125,-0.00012351642362773418,0.00014969229232519865,-0.0005868980661034584
1761466977190275000,5.459275146484375,0.0006536314031109214,0.0011566458269953728,0.0010274918749928474
1761466977200227800,5.469227783203125,-0.00037381611764431,-0.00010595881030894816,0.0006711608730256557
1761466977210182000,5.479181884765625,-0.0011315320152789354,-0.00028082903008908033,0.0003182126674801111
1761466977220136000,5.489135986328125,-0.0009570949478074908,-0.0012036142870783806,-0.0005385261029005051
1761466977230090000,5.499090087890625,0.0009079959709197283,0.0007009381079114974,0.0001432590652257204
1761466977240043800,5.509043701171875,-0.00014368630945682526,0.0006167821702547371,-0.001151303295046091
1761466977249997800,5.518997802734375,0.0007713912054896355,0.00021849561017006636,0.0002958434633910656
1761466977259951900,5.528951904296875,-0.0007929495768621564,0.0006017244886606932,0.001094259088858962
1761466977269905000,5.53890478515625,-0.0007044922676868737,-0.0005743933143094182,-0.0007325701881200075
1761466977279859000,5.54885888671875,0.00003826332977041602,0.00034386460902169347,0.0001723719760775566
1761466977289812700,5.558812744140625,-0.0010598106309771538,-0.0005181264714337885,0.00020462018437683582
1761466977299766800,5.568766845703125,-0.0006350365001708269,-0.0006632687291130424,-0.0001591674517840147
1761466977309720800,5.578720947265625,0.00015997880836948752,0.007583047728985548,-0.0020853648893535137
1761466977319674600,5.588674560546875,-0.0011223333422094584,-0.002052535302937031,0.0023266940843313932
1761466977329627600,5.598627685546875,-0.0011214767582714558,-0.005571821704506874,-0.00017932849004864693
1761466977339581700,5.608581787109375,-0.000168597704032436,0.0012549255043268204,0.0009101707255467772
1761466977349536000,5.618535888671875,-0.0016086315736174583,0.000795999076217413,0.0010980076622217894
1761466977359489800,5.62848974609375,0.001084356801584363,-0.004238174296915531,-0.001048500183969736
1761466977369443800,5.63844384765625,-0.00015196087770164013,0.0014903740957379341,-0.0005862491670995951
1761466977379398000,5.64839794921875,0.0005620325682684779,0.0025276753585785627,0.001672377809882164
1761466977389351000,5.658350830078125,0.0002469101455062628,-0.002550294389948249,-0.001463089371100068
1761466977399305000,5.668304931640625,0.0007249476038850844,-0.00048421398969367146,0.002385977189987898
1761466977409258800,5.6782587890625,-0.0011537715326994658,0.0030625585932284594,-0.00019357120618224144
1761466977419212800,5.688212890625,0.0005365367978811264,-0.0006219247588887811,0.0013071201974526048
1761466977429166800,5.698166748046875,-0.00011719099711626768,-0.00009311005123890936,-0.000940514262765646
1761466977439121000,5.708120849609375,-0.00025753959198482335,0.0014579149428755045,0.00006296485662460327
1761466977449074700,5.71807470703125,-0.0009798738174140453,-0.001220125355757773,-0.0003884572070091963
1761466977459027700,5.72802783203125,-0.0005449795280583203,-0.0012989549431949854,-0.000851847231388092
1761466977468981800,5.737981689453125,0.0005519094411283731,0.00018689330318011343,-0.0002819509245455265
1761466977478935800,5.747935791015625,0.0011529849143698812,-0.00007462911889888346,-0.0004587846342474222
1761466977488889900,5.757889892578125,0.0006596095045097172,-0.001801623497158289,-0.000288861570879817
1761466977498844000,5.767843994140625,0.0005458925734274089,0.0012644738890230656,0.0007990396115928888
1761466977508798000,5.7777978515625,-0.00021843283320777118,-0.00035028523416258395,0.0009904180187731981
1761466977518751700,5.787751708984375,-0.00008580740541219711,0.001992763951420784,-0.0009920389857143164
1761466977528704800,5.797704833984375,0.00033346208510920405,-0.0009952529799193144,-0.0006901726592332125
1761466977538658800,5.807658935546875,-0.00006627838592976332,0.00043166877003386617,0.0007330204825848341
1761466977548612900,5.81761279296875,0.0002698711468838155,-0.0015841423301026225,0.0006476894486695528
1761466977558567000,5.82756689453125,0.00023551640333607793,-0.001267226180061698,0.0017438464565202594
1761466977568520700,5.837520751953125,0.0005593958776444197,0.0012660821666941047,-0.001075301319360733
1761466977578474800,5.847474853515625,-0.0007476835744455457,0.0011076241498813033,-0.00048754154704511166
1761466977588427800,5.857427734375,-0.00006929569644853473,0.00048016561777330935,0.00025817728601396084
1761466977598381800,5.8673818359375,0.00030727527337148786,0.00041039081406779587,0.0004025206435471773
1761466977608335600,5.877335693359375,-0.001604479388333857,0.00043092924170196056,-0.000460201408714056
1761466977618290000,5.8872900390625,0.0017910508904606104,-0.0007978532812558115,-0.00010946323163807392
1761466977628244000,5.897243896484375,0.0005674691055901349,0.0016306235920637846,0.0006688772700726986
1761466977638198000,5.907197998046875,-0.0006732976762577891,-0.0002799280919134617,-0.0006089075468480587
1761466977648151800,5.91715185546875,-0.0006278204964473844,0.0004627667076420039,0.0001677835825830698
1761466977658104800,5.927104736328125,-0.00024246113025583327,-0.0011726805241778493,-0.001082038041204214
1761466977668059000,5.937058837890625,0.002228105440735817,0.00018306635320186615,-0.0005013279151171446
1761466977678013000,5.947012939453125,-0.0006989749381318688,0.0005066404119133949,-0.00017535709775984287
1761466977687966700,5.956966796875,-0.00011211560922674835,0.00029643072048202157,0.0015195130836218596
1761466977697920800,5.966920654296875,-0.0007813679985702038,0.0009648841223679483,-0.0006879810243844986
1761466977707874800,5.976874755859375,0.0012564982753247023,0.0003165393427480012,-0.00030238390900194645
1761466977717827800,5.986827880859375,0.00028764025773853064,-0.00015723700926173478,-0.0000728194136172533
1761466977727782000,5.996781982421875,-0.0000061310711316764355,-0.00007305273902602494,-0.00039072567597031593
1761466977737735700,6.006735595703125,0.00003035424742847681,-0.0005268554086796939,-0.0003561044577509165
1761466977747689700,6.016689697265625,0.0009449147619307041,-0.00003674297477118671,-0.0007520781364291906
1761466977757644000,6.02664404296875,0.0009076304268091917,0.0016644843854010105,0.0003957443404942751
1761466977767597800,6.036597900390625,-0.00009027330088429153,0.00047817305312491953,0.0012988564558327198
1761466977777550800,6.04655078125,-0.0013680579140782356,0.0011106738820672035,0.001032007741741836
1761466977787505000,6.0565048828125,0.000537873012945056,0.001090200967155397,-0.0010411557741463184
1761466977797459000,6.066458984375,-0.0013886577216908336,-0.0008832014864310622,-0.0010052032303065062
1761466977807412700,6.076412841796875,-0.0003499212325550616,0.0007790356758050621,0.0011098600225523114
1761466977817366800,6.08636669921875,-0.0003445949114393443,0.0002445391728542745,-0.0009064192418009043
1761466977827320800,6.09632080078125,-0.0012600156478583813,-0.00006829228368587792,-0.0005913618952035904
1761466977837275000,6.10627490234375,0.0019168691942468286,0.000009738345397636294,-0.0008302472997456789
1761466977847228000,6.116227783203125,0.0013887144159525633,-0.0007171697216108441,0.0010517125483602285
1761466977857181700,6.126181640625,0.00003822549479082227,0.0014168212655931711,-0.0008710897527635098
1761466977867135700,6.1361357421875,-0.001312677632085979,-0.0005382709787227213,-0.0005004093982279301
1761466977877089800,6.14608984375,-0.0014005620032548904,0.0014103639405220747,0.0009984176140278578
1761466977887043800,6.1560439453125,-0.0005726173985749483,-0.00022996134066488594,-0.0003795260563492775
1761466977896998000,6.165997802734375,0.001912378240376711,0.00199883827008307,-0.0010258753318339586
1761466977906951700,6.17595166015625,0.0007191452896222472,-0.0007906724349595606,0.001818440854549408
1761466977916905700,6.18590576171875,0.000775071675889194,-0.001392813166603446,-0.0009616329334676266
1761466977926859500,6.195859619140625,-0.00013295779353938997,0.0009580829064361751,0.0018759403610602021
1761466977936813600,6.2058134765625,0.0016020918264985085,0.0005197266000322998,0.00038936384953558445
1761466977946767600,6.215767578125,0.0005544343148358166,0.0005551141803152859,0.0007072377484291792
1761466977956721700,6.2257216796875,-0.0014258923474699259,0.0005090415361337364,-0.0006320658139884472
1761466977966674700,6.2356748046875,0.0016495020827278495,0.0003782964195124805,0.0011315422598272562
1761466977976628500,6.24562841796875,0.0010337791172787547,0.0008848296129144728,0.00007000635378062725
1761466977986582500,6.25558251953125,0.0017988176550716162,0.0015128791565075517,-0.00043246964924037457
1761466977996536600,6.26553662109375,0.0003886737977154553,0.0018194089643657207,0.0004074913449585438
1761466978006490400,6.275490478515625,0.00023836956825107336,0.00017442944226786494,0.0012073685647919774
1761466978016444700,6.285444580078125,0.0011558285914361477,0.000754998589400202,0.0001253262162208557
1761466978026398700,6.295398681640625,-0.00024170521646738052,0.00016404356574639678,0.00012701703235507011
1761466978036351700,6.305351806640625,-0.0007439773762598634,0.001006934093311429,0.00015391502529382706
1761466978046305500,6.315305419921875,-0.0007931551663205028,-0.00023266505741048604,-0.0014622132293879986
1761466978056259600,6.325259521484375,0.0018231342546641827,-0.0007402635528706014,0.00026564556173980236
1761466978066213600,6.335213623046875,0.000016675563529133797,0.0002765538520179689,0.001222885330207646
1761466978076167700,6.345167724609375,0.0007296037510968745,0.0004728288040496409,0.000169338658452034
1761466978086121500,6.35512158203125,-0.0002736008900683373,-0.00022863569029141217,0.00024555972777307034
1761466978096074500,6.365074462890625,-0.0003814588999375701,-0.0008057426894083619,-0.0020266494248062372
1761466978106028500,6.375028564453125,-0.00031528016552329063,-0.0008769038831815124,0.00031111412681639194
1761466978115982600,6.384982666015625,-0.00017652945825830102,-0.001182102132588625,0.0001619772519916296
1761466978125936400,6.394936279296875,0.000012000324204564095,-0.0015336620854213834,0.00161714234855026
1761466978135890400,6.404890380859375,-0.0005688350647687912,0.0008466712897643447,-0.000036414479836821556
1761466978145844700,6.4148447265625,0.0002930756309069693,-0.0007037280593067408,0.0003800515551120043
1761466978155798800,6.424798828125,-0.0006070727831684053,-0.0012627255637198687,0.0011451776372268796
1761466978165751800,6.434751708984375,-0.0008915920043364167,-0.0016769282519817352,-0.0008885292336344719
1761466978175705600,6.44470556640625,-0.0015179675538092852,-0.0007743829628452659,0.0010710246860980988
1761466978185659600,6.45465966796875,-0.00011501699918881059,0.0007746891351416707,0.00007766671478748322
1761466978195613700,6.46461376953125,-0.0003381898859515786,0.0007166322320699692,0.00024198368191719055
1761466978205567500,6.4745673828125,0.00012459821300581098,0.0009558612946420908,0.0010726990876719356
1761466978215521500,6.484521484375,-0.002101005520671606,0.0003095121355727315,-0.002183015225455165
1761466978225474600,6.494474609375,0.0006289372686296701,-0.0006707425927743316,-0.0018520080484449863
1761466978235428600,6.5044287109375,0.0007868626853451133,0.00043526815716177225,-0.0008860793896019459
1761466978245382700,6.514382568359375,0.00037618144415318966,-0.00032790956902317703,-0.0005042306147515774
1761466978255336400,6.52433642578125,0.00008829368744045496,-0.0011910400353372097,0.0009024511091411114
1761466978265290500,6.53429052734375,-0.00111193279735744,0.0005211216048337519,-0.001084762392565608
1761466978275244500,6.54424462890625,0.0007882326608523726,-0.0008714452851563692,0.0006817122921347618
1761466978285197600,6.554197509765625,0.0015471873339265585,0.0004737541312351823,-0.0007213337812572718
1761466978295151400,6.5641513671875,-0.0013836214784532785,0.0008588472264818847,0.0001367365475744009
1761466978305105700,6.574105712890625,0.00028112909058108926,-0.001117706997320056,0.00037069967947900295
1761466978315059700,6.584059814453125,0.0008608992793597281,-0.0004953262396156788,0.001201073406264186
1761466978325013800,6.594013671875,-0.000492208288051188,0.00013345154002308846,-0.0014911196194589138
1761466978334967600,6.603967529296875,-0.00020778269390575588,0.0026032670866698027,-0.0031401487067341805
1761466978344920600,6.613920654296875,0.0008550234488211572,0.0026771468110382557,0.0006756156217306852
1761466978354874600,6.62387451171875,0.0000837720581330359,-0.005910748615860939,0.001584818703122437
1761466978364828700,6.63382861328125,-0.00011488044401630759,-0.003336569294333458,-0.0010135264601558447
1761466978374782500,6.643782470703125,-0.0004887882387265563,0.0030765889678150415,-0.000127759063616395
1761466978384736500,6.653736572265625,0.000470678205601871,-0.0018474500393494964,-0.0013441527262330055
1761466978394690600,6.663690673828125,-0.00023665738990530372,-0.00015261434600688517,0.0003765157889574766
1761466978404644600,6.67364453125,-0.00016556127229705453,0.004092442337423563,-0.00041303527541458607
1761466978414597600,6.68359765625,0.0003188677364960313,-0.000020810170099139214,-0.0011480676475912333
1761466978424551400,6.693551513671875,0.0011794387828558683,-0.0008850247832015157,0.0001578833907842636
1761466978434505700,6.703505615234375,0.0008990078349597752,0.0023432590533047915,0.0003648109268397093
1761466978444459800,6.713459716796875,-0.000020277861040085554,0.0008655592100694776,0.0015178240137174726
1761466978454413600,6.72341357421875,0.0005179470172151923,-0.0010479220654815435,-0.00029019592329859734
1761466978464367600,6.73336767578125,-0.0000358350807800889,0.0007961392402648926,-0.0005624296609312296
1761466978474320600,6.743320556640625,-0.0003769859904423356,-0.0004619380342774093,0.00022773025557398796
1761466978484274700,6.753274658203125,0.0016455466393381357,0.000022440304746851325,0.00026539876125752926
1761466978494228500,6.763228515625,0.00016802502796053886,0.0010325772454962134,-0.0002248890232294798
1761466978504182500,6.7731826171875,-0.00002469768514856696,-0.00047937253839336336,0.0004455281887203455
1761466978514136600,6.783136474609375,0.000540691427886486,0.0012649979908019304,0.0009214351885020733
1761466978524090600,6.793090576171875,0.0006063176551833749,-0.000011303258361294866,-0.00008135312236845493
1761466978534043600,6.803043701171875,0.0008252294501289725,-0.0009820254053920507,0.00004301662556827068
1761466978543997400,6.81299755859375,-0.00017000801744870842,0.000806863943580538,0.0017790663987398148
1761466978553951500,6.822951416015625,0.00013545656111091375,-0.0012714669574052095,-0.00042762886732816696
1761466978563905500,6.832905517578125,0.000275434460490942,0.0006805958691984415,0.00001913611777126789
1761466978573859600,6.842859619140625,0.0015646708197891712,-0.0007109057623893023,0.0012018459383398294
1761466978583813600,6.852813720703125,-0.0007121318485587835,0.0006311937468126416,0.00042604212649166584
1761466978593766700,6.8627666015625,0.0011629998916760087,0.0006301284302026033,-0.0006115252617746592
1761466978603720700,6.872720703125,-0.0011283999774605036,0.000045721157221123576,-0.00007881061173975468
1761466978613674800,6.8826748046875,0.00034352915827184916,0.0009096505818888545,-0.00044552795588970184
1761466978623628500,6.892628662109375,-0.00019686450832523406,0.0011963059660047293,0.00003391830250620842
1761466978633582600,6.90258251953125,-0.0003939384187106043,0.0002559437998570502,-0.001387144671753049
1761466978643536600,6.91253662109375,0.0004982343525625765,0.0005363054806366563,0.0006819535046815872
1761466978653490400,6.922490478515625,0.0012694858014583588,0.001296637929044664,-0.00023550540208816528
1761466978663443500,6.932443359375,-0.00016240202239714563,-0.00040212643216364086,0.0006513998378068209
1761466978673397500,6.9423974609375,0.0009297603974118829,-0.00037762534338980913,0.0006050607189536095
1761466978683351600,6.9523515625,0.0005663154297508299,0.0014622374437749386,-0.000038367463275790215
1761466978693305600,6.9623056640625,0.00019134237663820386,0.0013929952401667833,0.0005014552734792233
1761466978703259400,6.97225927734375,0.0015923124738037586,-0.000019318045815452933,0.0013790688244625926
1761466978713213700,6.982213623046875,0.0007555472548119724,0.0006912133540026844,-0.0006420041900128126
1761466978723166700,6.992166748046875,0.00022050237748771906,0.001262869918718934,0.0011449893936514854
1761466978733120800,7.002120849609375,0.0008423504768870771,-0.0002167824568459764,0.0003913147374987602
1761466978743074600,7.012074462890625,-0.0002450800675433129,-0.0010316355619579554,0.0005922401323914528
1761466978753028600,7.022028564453125,0.0006034030229784548,-0.0010342986788600683,-0.000924696447327733
1761466978762982700,7.031982666015625,-0.00020968759781681,0.0023268007207661867,-0.00009373761713504791
1761466978772936700,7.041936767578125,-0.00013139066868461668,0.0021643477957695723,-0.0007709793280810118
1761466978782889700,7.0518896484375,0.0016506031388416886,-0.0016546588158234954,-0.002078091958537698
1761466978792843500,7.061843505859375,0.0006601735949516296,-0.0018426779424771667,-0.0010434535797685385
1761466978802797600,7.071797607421875,0.0005676790606230497,0.0006544006755575538,0.0001150784082710743
1761466978812751600,7.081751708984375,-0.0006094381678849459,-0.00027903722366318107,0.0016152369789779186
1761466978822705400,7.091705322265625,0.001785639557056129,0.00169209367595613,-0.0018311068415641785
1761466978832659500,7.101659423828125,0.0017014836193993688,0.0004252279468346387,-0.0001304119359701872
1761466978842613800,7.11161376953125,0.0001461998326703906,0.0001984492118936032,-0.0004435158334672451
1761466978852566500,7.12156640625,-0.0007502201478928328,-0.00014456594362854958,0.0006001768633723259
1761466978862520600,7.1315205078125,0.00037810858339071274,0.00018166040536016226,0.0003284323029220104
1761466978872474600,7.141474609375,-0.0011849007569253445,0.0002991058281622827,-0.00074934889562428
1761466978882428700,7.1514287109375,0.0003458377323113382,0.0012189771514385939,0.0001721489243209362
1761466978892382700,7.1613828125,-0.0010019880719482899,0.000990744330920279,-0.00032506324350833893
1761466978902335700,7.171335693359375,0.0006520664901472628,0.001581311458721757,-0.0007656386587768793
1761466978912289500,7.18128955078125,0.0008499393588863313,-0.00042218470480293036,-0.0003139665350317955
1761466978922243600,7.19124365234375,0.0007682284922339022,0.000645820633508265,-0.0015952084213495255
1761466978932197600,7.20119775390625,0.0013530587311834097,0.00041199507541023195,-0.00007614120841026306
1761466978942151400,7.2111513671875,-0.001377816079184413,-0.0003066344652324915,0.0001751151867210865
1761466978952105500,7.22110546875,-0.0013730223290622234,-0.0005295410519465804,0.0006933663971722126
1761466978962059500,7.2310595703125,0.000152407621499151,0.00021565498900599778,-0.00001546088606119156
1761466978972012500,7.241012451171875,0.00015826657181605697,0.0018473739037290215,0.0003254236653447151
1761466978981966600,7.250966552734375,0.0009480349253863096,0.0003457387210801244,0.00043854210525751114
1761466978991920400,7.26092041015625,0.0003935647546313703,-0.00014401660882867873,-0.001488254638388753
1761466979001874700,7.270874755859375,-0.0002929502516053617,0.00033812137553468347,0.0007770240772515535
1761466979011828700,7.280828857421875,-0.00004447734681889415,0.0009133641724474728,0.00021855905652046204
1761466979021782500,7.290782470703125,-0.0004555981431622058,-0.001263632089830935,0.0018393945647403598
1761466979031735600,7.300735595703125,0.0013593460898846388,0.00009617797331884503,0.00013150926679372787
1761466979041689600,7.310689697265625,0.0007011813577264547,0.00038246787153184414,0.00018052267841994762
1761466979051643600,7.3206435546875,0.0004918568301945925,-0.0009528410737402737,-0.0006202899385243654
1761466979061597700,7.33059765625,0.00015398289542645216,-0.0006859439890831709,0.0010786233469843864
1761466979071551500,7.340551513671875,0.00025678088422864676,0.00003204427775926888,-0.000258283456787467
1761466979081505500,7.350505615234375,0.0015356051735579967,0.0010664858855307102,0.0003886432386934757
1761466979091458600,7.36045849609375,0.00009270443115383387,-0.0007644373690709472,-0.00029046274721622467
1761466979101412600,7.37041259765625,0.0012470354558899999,-0.00005785815301351249,-0.0008262540213763714
1761466979111366400,7.380366455078125,0.0006403673905879259,-0.00005519497790373862,-0.00011252681724727154
1761466979121320400,7.390320556640625,-0.0016673887148499489,-0.0016722215805202723,-0.00036802422255277634
1761466979131274800,7.400274658203125,0.0009544933564029634,0.0003073060652241111,-0.001377362059429288
1761466979141228800,7.410228759765625,-0.0006630910211242735,0.000554341881070286,-0.0002793378662317991
1761466979151181800,7.420181884765625,0.0014133756048977375,-0.00017802740330807865,-0.0018708426505327225
1761466979161135600,7.430135498046875,0.00066954834619537,0.0001910995924845338,-0.00028299656696617603
1761466979171089700,7.440089599609375,0.0020157762337476015,0.0012254713801667094,0.0006323317065834999
1761466979181043700,7.450043701171875,0.00023243436589837074,0.0003717661020345986,-0.0008092732168734074
1761466979190997500,7.45999755859375,0.00016718695405870676,0.0007059928611852229,0.00044933659955859184
1761466979200951600,7.46995166015625,0.000051280425395816565,-0.0008092385251075029,0.0010031317360699177
1761466979210904600,7.479904541015625,-0.00023900414817035198,-0.0033488289918750525,0.00025718030519783497
1761466979220858600,7.489858642578125,-0.0007232081261463463,-0.0010972892632707953,0.00007303315214812756
1761466979230812700,7.499812744140625,0.000762036768719554,0.0020234028343111277,0.0016538855852559209
1761466979240766500,7.509766357421875,-0.0010542126838117838,-0.002192963380366564,0.0010413354029878974
1761466979250720500,7.519720458984375,-0.001007341081276536,-0.00029865707620047033,-0.0008082299027591944
1761466979260674600,7.529674560546875,0.000027334783226251602,0.00022311252541840076,0.001979479333385825
1761466979270627600,7.539627685546875,0.0004262762959115207,-0.0010903584770858288,0.00017385603860020638
1761466979280581400,7.549581298828125,0.00018880690913647413,0.0004868229734711349,-0.00027029053308069706
1761466979290535700,7.55953564453125,0.0006210379651747644,0.0007744443719275296,-0.0005882719997316599
1761466979300489700,7.56948974609375,0.0010666587622836232,0.0005543403676711023,0.0013667719904333353
1761466979310443500,7.579443603515625,0.00007543026003986597,0.000494152947794646,0.0006197553593665361
1761466979320397600,7.5893974609375,0.00029622827423736453,-0.0002722337667364627,-0.000006658490747213364
1761466979330350600,7.5993505859375,-0.0006614444428123534,0.0007229894981719553,0.0009041425073519349
1761466979340304600,7.6093046875,-0.0005468038143590093,-0.001106018084101379,-0.00043753255158662796
1761466979350258700,7.6192587890625,0.0005706585943698883,-0.00037897512083873153,0.0017097742529585958
1761466979360212500,7.62921240234375,-0.00009519440936855972,0.000740471703466028,-0.00016036676242947578
1761466979370166500,7.63916650390625,-0.0012123904889449477,-0.0007639479590579867,0.001267353887669742
1761466979380120600,7.64912060546875,0.0008994094678200781,0.0004859385662712157,0.00016761408187448978
1761466979390073600,7.659073486328125,-0.0009312473703175783,0.0004332080134190619,0.0002725424710661173
1761466979400027400,7.66902734375,-0.000025578949134796858,-0.0007016528397798538,-0.0008431663736701012
1761466979409981400,7.6789814453125,-0.00033344037365168333,-0.00004837941378355026,-0.00016299495473504066
1761466979419935700,7.688935791015625,-0.0002259741013403982,0.002467638347297907,0.0008252067491412163
1761466979429889800,7.698889892578125,0.0005506036104634404,-0.00041949457954615355,-0.00009784498251974583
1761466979439843600,7.708843505859375,0.00022790924413129687,0.001481508370488882,-0.0011172848753631115
1761466979449796600,7.718796630859375,0.00004681426798924804,-0.0002692535927053541,-0.00020941323600709438
1761466979459750700,7.728750732421875,0.0007404795615002513,0.001044170232489705,-0.0004927602130919695
1761466979469704700,7.73870458984375,0.000748469028621912,0.00010034593287855387,-0.0012022261507809162
1761466979479658500,7.748658447265625,-0.00010002002818509936,0.0016607132274657488,-0.00041575473733246326
1761466979489612500,7.758612548828125,0.0016358282882720232,0.0002718748291954398,0.0009424573509022593
1761466979499566600,7.768566650390625,0.00005812360905110836,0.0006069244700483978,0.0005858608055859804
1761466979509519600,7.77851953125,-0.0006840993883088231,0.002282851841300726,-0.00018219486810266972
1761466979519473700,7.7884736328125,-0.0006667982088401914,-0.0004612556076608598,-0.0014877538196742535
1761466979529427500,7.798427490234375,-0.0004196568625047803,-0.000970451976172626,-0.0008304857183247805
1761466979539381500,7.808381591796875,0.000033642922062426805,-0.0021696574985980988,0.0005070853512734175
1761466979549335600,7.81833544921875,0.000017397687770426273,-0.0018018749542534351,-0.0004002535715699196
1761466979559289600,7.82828955078125,0.00048587576020509005,0.0005879285745322704,0.0005627418868243694
1761466979569242400,7.838242431640625,0.0014587284531444311,-0.0002483039570506662,0.000005075940862298012
1761466979579196700,7.84819677734375,0.0010638749226927757,0.00021733081666752696,0.00016827136278152466
1761466979589150700,7.858150634765625,-0.000414179521612823,0.000506283831782639,-0.0012551883701235056
1761466979599104800,7.868104736328125,0.0016152642201632261,0.0002070750924758613,0.0004194022621959448
1761466979609058600,7.87805859375,0.00016970053547993302,-0.0010051957797259092,0.0008247354999184608
1761466979619012600,7.8880126953125,-0.00022050211555324495,0.0015625556698068976,0.0002501651179045439
1761466979628965600,7.897965576171875,0.0005853704060427845,0.0006488250801339746,-0.000564495800063014
1761466979642029600,7.911029541015625,-0.0005560768768191338,0.0004103955579921603,0.0002275372389703989
1761466979651983600,7.920983642578125,0.0005195738049224019,0.0018026962643489242,-0.000011614756658673286
1761466979661937400,7.9309375,0.00024827063316479325,-0.0028308623004704714,0.00038512516766786575
1761466979671891700,7.9408916015625,-0.00047238077968358994,0.0015479070134460926,0.0006240105722099543
1761466979681845800,7.950845703125,0.002426313003525138,0.00009392306674271822,0.00042374758049845695
1761466979691799600,7.960799560546875,0.0007186942384578288,0.0018830345943570137,-0.0003291280008852482
1761466979701752600,7.970752685546875,0.0014752930728718638,0.0014883950352668762,0.0004585778806358576
1761466979711706600,7.98070654296875,-0.0005345944664441049,0.001074273488484323,0.0008628459181636572
1761466979721660700,7.99066064453125,0.0003384162555448711,0.00043121009366586804,-0.0007694780360907316
1761466979731614500,8.000614501953125,0.0006225755205377936,0.0015444112941622734,0.0000545040238648653
1761466979741568500,8.010568603515624,-0.0002475579094607383,0.0018330577295273542,-0.000609509414061904
1761466979751521500,8.020521484375,-0.0008124143932946026,0.0004761771997436881,-0.0010728996712714434
1761466979761475600,8.0304755859375,0.00018321466632187366,0.00043300603283569217,-0.0002078884281218052
1761466979771429600,8.0404296875,0.00006044295150786638,-0.00028152004233561456,0.0003820017445832491
1761466979781383400,8.050383544921875,0.0005724445800296962,-0.0018031180370599031,-0.0010367464274168015
1761466979791337500,8.06033740234375,-0.0006406252505257726,0.0010635084472596645,-0.0011193044483661652
1761466979801291800,8.070291748046875,0.0012187107931822538,-0.00013138208305463195,0.000781188253313303
1761466979811244500,8.08024462890625,0.001448808005079627,0.0002915278892032802,0.0003750561736524105
1761466979821198600,8.090198486328125,0.0001261689467355609,-0.0004094013129360974,-0.000964693259447813
1761466979831152600,8.100152587890625,-0.0010400292230769992,-0.000329506496200338,0.0018699753563851118
1761466979841106700,8.110106689453126,0.0011600686702877283,-0.000138856063131243,0.0007938735652714968
1761466979851060700,8.120060791015625,0.0012764488346874714,0.00004729890497401357,0.00008866866119205952
1761466979861014500,8.1300146484375,-0.000005125417374074459,0.0009824957232922316,0.0011684673372656107
1761466979870967600,8.139967529296875,0.00040793087100610137,-0.0007541516097262502,0.0006528794765472412
1761466979880921600,8.149921630859374,-0.00046454870607703924,-0.0021463155280798674,-0.00045405770651996136
1761466979890875600,8.159875732421876,0.000044647662434726954,0.0001639766269363463,0.0004895003512501717
1761466979900829400,8.169829345703125,-0.0002726679085753858,0.0005632304237224162,0.0009476735722273588
1761466979910783200,8.179783203125,-0.0007491074502468109,-0.001025877776555717,-0.0010110815055668354
1761466979920737300,8.1897373046875,0.0011675896821543574,-0.0010078779887408018,0.00009308895096182823
1761466979930691300,8.19969140625,0.00035212974762544036,0.00027789617888629436,0.00040387967601418495
1761466979940644400,8.209644287109375,0.0004863198264501989,-0.0008897465304471552,-0.00047588604502379894
1761466979950598100,8.21959814453125,-0.00010357040446251631,-0.0005323502700775862,0.0010027008829638362
1761466979960552200,8.22955224609375,0.0008285875665023923,-0.00008985470049083233,0.0011555053060874343
1761466979970506200,8.23950634765625,-0.000710453256033361,0.00006594019941985607,-0.0008495887741446495
1761466979980460300,8.249460205078124,-0.0007080281502567232,0.0003468357026576996,-0.00001919618807733059
1761466979991036200,8.2600361328125,-0.0009064336773008108,-0.0005282791098579764,0.0005222244653850794
1761466980000990200,8.269990234375,0.002112258691340685,-0.0010428488021716475,-0.0009114863350987434
1761466980010944300,8.2799443359375,-0.0003823242732323706,-0.00036667223321273923,-0.00033065094612538815
1761466980020897000,8.28989697265625,0.0003168053808622062,-0.0011053488124161959,-0.00016821944154798985
1761466980030851000,8.29985107421875,0.0012094969861209393,-0.0020710108801722527,0.0008754732552915812
1761466980040805000,8.30980517578125,0.00040402577724307775,0.0009740912355482578,-0.0010516049806028605
1761466980050759400,8.319759521484375,0.00013238337123766541,-0.0013838715385645628,0.00036786007694900036
1761466980060713200,8.329713134765624,-0.00023788303951732814,-0.001288203289732337,-0.0003427821211516857
1761466980070667300,8.339667236328125,0.0005424231057986617,-0.001083139912225306,0.0005949167534708977
1761466980080620300,8.349620361328125,-0.000505072355736047,-0.0022989902645349503,-0.0008584379684180021
1761466980090574300,8.35957421875,-0.0006225177785381675,-0.0007586178835481405,0.001936017069965601
1761466980100528000,8.369528076171875,-0.0006017806590534747,-0.005455760285258293,0.0011120296549052
1761466980110482200,8.379482177734374,0.0007010377012193203,-0.0003566053928807378,0.0004797952715307474
1761466980120436200,8.389436279296875,-0.0005638747825287282,0.0034039653837680817,-0.0010420852340757847
1761466980130390300,8.399390380859375,-0.00015401429845951498,-0.000293301185593009,-0.0013267770409584045
1761466980140344000,8.409343994140626,-0.00022514513693749905,-0.0037773773074150085,0.0001920859795063734
1761466980150297000,8.419297119140625,-0.0005143643938936293,0.0011894182534888387,-0.0001914091408252716
1761466980160251100,8.429251220703126,0.0008176995906978846,-0.0007494635065086186,-0.0011499421671032906
1761466980170205200,8.439205078125,0.0003543096245266497,-0.0011899503879249096,0.00019974797032773495
1761466980180159000,8.449158935546874,-0.0009641387732699513,0.00032432342413812876,-0.0002312827855348587
1761466980190113300,8.45911328125,0.0007272347575053573,0.000060137826949357986,0.0007812511175870895
1761466980200067300,8.4690673828125,-0.0013112829765304923,-0.0020764428190886974,0.0007535775657743216
1761466980210020400,8.479020263671876,0.00024666625540703535,-0.00011715537402778864,-0.0005428493022918701
1761466980219974400,8.488974365234375,-0.00010267345351167023,-0.0010932302102446556,-0.0004855510778725147
1761466980229928200,8.49892822265625,0.00003767514135688543,-0.00205170176923275,0.0008319145999848843
1761466980239882200,8.50888232421875,-0.0015727975405752659,0.0011158653069287539,-0.00022580474615097046
1761466980249836300,8.518836181640625,0.0005228439113125205,-0.0009861676953732967,0.001399522414430976
1761466980259790000,8.5287900390625,-0.0005847655120305717,-0.0010268660262227058,0.0000062338076531887054
1761466980269743000,8.5387431640625,0.0010514806490391493,0.0002834092592820525,-0.00010908092372119427
1761466980279697200,8.548697265625,-0.0009504033951088786,-0.0006111067486926913,0.0010002589551731944
1761466980289651200,8.558651123046875,-0.002144831232726574,-0.0012710380833595991,-0.0006743366830050945
1761466980299605200,8.568605224609374,0.00044083670945838094,0.00005693273851647973,-0.0006001568399369717
1761466980309559000,8.57855908203125,0.0006858475389890373,-0.0008695809519849718,-0.00014156056568026543
1761466980319513300,8.588513427734375,-0.0006033681565895677,0.00033535389229655266,0.0002540373243391514
1761466980329466000,8.598466064453126,-0.0003988373791798949,0.0015140690375119448,0.0010449960827827454
1761466980339420400,8.60842041015625,-0.0017178668640553951,-0.0011977814137935638,-0.00006441865116357803
1761466980349374200,8.618374267578124,0.00035540404496714473,-0.0015932607930153608,0.0015941979363560677
1761466980359328300,8.628328369140625,0.0000874208053573966,-0.0013026375090703368,-0.00005878251977264881
1761466980369282300,8.6382822265625,0.00001311860978603363,-0.000021124433260411024,-0.000642014667391777
1761466980379236000,8.648236083984376,0.0003671168815344572,-0.002335033845156431,-0.0005607081111520529
1761466980389189000,8.658189208984375,-0.0004797683213837445,-0.0002921230625361204,-0.0009050546213984489
1761466980399143200,8.66814306640625,-0.0015311489114537835,-0.000521340174600482,-0.0004043553490191698
1761466980409097200,8.67809716796875,-0.0003721412504091859,-0.0005636845016852021,0.0006960628088563681
1761466980419051300,8.68805126953125,0.0012365725124254823,0.0007679489208385348,0.0002674784045666456
1761466980429005000,8.698005126953126,-4.6583591029047966e-7,-0.0007295465329661965,-0.0016337521374225616
1761466980438959000,8.707958984375,0.001588935498148203,-0.0005175097612664104,-0.00045696855522692204
1761466980448912100,8.717912109375,-0.0011977964313700795,0.00027850904734805226,0.0009209510171785951
1761466980458866200,8.7278662109375,-0.00007219560211524367,-0.0007021946366876364,-0.0009733340702950954
1761466980468820000,8.737820068359374,-0.0013744813622906804,-0.00019592774333432317,-0.00017491844482719898
1761466980478774300,8.747774169921875,-0.0003642232622951269,0.000265109702013433,-0.0007745679467916489
1761466980488728300,8.757728271484375,0.002235820982605219,0.0002315538004040718,-0.000346597982570529
1761466980498682400,8.767682373046876,-0.0008060025866143405,-0.001151939737610519,0.0012866538017988205
1761466980508635400,8.777635498046875,-0.0009239806095138192,0.00032238627318292856,-0.0006697042845189571
1761466980518589200,8.787589111328124,0.0011183207388967276,-0.00029574334621429443,0.00030862120911478996
1761466980528543200,8.797543212890625,0.0005558611010201275,0.0005229123635217547,0.000817551277577877
1761466980538497300,8.807497314453125,0.0011318036122247577,0.0009261697996407747,0.0005266554653644562
1761466980548451000,8.817451171875,-0.0014978016261011362,-0.000679449993185699,0.0000925601925700903
1761466980558405000,8.827405029296875,0.0001742053427733481,-0.00013740936992689967,0.0014750001719221473
1761466980568358100,8.837358154296876,0.0006903259200043976,0.0005038798553869128,0.0012917746789753437
1761466980578312200,8.847312255859375,0.0011484575225040317,0.0008122908766381443,-0.000636084470897913
1761466980588266200,8.857266357421874,0.0013860114850103855,-0.0005872002802789211,0.00167553941719234
1761466980598220000,8.867219970703125,-0.0006652709562331438,0.000857578357681632,0.0010625271825119853
1761466980608174300,8.87717431640625,-0.0006871088407933712,-0.0009685512632131577,-0.0008181971497833729
1761466980618128400,8.88712841796875,-0.0002681083569768816,-0.002095121657475829,0.0006911070086061954
1761466980628081400,8.897081298828125,0.0007321749581024051,-0.0008413054165430367,0.001243180246092379
1761466980638035200,8.90703515625,0.00001683109439909458,-0.0011883578263223171,-0.0006814496591687202
1761466980647989200,8.9169892578125,0.0008061920525506139,-0.0005060560069978237,0.0012642557267099619
1761466980657943300,8.926943359375,-0.0008558253757655621,-0.00009342085104435682,-0.0007801766041666269
1761466980667897300,8.9368974609375,0.0000017124693840742111,0.0003651754232123494,0.0009306380525231361
1761466980677851100,8.94685107421875,-0.00028229824965819716,-0.0007116345805115998,-0.0006814405787736177
1761466980687804200,8.95680419921875,-0.0004295710241422057,0.0004292635712772608,-0.000041482970118522644
1761466980697758200,8.96675830078125,-0.00028497292078100145,-0.00046731054317206144,-0.0004728361964225769
1761466980707712300,8.976712158203124,-0.00004182633711025119,0.000842964684125036,-0.000838754465803504
1761466980717666000,8.986666015625,0.00164057407528162,0.00021454266970977187,0.00030733062885701656
1761466980727620000,8.9966201171875,-0.0013648031745105982,-0.0008669669623486698,-0.00011904141865670681
1761466980737574100,9.00657421875,0.0005444663111120462,0.0002410179004073143,-0.0004758331924676895
1761466980747527200,9.016527099609375,0.0009218362392857671,0.0001334262196905911,-0.0006183122750371695
1761466980757481200,9.026481201171874,-0.0005886413273401558,-0.001233238959684968,-0.0009339239913970232
1761466980767435300,9.036435302734375,0.0003730261232703924,-0.001078509259968996,0.00012787850573658943
1761466980777389300,9.046389404296875,0.0010886529926210642,-0.0002751219435594976,0.0003650425933301449
1761466980787343400,9.05634326171875,-0.0004661005223169923,-0.0013134884648025036,-0.00195829919539392
1761466980797297200,9.066297119140625,-0.0008175299735739827,0.0011264355853199959,-0.00030322233214974403
1761466980807250200,9.076250244140626,-0.001615945715457201,-0.0002922302228398621,-0.0006129478570073843
1761466980817204200,9.086204345703125,-0.00024348063743673265,0.0011578260455280542,0.0011238431325182319
1761466980827158300,9.096158203125,-0.0013609430752694607,0.0007559549994766712,-0.0003550101537257433
1761466980837112000,9.106112060546875,-0.0017465079436078668,0.00015954754780977964,0.0006131206173449755
1761466980847066000,9.116066162109375,-0.001110545126721263,-0.0011669729137793183,-0.0005336366593837738
1761466980857020200,9.126020263671874,-0.00008357208571396768,0.0004749250947497785,-0.0011973204091191292
1761466980866973200,9.13597314453125,-0.0009890468791127205,-0.00004092924064025283,-0.0003629520069807768
1761466980876927200,9.14592724609375,0.00024520052829757333,-0.0000856046681292355,-0.0008126362226903439
1761466980886881000,9.155881103515625,0.001180768944323063,-0.0015285052359104156,0.0014547790633514524
1761466980896835300,9.16583544921875,0.0008807259146124125,-0.00028766499599441886,-0.00045884796418249607
1761466980906789400,9.175789306640626,0.00044982635881751776,-0.00025490811094641685,-0.0002753562293946743
1761466980916743700,9.18574365234375,0.001850867411121726,-0.0015777766238898039,-0.000605347566306591
1761466980926696700,9.19569677734375,0.0006063723703846335,0.000730385014321655,0.0012143903877586126
1761466980936650800,9.205650634765625,0.0003213500021956861,-0.0009002897422760725,-0.0007007992826402187
1761466980946604800,9.215604736328125,-0.00019530323334038258,0.0006720405071973801,-0.0006446065381169319
1761466980956558600,9.22555859375,0.000010751653462648392,-0.001868644030764699,0.001150026568211615
1761466980966512600,9.2355126953125,-0.00016554960166104138,-0.00024411577032878995,0.0010152705945074558
1761466980976466700,9.245466796875,0.0006011092918924987,-0.000025785586331039667,0.0003818573895841837
1761466980986419700,9.255419677734375,0.00018672144506126642,-0.0012407195754349232,0.0005046289879828691
1761466980996373800,9.265373779296874,0.00012948084622621536,0.0002761502400971949,0.0009172817226499319
1761466981006327600,9.27532763671875,-0.0006020895089022815,-0.0007515636389143765,0.0003561538178473711
1761466981016281600,9.285281494140625,-0.00026496322243474424,0.00009041914017871022,-0.00025317026302218437
1761466981026236000,9.29523583984375,-0.0019089325796812773,-0.00036870985059067607,0.0008323342772200704
1761466981036189700,9.305189697265625,-0.0019637716468423605,-0.000500367721542716,0.00004875217564404011
1761466981046142700,9.315142822265624,0.0004522482049651444,-0.00007585983257740736,0.0002522177528589964
1761466981056096800,9.3250966796875,-0.00034690764732658863,0.0010190350003540516,-0.00021986663341522217
1761466981066050800,9.33505078125,-0.0008113629883155227,-0.0007506355177611113,0.0007471272256225348
1761466981076004900,9.3450048828125,-0.00008435407653450966,-0.0005702201160602272,0.00017841067165136337
1761466981085958700,9.354958740234375,-0.0008356317994184792,-0.000036256329622119665,0.0004311446100473404
1761466981095912700,9.36491259765625,0.0013009675312787294,0.0003955115098506212,0.0004386857617646456
1761466981105865700,9.37486572265625,-0.00002235721331089735,0.0014112411299720407,-0.00032164668664336205
1761466981115819800,9.38481982421875,0.00029388919938355684,-0.0008419214864261448,-0.0006822219584137201
1761466981125773600,9.394773681640626,0.00008110259659588337,0.0012366757728159428,0.0005289835389703512
1761466981135727600,9.4047275390625,0.0005337009788490832,0.00042044674046337605,-0.00026019755750894547
1761466981145681700,9.414681640625,-0.00011903981794603169,0.00033815501956269145,0.000004254281520843506
1761466981155635700,9.4246357421875,0.001279870979487896,-0.00008505675941705704,0.0012878637062385678
1761466981165588700,9.434588623046874,0.00036427611485123634,0.00021082046441733837,0.0003584204241633415
1761466981175542500,9.44454248046875,-0.0014061499387025833,-0.0010181809775531292,-0.0006735075730830431
1761466981185496800,9.454496826171875,-0.00017204112373292446,0.0011520290281623602,0.00038430001586675644
1761466981195451000,9.464450927734376,-0.0005394634208641946,0.0003312758053652942,-0.00032704020850360394
1761466981205404700,9.47440478515625,0.0012440555728971958,0.0002298093750141561,0.0006665852852165699
1761466981215358700,9.484358642578124,0.0008381676743738353,0.0002678179298527539,-0.0013234892394393682
1761466981225311700,9.494311767578125,0.0012680019717663527,-0.0006672178860753775,0.0002038334496319294
1761466981235265800,9.504265869140625,0.00007307069608941674,-0.00003225269028916955,-0.0009594194125384092
1761466981245219600,9.514219482421876,-0.0003375887172296643,-0.0005560964345932007,-0.0006177357863634825
1761466981255173600,9.524173583984375,0.0004275235114619136,0.0009151286212727427,0.00011902791447937489
1761466981265127700,9.534127685546874,-0.0002742194337770343,0.000216847809497267,0.000010903691872954369
1761466981275081700,9.544081787109375,-0.0002820530207827687,0.00014850363368168473,0.0018050889484584332
1761466981285034800,9.55403466796875,0.0004425931256264448,-0.00023392628645524383,0.0008932226337492466
1761466981294988500,9.563988525390625,-0.0007860796176828444,0.0005392491002567112,0.0002531798090785742
1761466981304942600,9.573942626953125,0.00033591012470424175,-0.0010061833309009671,-0.0005561548750847578
1761466981314897000,9.58389697265625,0.000609858485404402,0.0008288235403597355,-0.0004282379522919655
1761466981324850700,9.5938505859375,0.001457009930163622,-0.00031633576145395637,-0.00011904491111636162
1761466981334804700,9.6038046875,-0.00028223387198522687,0.0008087452733889222,0.0010260757990181446
1761466981344757800,9.6137578125,0.00003175280289724469,-0.000135079026222229,-0.00011881720274686813
1761466981354711800,9.6237119140625,-0.0011873231269419193,0.0000038018333725631237,-0.0003102014306932688
1761466981364665900,9.633665771484376,0.0003216239274479449,-0.00012908989447169006,-0.0009102115873247385
1761466981374619600,9.64361962890625,-0.00044815894216299057,0.0010503374505788088,-0.0013747336342930794
1761466981384573700,9.65357373046875,0.0007310888031497598,0.00022768712369725108,0.0005267632659524679
1761466981394527700,9.66352783203125,-0.000683191348798573,0.0025735029485076666,0.0006299125961959362
1761466981404480800,9.673480712890624,0.0014212384121492505,0.0015588386449962854,0.00208160188049078
1761466981414434600,9.6834345703125,-0.00011957605602219701,0.00044433941366150975,-0.0006580196786671877
1761466981424388600,9.693388671875,0.0005193162360228598,-0.0009820496197789907,0.00004958221688866615
1761466981434342700,9.7033427734375,0.0010375427082180977,-0.0007324267062358558,-0.0013173718471080065
1761466981444296700,9.713296630859375,-0.00000748166348785162,-0.0003009946085512638,0.00010662036947906017
1761466981454249700,9.723249755859374,0.00006513478001579642,-0.00035964083508588374,-0.001714817713946104
1761466981464203500,9.73320361328125,-0.000584676512517035,-0.000552187382709235,-0.0006143993232399225
1761466981474157800,9.74315771484375,0.0006005206960253417,-0.0002641422615852207,-0.0014748978428542614
1761466981484112000,9.75311181640625,-0.00006606848910450935,-0.00031154652242548764,-0.0000013709068298339844
