time,seconds_elapsed,z,y,x
1761508329480628000,0.1106279296875,0.02348667404949665,-0.0025469628027640283,0.01033094947617501
1761508329490600200,0.12060009765625,0.024834581527113913,0.001175857112649828,-0.0012514704989735035
1761508329500571100,0.130571044921875,0.03142097418010235,0.004491283537261187,-0.00017927469019778073
1761508329510543000,0.140543212890625,0.029179917255043982,0.0009666896076872944,0.00253526323181577
1761508329520514000,0.15051416015625,0.010476385828852653,0.00010274798842146993,-0.0002688709361013025
1761508329530485200,0.1604853515625,0.02065291192829609,0.0020252222172915933,0.003390829748380929
1761508329540457000,0.17045703125,0.023798808738589285,-0.0008983553455211221,0.004491575798206031
1761508329550428200,0.18042822265625,0.029485622203350065,-0.00018638941757380962,0.0002481478084810078
1761508329560399000,0.190399169921875,0.02694353650510311,-0.007087583640776574,-0.0024024214992299673
1761508329570371000,0.20037109375,0.020658172625303266,0.0015707199154421686,-0.000245590525213629
1761508329580342000,0.210342041015625,0.024995909568667412,-0.005314655684120953,0.009008907092176378
1761508329590314200,0.220314208984375,0.017509937727451325,0.0001438471837900579,-0.0070368398342281575
1761508329600285000,0.230284912109375,0.029926936230063438,0.0037258886553347107,-0.005686347673879936
1761508329610256000,0.240255859375,0.03920271409749985,-0.00430524117955938,-0.0005350201921537518
1761508329620228000,0.25022802734375,0.019148937106132507,-0.0020119974095374345,0.0010304938252083957
1761508329630199000,0.260198974609375,0.02393792494833469,0.0015296755190007387,-0.0013271660836879163
1761508329640170000,0.270169921875,0.019299743753671644,-0.0033863910352811217,0.0008540138802956789
1761508329650142000,0.280141845703125,0.017082067704200742,-0.007256053809169679,-0.0019078794479370116
1761508329660113200,0.290113037109375,0.01693009201288223,0.00876075928369537,-0.010510178500600159
1761508329670084000,0.300083984375,0.021524434065818786,0.0028952647837810217,-0.002044776301132515
1761508329680056000,0.31005615234375,0.020026888984441757,-0.0035263292289339004,0.0034140827598050233
1761508329690027000,0.320027099609375,0.02300385896861553,0.0016816146777011453,0.003834280933253467
1761508329699999000,0.3299990234375,0.014771452674269676,0.0015987769661471246,0.0030303076066076754
1761508329709970000,0.339969970703125,0.014327216038107871,-0.0043011129937134684,0.007874112642277031
1761508329719941000,0.349941162109375,0.019860884767770766,0.00164120960207656,0.010996162786101922
1761508329729913000,0.3599130859375,0.01595686306655407,0.0034166400430724023,0.012446224597096442
1761508329739884000,0.369884033203125,0.017013678643107412,0.003314476576540619,0.008242827223660425
1761508329749855000,0.37985498046875,0.02659633050262928,-0.000405694724060595,0.009122286072466523
1761508329759827200,0.3898271484375,0.02809504462778568,0.0005280607284046709,-0.00011969912322238087
1761508329769798100,0.399798095703125,0.025258359897136685,0.0047384814976714545,0.0021821480783633888
1761508329779770000,0.40977001953125,0.023318331745266912,-0.0020637823957018555,0.0004177870206534862
1761508329789741000,0.419740966796875,0.019576807129383086,0.0000611921353265643,-0.0009464962030295282
1761508329799712000,0.4297119140625,0.017042904737591742,-0.0006305347221903503,0.005123069501621649
1761508329809684000,0.43968408203125,0.024084639942646025,-0.0008689100553281604,-0.0013518164677545428
1761508329819655000,0.449655029296875,0.011220482194423675,-0.004340294226631522,-0.0010614734853617847
1761508329829627100,0.459627197265625,0.021849428236484527,0.0024154088449664414,0.0006912793329451232
1761508329839597800,0.469597900390625,0.019900632256269455,0.002534066788572818,-0.004273914459533989
1761508329849569000,0.479569091796875,0.02035305219888687,0.0030553141837008297,-0.0034291707310825583
1761508329859541000,0.489541015625,0.02184709014892578,-0.0038101511389948424,-0.004320109955128282
1761508329869512200,0.49951220703125,0.023489012137055395,0.0006896627645939589,-0.005480815164418891
1761508329879483000,0.50948291015625,0.021245617124438284,0.002647792828734964,0.003410447764303535
1761508329889455000,0.519455078125,0.03231646171510219,-0.004737129790801555,0.005870764330076053
1761508329899426000,0.529426025390625,0.020793781703710556,-0.004867112846020608,-0.002647509700944647
1761508329909398000,0.53939794921875,0.02109597952067852,-0.00636244770400226,0.0006213924345094711
1761508329919369000,0.549368896484375,0.021093641433119772,-0.005015745802782475,-0.007754888443090021
1761508329929340200,0.559340087890625,0.026180735439062117,-0.012389489441178738,-0.0006205430511385202
1761508329939311900,0.569311767578125,0.01824117461144924,0.0034108496231026945,-0.006784417709428817
1761508329949283000,0.579282958984375,0.012250994285941123,-0.003537015019729733,-0.0004772164571564644
1761508329959254000,0.58925390625,0.01569967343509197,0.0030525742373429237,0.003440888568339869
1761508329969226200,0.599226318359375,0.022730887246131894,0.0007373378312215209,0.004294537122454494
1761508329979197000,0.609197021484375,0.0168880064368248,-0.0029875279108062384,0.004244368704641238
1761508329989169200,0.619169189453125,0.01389116270840168,0.0006691862321458757,0.0048055553845129904
1761508329999140000,0.62914013671875,0.018524667727947235,0.00021954276850447057,-0.004474368935078382
1761508330009111000,0.639111083984375,0.02899520833790302,0.0013697905158624052,0.006356629884568974
1761508330019083000,0.6490830078125,0.016128127980232238,0.001951992584299296,-0.0009806450678035616
1761508330029054000,0.659053955078125,0.01762333497405052,0.0014836992191150783,-0.004388161089504137
1761508330039025200,0.669025146484375,0.015976152288913727,-0.0049306796015240245,-0.003280565173784271
1761508330048996900,0.678996826171875,0.02540682845711708,0.0053657830831594765,-0.0020229023960419
1761508330058968000,0.688968017578125,0.024510171878337858,0.007534742886386812,-0.0028760851592756808
1761508330068940000,0.69893994140625,0.021966332614421845,-0.0012361541988328098,0.006020611996389925
1761508330078911000,0.708910888671875,0.023159341791272162,0.0013903583798557518,0.00021135032889433203
1761508330088882000,0.7188818359375,0.020917115822434423,0.00669816419808194,0.002986377133335918
1761508330098854100,0.728854248046875,0.018071663263440133,0.0036868535528890786,-0.004739056886406615
1761508330108825000,0.7388251953125,0.016727262917160986,0.0031712139146402476,0.001385937933064997
1761508330118797000,0.748797119140625,0.019420739784836768,0.006953874258510768,0.0019434439516626298
1761508330128768000,0.75876806640625,0.01598550463914871,-0.003244553145486861,0.003829084168327972
1761508330138739200,0.7687392578125,0.015241992795467375,-0.0004958572255447507,0.0010059256395325063
1761508330148711000,0.7787109375,0.020929390782117842,-0.0009362944694235921,-0.003707987672463059
1761508330158682000,0.78868212890625,0.013296119424700737,-0.0031802740039303897,-0.0008924096619244665
1761508330168653000,0.798653076171875,0.013902268624305724,-0.007920728262979538,-0.0009249145588837563
1761508330178625000,0.808625,0.010312135177850722,-0.001423803991731256,0.006310352190583944
1761508330188596200,0.81859619140625,0.007466098096966743,-0.004694277029763907,-0.008626501912157983
1761508330198568200,0.828568115234375,0.019884850165247915,-0.0029007264101877806,0.001648634856706485
1761508330208539100,0.8385390625,0.019881927555799483,-0.005822568673640489,0.0008435290188994258
1761508330218510000,0.848510009765625,0.017485387808084486,-0.0003575264670886099,-0.0012318250835873187
1761508330228482300,0.858482421875,0.017630933758616445,-0.0016835691727697848,0.0010638481055386365
1761508330238453200,0.868453369140625,0.02346095508635044,0.007851791212614626,0.0006407547221053392
1761508330248424000,0.878423828125,0.01866904463469982,0.008084394392091781,0.004507412688154727
1761508330258396200,0.888396240234375,0.02061199539601803,-0.0028148016924038526,-0.0006630304859951138
1761508330268367000,0.8983671875,0.022253332862257957,0.0003758475750684738,0.00790829803966917
1761508330278339000,0.908339111328125,0.021954057654738426,0.0024856245369650424,-0.0016918894765432923
1761508330288310000,0.91831005859375,0.02210018812716007,-0.00041743996078148483,0.0020007636294700204
1761508330298281200,0.92828125,0.027035306441783903,-0.0016910583594813941,0.007190550824906676
1761508330308253000,0.9382529296875,0.014169395127892493,0.006373955478705466,-0.005714788317074999
1761508330318224100,0.94822412109375,0.006837737065553665,0.0006821735778823494,-0.00007224325230345129
1761508330328196000,0.958196044921875,0.013425883284211158,0.0015856982888653873,-0.003716472373018041
1761508330338167300,0.968167236328125,0.022549685460329056,-0.0017026574657298624,0.0054830345209687945
1761508330348138000,0.978137939453125,0.016561843222379684,0.0023048976751975712,0.005893597216391935
1761508330358110200,0.988110107421875,0.018808160844445226,0.0011260631541721523,0.002245331241376698
1761508330368081200,0.9980810546875,0.016566519397497176,0.007966193106211722,-0.002784242157358676
1761508330378052400,1.00805224609375,0.02704115166068077,0.003587247369624674,0.001623345151823014
1761508330388024000,1.018024169921875,0.021953473132848737,-0.00038295316928997636,0.002953607374895364
1761508330397995300,1.027995361328125,0.022705168282985685,0.00005700915055349469,0.008919164715800433
1761508330407967000,1.037967041015625,0.016720248654484748,0.0028525398869067428,0.006407592886826023
1761508330417938200,1.047938232421875,0.01387888774871826,0.0047200873244553805,-0.0031746753802057355
1761508330427909000,1.0579091796875,0.019116788402199745,0.0036871640801429744,-0.0053672991868108505
1761508330437881300,1.06788134765625,0.017922025659680367,0.007465440509840846,0.00211816119775176
1761508330447852000,1.07785205078125,0.02481295421719551,-0.003225684048235416,0.0009354450860526412
1761508330457823200,1.0878232421875,0.007456161224842071,0.004886219405289739,0.004258452028920874
1761508330467795200,1.097795166015625,0.021669980016350746,0.005253755809739232,0.011305383998900652
1761508330477766400,1.107766357421875,0.018079846569895742,0.00242505345614627,0.006559166719345376
1761508330487738000,1.117738037109375,0.01194528933763504,0.0018087299223989246,0.0023709760481957346
1761508330497709300,1.127709228515625,0.02301730297207832,-0.0050519678936339915,0.006009113354841247
1761508330507680300,1.13768017578125,0.020019874721765515,-0.0022814437343738974,0.005179649393912404
1761508330517652200,1.14765234375,0.019573299998044965,0.0021003515464253723,0.0014198767352849243
1761508330527623200,1.157623046875,0.012087912678718567,-0.0010304572925902904,0.0006881009951699525
1761508330537595400,1.167595458984375,0.010891980892419814,0.005089121566247194,-0.0007122581888921558
1761508330547566000,1.177566162109375,0.02196224096119404,-0.001962495712004602,-0.001171993788285181
1761508330557537000,1.187537109375,0.024206220495700835,-0.0007757884117774665,-0.00992741930973716
1761508330567509200,1.19750927734375,0.011492284873127936,-0.0026364129181951283,0.006020785526325925
1761508330577480200,1.207480224609375,0.014036124137043951,0.009020323535334319,0.0018071681529749184
1761508330587452200,1.2174521484375,0.01568272230029106,-0.002926774166896939,0.006065629315050319
1761508330597423000,1.227423095703125,0.019274024790525434,-0.0023510749044828114,-0.0015576503713149576
1761508330607394300,1.237394287109375,0.023466800305247306,-0.0016657595214433967,-0.004358094744803384
1761508330617366000,1.247365966796875,0.014043722921609878,-0.0036325295497663316,0.005365025031333789
1761508330627337200,1.257337158203125,0.01539163039922714,0.0027155060363933444,0.0035763606494292615
1761508330637308200,1.26730810546875,0.018233575826883314,-0.0011754004549235104,0.007395855005504563
1761508330647280000,1.277280029296875,0.016886837393045424,-0.0008487988490611314,0.0052967090354766695
1761508330657251000,1.2872509765625,0.01943067665696144,-0.007602583958208561,0.005463224708801135
1761508330667223300,1.297223388671875,0.02466916183233261,0.0036157793443650004,0.011205284625291823
1761508330677194200,1.3071943359375,0.021527356675267218,-0.006909980317857116,0.00705093229166232
1761508330687165200,1.317165283203125,0.01658814670741558,-0.0003614537235349417,0.004669014724344014
1761508330697137200,1.32713720703125,0.015542437046766281,-0.0015939363942481576,0.00381982314963825
1761508330707108400,1.3371083984375,0.023171032229065892,0.0006884571881964803,0.001974350546579808
1761508330717080000,1.347080078125,0.024817045870423316,-0.0011764051019214094,0.00244628804042004
1761508330727051300,1.35705126953125,0.019431261178851127,0.0006983392613939941,-0.004564768898580223
1761508330737022200,1.367022216796875,0.020626023921370504,0.005544847710803151,-0.0031527649424970146
1761508330746994200,1.376994140625,0.021378303593397138,-0.00013412950737401843,0.0029090467139612883
1761508330756965000,1.386965087890625,0.018386136040091514,0.0018951660968363284,0.007089328073291107
1761508330766936000,1.39693603515625,0.020783260309696197,-0.0003797017662785947,-0.001418543294724077
1761508330776908000,1.406907958984375,0.026620880421996115,0.0015203414350748062,-0.002524778370419517
1761508330786879000,1.41687890625,0.024376900887489318,0.006459313940908759,-0.005738077861117199
1761508330796851200,1.426851318359375,0.018692425510287283,0.002952529662661254,-0.00486317645641975
1761508330806822100,1.436822265625,0.021985037314891813,0.0004928980834782124,0.0007427081260830163
1761508330816793000,1.44679296875,0.018541034340858457,0.004440010007750243,0.002597989737102762
1761508330826765000,1.45676513671875,0.01539864466190338,-0.004383201786596328,-0.0018844072408042848
1761508330836736300,1.466736328125,0.011060323196649551,-0.00047236675210297104,-0.002888670646212995
1761508330846708000,1.4767080078125,0.02153378641605377,0.0030113654441200196,-0.0019628427718766032
1761508330856679200,1.48667919921875,0.02392623451054096,0.004810085429158061,0.003994914855062961
1761508330866650000,1.496650146484375,0.018243512699007987,0.004555489613581449,-0.004261694298777729
1761508330876622000,1.5066220703125,0.019144260931015015,-0.005811298360954969,0.0035661406495142724
1761508330886593000,1.516593017578125,0.01840074908733368,0.0005517338649369776,0.0015769304605200887
1761508330896564200,1.526564208984375,0.023787118300795555,0.010933171419333665,0.000029911081073805688
1761508330906536200,1.5365361328125,0.02019698485434055,0.00021371581591665743,0.002188650884386152
1761508330916507100,1.546507080078125,0.019299743753671644,0.004666530506312847,0.0035335444210097193
1761508330926479000,1.55647900390625,0.013765490502119063,-0.000023527006059885023,-0.00925881759948097
1761508330936450300,1.5664501953125,0.020050854381918906,0.0014761734997853636,-0.006344446256430819
1761508330946421200,1.576421142578125,0.010323825615644454,-0.003744392426405102,0.0017721059727482497
1761508330956393200,1.586393310546875,0.020492752930521965,-0.00006753054456785321,-0.0030514325930271298
1761508330966364200,1.5963642578125,0.014960253244638443,-0.0063809880076907575,-0.0015791680833790451
1761508330976336100,1.606336181640625,0.009275193345546722,-0.007341339206136763,0.002775565660558641
1761508330986307000,1.61630712890625,0.021990298011898994,0.0059035797542892395,0.0036901688879821446
1761508330996278000,1.626278076171875,0.01495382350385189,0.0026762517382390794,-0.0018650266868993639
1761508331006250200,1.636250244140625,0.021685762107372282,0.002375880552176386,-0.0029188557219225913
1761508331016221000,1.646220947265625,0.020338439151644707,0.0016492833106778561,-0.0015793142138514668
1761508331026192100,1.656192138671875,0.014052490749955177,0.0026503866446204484,0.004035100734978914
1761508331036164000,1.6661640625,0.019590835654735565,-0.0022399974791333078,0.005427660205075517
1761508331046135300,1.67613525390625,0.017646131327748296,0.008163505776599049,0.0005538801562506705
1761508331056107300,1.686107177734375,0.02168400854170322,0.00391646105768159,0.0014566011496353894
1761508331066078200,1.696078125,0.019443536138534546,0.000612177081592381,-0.007272557419398799
1761508331076049200,1.706049072265625,0.026179566395282745,-0.0013785218115895987,-0.001213513108761981
1761508331086021000,1.716021240234375,0.015406827968358993,-0.0012990633672103286,-0.000749868519231677
1761508331095992000,1.725991943359375,0.018245266264677047,-0.0038604748204350467,-0.0007750942920334636
1761508331105963300,1.73596337890625,0.008370937982201575,0.007165178921632469,-0.010112438754132017
1761508331115935000,1.74593505859375,0.017049334478378295,0.001969016784336418,-0.0034072511602193114
1761508331125906200,1.75590625,0.016752981880307195,0.0054696635827422135,0.0007282594756223261
1761508331135878100,1.765878173828125,0.018996961414813995,-0.0019581117978319526,0.002620649093482643
1761508331145849300,1.775849365234375,0.018398410999774933,-0.006020027474500238,-0.0024355565838515758
1761508331155820000,1.785820068359375,0.012562544453144073,0.005839885134622454,0.0030493319674860684
1761508331165792300,1.795792236328125,0.014207389050722122,0.0032308168810792266,-0.0028193591365125027
1761508331175763200,1.80576318359375,0.024979542955756186,0.0003531608192250132,-0.0037589780741836875
1761508331185735000,1.81573486328125,0.013907529321312903,-0.00018987828260287642,0.0016980908884666858
1761508331195706000,1.8257060546875,0.014211480703949928,0.004719776797201484,0.001008090197155252
1761508331205677000,1.835677001953125,0.016306991678476334,0.00849260986680165,0.0031700448708608746
1761508331215649000,1.84564892578125,0.022439795345067976,-0.010453333746828138,0.004600141606060788
1761508331225620000,1.855619873046875,0.024833412483334538,-0.006047700932715088,0.0024562523120082915
1761508331235591000,1.8655908203125,0.012562544453144073,0.004032360788621008,0.005543952661659568
1761508331245563100,1.875563232421875,0.021093056911230087,0.006053326955903321,0.001496211640816182
1761508331255533800,1.885533935546875,0.020941081219911575,0.006277545899525285,0.004218485344713554
1761508331265506000,1.895506103515625,0.020789105528593064,-0.004064071101136505,-0.009954937504325061
1761508331275477000,1.90547705078125,0.015856325301527977,0.0029172574198804793,-0.006117925757868215
1761508331285448200,1.9154482421875,0.016308160722255705,0.0001819141718558967,0.004047786686616018
1761508331295420000,1.925419921875,0.013761983370780944,-0.006874890738166869,0.0029729787956457583
1761508331305391000,1.93539111328125,0.023788871866464615,-0.0022552315808832646,0.0015625914079137146
1761508331315362800,1.94536279296875,0.020647066709399222,0.002613342569861561,0.0007587642117403448
1761508331325334000,1.955333984375,0.012562544453144073,0.0015071348936296998,0.004794102408736944
1761508331335305000,1.965304931640625,0.017653145590424538,-0.00024034809451550245,-0.004562293813703581
1761508331345277200,1.975277099609375,0.020044424641132354,-0.003477320721745491,-0.0023363705256953834
1761508331355247900,1.985247802734375,0.01884557024538517,-0.006281527954898774,-0.007070276312949136
1761508331365219000,1.995218994140625,0.01480477042198181,-0.0031458968102931976,0.0019158526918385177
1761508331375191000,2.00519091796875,0.01795066723227501,-0.0018092413790524004,0.011261024267366155
1761508331385162200,2.015162353515625,0.018698855251073836,-0.002471358549594879,-0.0021819288826547562
1761508331395134000,2.025134033203125,0.023186229798197743,0.0043454087931662794,-0.0020295421993825583
1761508331405105200,2.035105224609375,0.014952654460072516,-0.0020003252380527553,0.001512550854263827
1761508331415076000,2.045076171875,0.015551789397001265,-0.005149802244920283,-0.002539455349743366
1761508331425048000,2.055048095703125,0.016302900025248528,-0.0022546105263754725,-0.0008004570621531457
1761508331435019000,2.06501904296875,0.020042086553573608,-0.0009244031022302806,0.003510035681258887
1761508331444991200,2.0749912109375,0.019892448949813842,-0.001875201021041721,0.0012116864778567104
1761508331454962000,2.0849619140625,0.02049158388674259,-0.004087214514706283,-0.0012667959322687238
1761508331464933000,2.09493310546875,0.01914835258424282,-0.002444708004686981,0.0028698380815796553
1761508331474905000,2.104905029296875,0.014064181187748909,-0.008361877892911434,0.005373025674698874
1761508331484876000,2.1148759765625,0.012868249401450156,-0.002449932169076055,0.008250754801789299
1761508331494847000,2.124846923828125,0.021546645897626875,0.003734638217370957,0.00490532596455887
1761508331504819200,2.134819091796875,0.016910802790522574,-0.0021654344055801627,-0.000262258532224223
1761508331514790100,2.1447900390625,0.009728782331943511,-0.006462474012374877,-0.006500805861921981
1761508331524762000,2.15476220703125,0.018258125746250152,0.0005457242492586374,-0.000775852343859151
1761508331534733000,2.164733154296875,0.01915536684691906,-0.0002151953869499266,-0.0028182540248148143
1761508331544704000,2.1747041015625,0.02783376334309578,-0.009502298365999013,-0.0032313374708872284
1761508331554676000,2.184676025390625,0.014367548048496246,0.000280479175504297,0.0021456519928760827
1761508331564647000,2.19464697265625,0.01960369513630867,-0.00996573289297521,0.007946757753379642
1761508331574619100,2.204619140625,0.0112280809789896,-0.008201682362519204,-0.002682699745334685
1761508331584590000,2.214590087890625,0.014818798947334288,0.0019796477762050926,0.00467485994324088
1761508331594561000,2.22456103515625,0.010479308438301086,-0.001742971209809184,-0.0013291571113746613
1761508331604533000,2.234532958984375,0.0073369187593460075,0.0016567542310804127,0.00605666055730544
1761508331614504200,2.244504150390625,0.01661386567056179,-0.0026582046248950063,0.006822292901249602
1761508331624475000,2.254474853515625,0.018255787658691406,-0.0030356779014691707,-0.0001891019644681364
1761508331634447000,2.264447021484375,0.021851766324043273,-0.0005032368144020437,0.002263962876610458
1761508331644418000,2.27441796875,0.0167658413618803,0.004567600176483393,-0.0025514471816364672
1761508331654390000,2.28439013671875,0.009135492613911628,-0.0033782077288255093,-0.0029212486084084954
1761508331664361000,2.29436083984375,0.02245440839231014,0.0027156886994838714,-0.0032187063181772827
1761508331674332200,2.304332275390625,0.015868015739321707,-0.0007074906822293997,-0.0032463706432376057
1761508331684304000,2.314303955078125,0.026792729857563972,-0.0014091726781800388,-0.0021976744410581884
1761508331694275000,2.324275146484375,0.02380173134803772,-0.0006780271257273852,-0.0033460224922746418
1761508331704247000,2.3342470703125,0.021406945165991783,-0.00016183949820697307,0.006464446773752569
1761508331714218200,2.34421826171875,0.008833879318833351,-0.00015822276901453732,0.00441282060672529
1761508331724189000,2.35418896484375,0.01811316431760788,0.0013139869417063891,0.004898558297054842
1761508331734161200,2.3641611328125,0.021406360644102094,0.0021717180158942937,-0.001093832251848653
1761508331744132000,2.374132080078125,0.015718378135561942,0.0061545953732915215,-0.006178387240832671
1761508331754103000,2.38410302734375,0.01646481258869171,0.005427212680503725,0.0036259810779709365
1761508331764075000,2.394074951171875,0.013021978658437728,-0.0020104995721951127,-0.0023359869332052765
1761508331774046000,2.4040458984375,0.01885901424884796,0.0001843983898870647,0.0033480865851975975
1761508331784018000,2.414017822265625,0.013024316745996474,-0.0016353095842525363,-0.0019326028972398489
1761508331793988900,2.42398876953125,0.01931084966957569,-0.004534227629844099,0.003997170744230971
1761508331803960000,2.4339599609375,0.02395195347368717,-0.0008653298587538302,0.00004131839107722044
1761508331813932000,2.44393212890625,0.01661912636756897,0.0012750249044969678,-0.004907271326472983
1761508331823903000,2.453903076171875,0.014076456147432326,0.002412815029080957,0.005279200778249651
1761508331833875000,2.463875,0.016771686580777167,-0.003009849340468645,-0.0012582929654046892
1761508331843846100,2.47384619140625,0.011382394757866858,-0.003293178060185164,0.004746701336745172
1761508331853817000,2.483817138671875,0.015572247663140295,-0.0013575886214151978,-0.004368917532917112
1761508331863789000,2.4937890625,0.02171031202673912,0.004867752166837454,-0.0003050564943347126
1761508331873760000,2.503760009765625,0.02006371386349201,0.001458765707258135,0.000872700314456597
1761508331883731200,2.513731201171875,0.015278817674517631,-0.00410129783898592,0.0018025102441664785
1761508331893703000,2.523702880859375,0.012287819164991378,-0.0012184358790516853,-0.0011604494809638708
1761508331903674000,2.533674072265625,0.019773791006207464,-0.0050934872141107914,0.005909543704194948
1761508331913646000,2.54364599609375,0.022471359527111053,-0.007765829962212592,-0.006015177769446745
1761508331923617000,2.553616943359375,0.021873393633961676,-0.002470189505815506,-0.0004190108633600175
1761508331933588000,2.563587890625,0.021124621093273163,-0.003526036967989057,-0.005172160207200795
1761508331943560200,2.573560302734375,0.027412323060631752,-0.004857340370677411,-0.007568617756525054
1761508331953531100,2.58353125,0.02158171721100807,-0.001579268548078835,0.0015798713362775742
1761508331963501800,2.593501708984375,0.015150222858786581,0.007886332803033292,0.0003157970840577036
1761508331973474000,2.60347412109375,0.01799333733022213,-0.0016870032388716935,-0.002966996579430997
1761508331983445000,2.613445068359375,0.019039631512761116,-0.006861245805304497,-0.007017833739658817
1761508331993417000,2.6234169921875,0.023828034833073615,-0.005044095114432275,-0.0052425676954444495
1761508332003388000,2.633387939453125,0.017394202393293378,-0.0017260383413173258,0.0024654950643889606
1761508332013359000,2.643359130859375,0.010360065972805022,-0.005116667160298675,0.008453209438174963
1761508332023330800,2.653330810546875,0.005869184294342994,0.000973484674654901,-0.0010228219754062592
1761508332033302000,2.663302001953125,0.027870003700256347,-0.0013074476030655205,0.005258358919620514
1761508332043274000,2.67327392578125,0.031166707158088683,-0.006130319448560476,-0.0036411786471027877
1761508332053245200,2.6832451171875,0.016953472888469694,-0.00046131563512608406,-0.008716801410960033
1761508332063215900,2.6932158203125,0.011120528951287269,-0.0036879312651231884,0.006786006878316402
1761508332073188000,2.70318798828125,0.019948563051223753,-0.01014921796740964,-0.0016734770370181648
1761508332083159000,2.713158935546875,0.012164485046267508,-0.004812350451480597,-0.0027999694494530557
1761508332093131000,2.723131103515625,0.02054652894437313,0.0036720943751744925,0.00397155224578455
1761508332103102000,2.73310205078125,0.029825813943147657,0.003286291661672294,0.0066532199446577575
1761508332113073200,2.7430732421875,0.02369184123277664,0.0004468669846653938,0.000303229863429442
1761508332123044900,2.753044921875,0.023687165057659148,-0.003459858130291104,-0.002869518421171233
1761508332133016000,2.76301611328125,0.021740707165002822,-0.004243555853888392,-0.007874158308049663
1761508332142987000,2.772987060546875,0.018151158240437507,0.0017117906202562152,-0.0025763715603388843
1761508332152959200,2.782959228515625,0.02129062530994415,-0.0011249306430108845,-0.0038168274749536065
1761508332162930000,2.792929931640625,0.02638005740344524,-0.003966054086759686,-0.0016750114069785922
1761508332172902100,2.802902099609375,0.027280221113562583,-0.0020783406440168617,-0.0059412083509378134
1761508332182873000,2.812873046875,0.018155249893665314,-0.0069128481283783905,-0.001440079273097217
1761508332192844000,2.822843994140625,0.01755845304429531,-0.005117014220170676,-0.0012658095515798776
1761508332202816000,2.83281591796875,0.01606090796291828,0.004591273313015699,-0.00788125476911664
1761508332212787000,2.842786865234375,0.014264672195911406,0.0014733970208093523,-0.002191062037181109
1761508332222759000,2.852759033203125,0.02518763274848461,-0.0023604455210268498,0.009707328551961108
1761508332232729900,2.862729736328125,0.019201544076204297,-0.007702336271945387,0.0014810323379933832
1761508332242700800,2.87270068359375,0.02443827568590641,-0.0036000703185796734,-0.0062275510116480285
1761508332252673000,2.882673095703125,0.018451017969846724,-0.0035489794521592556,-0.00017955781798809767
1761508332262643700,2.892643798828125,0.014713585007190704,-0.0109391445023939,0.003268098417855799
1761508332272615000,2.902614990234375,0.015015782824158668,-0.003603595716226846,-0.002279653636086732
1761508332282587000,2.9125869140625,0.02324526650905609,-0.005278104799706488,0.002160310705890879
1761508332292558000,2.92255810546875,0.019946809485554693,-0.007510887086763978,-0.0003479731874540448
1761508332302529800,2.93252978515625,0.02039572229683399,-0.0010258541827090084,-0.0068289327045902605
1761508332312501000,2.9425009765625,0.012166238611936568,-0.005403338614571839,0.001102581813884899
1761508332322472000,2.952471923828125,0.016502221989631652,-0.0006544818533584475,-0.002688992488803342
1761508332332444000,2.96244384765625,0.022336334970593452,0.0009961896968074143,-0.0006263426042627543
1761508332342414800,2.972414794921875,0.022333412361145017,-0.0023841551901772617,-0.002219109954731539
1761508332352386000,2.982385986328125,0.02951367925405502,0.005302307659201324,0.0006247077696025371
1761508332362357800,2.992357666015625,0.017840192595124243,-0.0023308906329795715,0.002763354632956907
1761508332372329000,3.002328857421875,0.01828910540640354,-0.004423826057929545,0.00008822627272456885
1761508332382301000,3.012301025390625,0.019335984110832212,-0.0018908552478998897,-0.0013492135187145322
1761508332392272000,3.02227197265625,0.020682722544670105,-0.0007710209051147103,0.0013940938400570303
1761508332402242800,3.032242919921875,0.028614684587717053,-0.004219243396539241,-0.012600821503764018
1761508332412215000,3.042215087890625,0.01933306150138378,0.003535316252987832,0.0033410723225213586
1761508332422186000,3.05218603515625,0.010350713622570036,-0.0035629714448936283,-0.0008942271596752107
1761508332432158000,3.062157958984375,0.01424187584221363,-0.001958257928304374,-0.001010601814649999
1761508332442129000,3.07212890625,0.020675708281993863,-0.00434568278780207,-0.0057976442949380725
1761508332452099800,3.082099853515625,0.01663607750236988,0.0065971332427114246,-0.00018135704942978917
1761508332462071800,3.09207177734375,0.031301147192716594,-0.0009098448539152741,0.004010148956812918
1761508332472042800,3.102042724609375,0.022469021439552306,-0.011556545748375356,-0.001890188527619466
1761508332482014000,3.112013916015625,0.015881459742784498,-0.001047792019881308,-0.006398103539273142
1761508332491986000,3.12198583984375,0.01872515873610973,0.0017756496367044745,0.002547428593644872
1761508332501956900,3.131956787109375,0.016330957075953483,0.002035670546069741,0.0015449278870597481
1761508332511928800,3.1419287109375,0.02081833162307739,0.005124996597226709,-0.0035464769678190348
1761508332521900000,3.151900146484375,0.013784195202589035,0.0012509499091655015,-0.001556262131826952
1761508332531870700,3.16187060546875,0.011540215668082237,-0.0014764657607302068,-0.0029300438362173734
1761508332541843000,3.171843017578125,0.018271569749712942,0.0017618037744425237,-0.0032403062286321073
1761508332551814000,3.18181396484375,0.01437690039873123,0.00209304502280429,-0.001398642151011154
1761508332561785900,3.191785888671875,0.022009002712368962,0.002972987928800285,0.0003555080399382859
1761508332571756800,3.2017568359375,0.018421207353472708,0.003323536665830761,0.003724701345246285
1761508332581728000,3.21172802734375,0.011538462102413176,-0.0019885434687137602,-0.0016719152675941586
1761508332591699700,3.22169970703125,0.018273323315382003,-0.0020804047369398174,-0.003564743276871741
1761508332601671000,3.2316708984375,0.010341361272335052,0.0014060308730229735,-0.0029426201900001614
1761508332611641900,3.241641845703125,0.018274492359161378,-0.0011220262998715043,0.007117047197278589
1761508332621614000,3.251614013671875,0.01813011545240879,-0.0043458289182744915,-0.0005573781544342636
1761508332631584800,3.261584716796875,0.017531565037369728,-0.002596939424332231,-0.00467225699420087
1761508332641557000,3.271556884765625,0.016631985849142075,-0.004230221448279917,0.003271623815502971
1761508332651528000,3.28152783203125,0.011242694026231764,-0.0006702091454528271,0.0002725515973754227
1761508332661499100,3.2914990234375,0.0155851071447134,-0.004212320465408265,-0.006055957304406911
1761508332671470800,3.301470947265625,0.011397007805109024,0.004878054365143179,-0.00821954681277275
1761508332681442000,3.311442138671875,0.012747253370285034,-0.0009491174183785915,-0.002727242139959708
1761508332691413800,3.321413818359375,0.018138298758864402,0.0010392981861718,-0.0025462230172473934
1761508332701385000,3.331385009765625,0.02876607575714588,-0.001884133246168494,0.0018183471341151744
1761508332711356000,3.34135595703125,0.014554595053195953,-0.003882631853315979,-0.003798332837037742
1761508332721328000,3.351328125,0.015156068077683448,0.0028937486801296473,0.00043504868270829316
1761508332731298800,3.361298828125,0.01620470034778118,-0.004539360462687909,0.004394928757008165
1761508332741269800,3.371269775390625,0.022640286353230475,-0.00478887824434787,0.00309052249439992
1761508332751242000,3.381241943359375,0.02458849781155586,-0.0005478431411087513,-0.004467089810920879
1761508332761213000,3.391212890625,0.0061871642023324964,-0.0018310878846794366,-0.00627572840177454
1761508332771185000,3.401184814453125,0.01756196017563343,-0.0043042547988705335,-0.004642903035553172
1761508332781155800,3.41115576171875,0.025342531049251556,0.00017694573579356073,-0.0029759288045577703
1761508332791127000,3.421126953125,0.016364274823665616,-0.0002155241805128753,-0.0021638909024652092
1761508332801098800,3.4310986328125,0.008735679641366005,0.005550254538282752,0.001628624115139246
1761508332811070000,3.441070068359375,0.0189139593064785,0.0005170278777368366,0.0038257414337713267
1761508332821042000,3.4510419921875,0.02280336796045303,-0.0008510456050746143,-0.0017529354813974349
1761508332831012900,3.461012939453125,0.012327566653490066,0.00043968832520768043,-0.003965031173452735
1761508332840983800,3.47098388671875,0.007236965516209602,-0.0027223376359790563,-0.004138488044217229
1761508332850956000,3.4809560546875,0.014717092138528823,0.004228358284756541,-0.006508687774278223
1761508332860927000,3.490927001953125,0.01695931810736656,-0.001817150690872222,-0.0018066749626304954
1761508332870898000,3.50089794921875,0.012767711636424064,-0.0012580189707688987,0.0086073770865798
1761508332880870000,3.510869873046875,0.02593698981106281,0.0008706818873062729,-0.0040912331026978785
1761508332890841000,3.520841064453125,0.020554712250828742,0.00037106180209666486,0.0029177780096884816
1761508332900812800,3.530812744140625,0.02220306397974491,-0.005272971966862678,0.0008025028887670486
1761508332910784000,3.540783935546875,0.01905950525701046,-0.001994388687610626,-0.002968211288983002
1761508332920755000,3.5507548828125,0.019954992792010306,-0.003086385175399482,0.004824899405799806
1761508332930727000,3.560726806640625,0.019653964018821714,0.001528488208912313,-0.0015222776638343929
1761508332940697900,3.57069775390625,0.020400398471951485,-0.0006725107003934681,-0.009104695616848766
1761508332950670000,3.580670166015625,0.015613748717308043,-0.003985909564699977,-0.00290666296062991
1761508332960641000,3.59064111328125,0.019507249024510384,-0.0019478643984533845,-0.0038500356248114256
1761508332970611700,3.60061181640625,0.025195816054940222,-0.00036333515336737035,-0.009607083047879859
1761508332980584000,3.610583984375,0.024448797079920766,0.0011490239046514034,-0.003439363331533968
1761508332990555000,3.620554931640625,0.024901217022538183,0.008419727293681354,-0.0014160316772293298
1761508333000525800,3.63052587890625,0.017723872739076614,0.004124477785173803,0.002599441908672452
1761508333010497800,3.640497802734375,0.013235913670063017,-0.002410586539376527,-0.009800523260748014
1761508333020469000,3.650468994140625,0.022514029625058173,-0.0021829152633436022,-0.0017497388773132115
1761508333030440700,3.660440673828125,0.01368891813457012,0.0017369615941308437,-0.006310059929639101
1761508333040412000,3.670411865234375,0.006207622468471527,0.0021354045934975146,-0.0025419761003926396
1761508333050382800,3.6803828125,0.008901099336147307,0.003191562582924962,-0.0009967924850061535
1761508333060355000,3.69035498046875,0.017881693649291992,-0.004493183233402669,-0.004363072314020246
1761508333070325800,3.70032568359375,0.007107786178588866,0.004005454515386373,0.00017436105306260286
1761508333080297000,3.710296875,0.01608838049173355,-0.004494352277182042,-0.007594674646388739
1761508333090269000,3.72026904296875,0.01982932058572769,0.0021503464343026277,-0.006634579176269471
1761508333100240000,3.730239990234375,0.0181862295538187,0.00400941830445081,-0.008519908865680917
1761508333110211800,3.7402119140625,0.020582184779644012,0.0028405754544772207,-0.0011171491953544319
1761508333120183000,3.75018310546875,0.009360533541440964,-0.0033306422600522636,-0.007606575146736577
1761508333130154000,3.760154052734375,0.021933014866709708,-0.004456102626025677,0.005629256324935704
1761508333140126000,3.7701259765625,0.027617490243911743,-0.009782156486995517,-0.0033285690339747813
1761508333150097000,3.780096923828125,0.01115793835222721,0.0005299421582370996,0.0029593429959379135
1761508333160068900,3.79006884765625,0.012503507742285728,-0.002593304428830743,-0.005655870337225496
1761508333170039800,3.800039794921875,0.017139350849390028,0.003033668607473373,-0.005308180277561769
1761508333180011500,3.810011474609375,0.02297346383035183,-0.0013194303018040955,0.0003780212658457458
1761508333189983500,3.8199833984375,0.00935761093199253,-0.0033073527160100637,-0.002192432010360062
1761508333199954400,3.829954345703125,0.014147183296084402,0.0063833260952495035,-0.0005802293070591986
1761508333209926400,3.839926513671875,0.019538813206553457,-0.0008994513240642845,-0.005370769785530865
1761508333219897600,3.849897705078125,0.022227613899111747,0.001804747867025435,-0.0046953547419980165
1761508333229868300,3.859868408203125,0.014899462968111038,0.001640972140058875,-0.0006899824250023812
1761508333239840500,3.869840576171875,0.019989479583501814,-0.0032112901967018843,-0.0016577497449237852
1761508333249811500,3.8798115234375,0.014153613036870955,-0.00626961832139641,-0.001737354319775477
1761508333259782400,3.889782470703125,0.021786884394288063,-0.004148333584796637,0.004751779370661824
1761508333269754400,3.89975439453125,0.015201660785079002,0.0036765148219652473,-0.0005902849101927131
1761508333279725300,3.909725341796875,0.017444471275806426,-0.004462112241704017,-0.0013445464767515658
1761508333289697500,3.919697509765625,0.01654196947813034,-0.010612780358549206,-0.0016783358752261847
1761508333299668200,3.929668212890625,0.01923719991147518,-0.0051182380628772076,-0.005316801975434646
1761508333309639400,3.939639404296875,0.0107096100628376,-0.0010017061221413313,-0.0046102428749669345
1761508333319611400,3.949611328125,0.02342646829485893,-0.007536514718364923,-0.00284563522208482
1761508333329582300,3.959582275390625,0.021779285609722136,-0.004832735652383417,0.00961181402192451
1761508333339554300,3.96955419921875,0.014746902754902839,-0.00013166355565190314,-0.000984407927468419
1761508333349525500,3.979525390625,0.01504793152809143,0.0011271408664062618,-0.0023077472194097935
1761508333359496400,3.989496337890625,0.015194646522402763,-0.0024935338487848636,-0.0025812851974740623
1761508333369468400,3.999468505859375,0.018636895930767058,-0.0032061573638580737,-0.004643916815705597
1761508333379439400,4.009439453125,0.012501754176616668,-0.004373703305888921,0.000546646697865799
1761508333389410600,4.01941064453125,0.01130348430275917,-0.000585855330247432,0.0032706739674322307
1761508333399382300,4.02938232421875,0.01265022273659706,-0.0027565321665257215,-0.0027496275017037984
1761508333409353500,4.039353515625,0.017886369824409484,-0.005586275699734688,-0.010164945259504019
1761508333419325400,4.049325439453125,0.006215221253037452,-0.0021623291330412028,-0.004328101465338841
1761508333429296400,4.05929638671875,0.014895955836772917,0.003225318722054362,-0.004414254511985928
1761508333439267300,4.069267333984375,0.021026421415805817,-0.009676339758653193,-0.004986364444671198
1761508333449239600,4.079239501953125,0.011897943064570426,-0.0052939416896551844,-0.0026217998709529636
1761508333459210500,4.08921044921875,0.01369593239724636,0.008261029600631445,-0.0013592873881570994
1761508333469182500,4.099182373046875,0.01653846234679222,-0.0005044789234176278,0.005650353911891579
1761508333479153400,4.1091533203125,0.006208206990361213,-0.00002323474511504173,-0.00024511560117825866
1761508333489124400,4.119124267578125,0.020718378379940984,-0.0050060098600573835,-0.00860399781940505
1761508333499096300,4.129096435546875,0.01652794095277786,0.004469272634852677,0.0044164464690722525
1761508333509067300,4.1390673828125,0.013531097224354744,0.004160608544480055,0.0002915850914083421
1761508333519038500,4.14903857421875,0.023407179072499274,0.0019203736033290624,-0.0006088160807266831
1761508333529010200,4.15901025390625,0.019072364738583564,0.00018324761241674423,-0.002979152808105573
1761508333538981400,4.1689814453125,0.030298107630014417,-0.002310925557184964,0.0068375726687721905
1761508333548953300,4.178953369140625,0.01518295608460903,0.006899879048950969,-0.009637395987752824
1761508333558924500,4.188924560546875,0.009943301865458488,-0.0013987974146381019,-0.004772502498282119
1761508333568895200,4.198895263671875,0.02146189022362232,-0.0005819828727282584,-0.007933989603351801
1761508333578867500,4.208867431640625,0.010986088916659354,0.004170052226260304,-0.002134591742744669
1761508333588838400,4.21883837890625,0.019813538494706153,0.006316818463988602,-0.003022973683523014
1761508333598809600,4.2288095703125,0.022059856116771696,0.0022885493285953996,-0.001441293982649222
1761508333608781300,4.23878125,0.011288871255517006,0.0038047808441333472,0.0030587482498027384
1761508333618752500,4.24875244140625,0.016380641436576842,0.00046381811946630475,0.0025883085933048277
1761508333628724200,4.25872412109375,0.017124153280258177,-0.0028096688595600425,-0.0026890107551123944
1761508333638695400,4.2686953125,0.01951777041852474,0.005071384980157017,-0.0013167725538369267
1761508333648666400,4.278666259765625,0.018021394380927085,-0.005654098505247384,-0.007810628085164353
1761508333658638600,4.288638671875,0.01398001003563404,-0.0017511362499557435,-0.006430261376360431
1761508333668609300,4.298609375,0.018470891714096067,-0.00009310337724164128,-0.008434806131804362
1761508333678581500,4.30858154296875,0.02625380067527294,0.005528115771710872,0.007092789538856595
1761508333688552400,4.318552490234375,0.0090495678961277,-0.0007719707531854509,0.004982519386615604
1761508333698523600,4.328523681640625,0.009346505016088484,-0.0022280330467037857,-0.01035764568685554
1761508333708495400,4.338495361328125,0.025956863555312154,0.004128423307929187,0.00018787812176160513
1761508333718466600,4.348466552734375,0.01757540417909622,0.0007448087516240776,0.0032348720016889274
1761508333728437500,4.3584375,0.022065701335668562,-0.00775561909545213,-0.0037894828103017058
1761508333738409500,4.368409423828125,0.016979776373505593,-0.0021599362465552986,-0.006471680232137441
1761508333748381400,4.37838134765625,0.01338788936138153,-0.002874441191460937,0.002647847627662122
1761508333758352600,4.3883525390625,0.014286299505829811,0.005222246426623315,-0.0031081129500176758
1761508333768323300,4.3983232421875,0.008898176726698875,0.004230623307079077,-0.0027889183324761686
1761508333778295600,4.408295654296875,0.015331424644589423,-0.002863335275556892,-0.0034364407220855353
1761508333788266500,4.4182666015625,0.01487842018008232,0.005992134820576757,-0.00325109248412773
1761508333798238500,4.428238525390625,0.01352817461490631,-0.0024563801761716604,0.0010584686775226145
1761508333808209400,4.43820947265625,0.019959084445238112,-0.0038048356430605054,-0.009689007443981245
1761508333818180400,4.448180419921875,0.016367781955003737,-0.0011330774168483912,-0.009342997884750365
1761508333828152300,4.45815234375,0.017115969973802565,-0.0020790347637608645,-0.003589192731538787
1761508333838123300,4.468123291015625,0.01217617548406124,-0.004314283002540469,-0.003944253246905282
1761508333848095500,4.478095458984375,0.014870236873626708,-0.0029912177052348853,-0.004663945823581889
1761508333858066400,4.48806640625,0.015765724408626555,-0.005584686530847102,0.00011899587032385169
1761508333868037400,4.498037353515625,0.015318565163016318,-0.0005125160994008183,-0.005303303173044696
1761508333878009300,4.50800927734375,0.013522329396009444,-0.005638279881607741,0.006157097857631743
1761508333887980500,4.51798046875,0.013521744874119758,-0.0024061478262767193,-0.002966987446276471
1761508333897951500,4.527951416015625,0.025792028382420538,-0.0012069463706575333,-0.005215816685836762
1761508333907923500,4.53792333984375,0.017266776621341705,-0.004893507662601769,0.0013710874238051472
1761508333917894400,4.547894287109375,0.021606851652264593,-0.0023724830186925825,-0.00015159209882840513
1761508333927866400,4.557866455078125,0.02190846494734287,-0.004749057690612971,-0.0017619316386058926
1761508333937837300,4.56783740234375,0.022505261796712875,-0.00022763474341481923,-0.0019733915653545406
1761508333947808500,4.57780859375,0.021454291439056396,-0.000191083859000355,-0.005845218896865845
1761508333957780500,4.587780517578125,0.019957330879569052,0.0009415186338126659,0.0023227438591420647
1761508333967751400,4.59775146484375,0.009779635736346244,0.004962627376057207,0.0018624968030955642
1761508333977723400,4.607723388671875,0.02324877364039421,-0.001914875444304198,-0.003813859199732542
1761508333987694600,4.617694580078125,0.018013211074471472,-0.0002842603014782071,-0.0018352891357615588
1761508333997665300,4.627665283203125,0.0210053786277771,0.0012819843682460486,-0.0072722286258358505
1761508334007637500,4.637637451171875,0.014273440024256706,0.0016872589671984314,0.0019579382678959517
1761508334017608400,4.6476083984375,0.017564298263192175,-0.005065996418986469,-0.009756793716875836
1761508334027579400,4.657579345703125,0.010826514440774917,-0.00152246032692492,-0.0011179894455708563
1761508334037551400,4.66755126953125,0.025193477967381476,0.003904058233834803,-0.002944346356205642
1761508334047522300,4.677522216796875,0.017114800930023193,0.001361296682152897,-0.0005291384406387805
1761508334057494500,4.68749462890625,0.02369710192978382,0.005550437201373278,-0.006085475659836083
1761508334067465200,4.69746533203125,0.026389994275569914,0.0002000526167452335,-0.007572545012971386
1761508334077436400,4.7074365234375,0.018459785798192022,-0.008635141876339911,-0.0061032122459262605
1761508334087408400,4.717408447265625,0.022501754665374754,-0.0021290661842562255,-0.0025378661808557806
1761508334097379300,4.72737939453125,0.01322188514471054,0.0016186507103964686,0.009903015520842745
1761508334107351300,4.737351318359375,0.014564531925320624,0.0003780943310819566,0.0022361524210777134
1761508334117322500,4.747322509765625,0.017256255227327346,0.001968815854936838,-0.004068939072499052
1761508334127293400,4.75729345703125,0.01411503459215164,0.00531889346782118,0.006853409558720886
1761508334137265400,4.767265380859375,0.017409399962425232,-0.0005043693255633115,-0.0019501111544668673
1761508334147236400,4.777236328125,0.022943068692088127,-0.00017855317099019883,-0.010022394983656703
1761508334157207600,4.78720751953125,0.01740413926541805,0.0018719861506484449,-0.018886221916181965
1761508334167179300,4.79717919921875,0.01830138036608696,-0.00668398954225704,-0.00806616461565718
1761508334177150500,4.807150390625,0.01530979733467102,-0.001680208171904087,0.004334686469752341
1761508334187122400,4.817122314453125,0.016356091517210007,-0.005228877096809447,-0.0020827336913440374
1761508334197093400,4.82709326171875,0.020395137774944304,0.002023888776730746,-0.002113421090552583
1761508334207064300,4.837064208984375,0.00917114844918251,-0.0036431422753259537,0.000334830578090623
1761508334217036500,4.84703662109375,0.007679448586702347,0.0031504816538654268,0.001639446903252974
1761508334227007500,4.857007568359375,0.020398060384392736,0.0008559957748278975,0.004150233280938119
1761508334236979500,4.8669794921875,0.016205869391560553,-0.000678410718217492,-0.00482489027264528
1761508334246950400,4.876950439453125,0.010966215172410011,-0.004340257694013416,-0.005802064741728827
1761508334256921600,4.886921630859375,0.012611644291877746,-0.0025377383166924118,-0.006849500568583607
1761508334266893300,4.896893310546875,0.01306114162504673,-0.0015669022568501531,-0.00503096163822338
1761508334276864500,4.906864501953125,0.027875264397263524,0.0014716434551402926,-0.010775313976500183
1761508334286835500,4.91683544921875,0.021139818662405014,0.0020286380170844494,-0.00017795038279145954
1761508334296807400,4.926807373046875,0.019941548788547515,0.004141227990575135,-0.0107482524396386
1761508334306778400,4.9367783203125,0.020689152285456657,-0.0037725408086553215,-0.012547703077038749
1761508334316750600,4.94675048828125,0.018596563920378683,-0.0032817981496453285,0.00047188269491307437
1761508334326721500,4.956721435546875,0.01979308022856712,-0.0038479806650429963,-0.0031224246031604707
1761508334336692200,4.966692138671875,0.014554595053195953,0.0011473616705276071,-0.004468130990536883
1761508334346664400,4.97666455078125,0.013058803537487984,-0.0037914647048339248,-0.005586577093834057
1761508334356635400,4.986635498046875,0.030865093863010406,-0.0024410182102583347,0.003450825440464541
1761508334366607400,4.996607421875,0.0069207391738891596,-0.0018502309765666722,0.009449581798072903
1761508334376578300,5.006578369140625,0.018440496575832365,-0.002232161232549697,0.007262666213046759
1761508334386549500,5.016549560546875,0.02786591204702854,0.005921772998105734,-0.002416952348081395
1761508334396521200,5.026521240234375,0.013646832558512687,-0.006841700854618102,0.002006234389031306
1761508334406492400,5.036492431640625,0.023524083450436592,-0.004095434353780001,0.008197517644055187
1761508334416463400,5.04646337890625,0.023522914406657217,0.0012065262455493212,0.00294382576639764
1761508334426435600,5.056435546875,0.016634908458590506,-0.0027787987972609698,-0.004633596351090818
1761508334436406300,5.06640625,0.020673370194435117,0.008508793816622347,-0.002990569251263514
1761508334446378500,5.07637841796875,0.024119126734137533,0.0036197066008113324,0.002582362909708172
1761508334456349400,5.086349365234375,0.02037877116203308,0.0013207272097468376,-0.004569207611680031
1761508334466320600,5.096320556640625,0.016343232035636902,-0.0019347674548625944,-0.0021091833068523553
1761508334476292400,5.106292236328125,0.019186931028962136,0.0002602035724557936,-0.006278121288260444
1761508334486263600,5.116263671875,0.015296353331208228,0.007185856383480131,-0.00441312200082466
1761508334496235300,5.1262353515625,0.015597966626286507,0.0020225553361698984,0.007350645890599116
1761508334506206500,5.13620654296875,0.009317278921604156,-0.0035873021685518323,-0.0061348677595146
1761508334516177400,5.146177490234375,0.015453589719533919,-0.007513316505867987,-0.0022790143152698872
1761508334526149600,5.156149658203125,0.026529695007205006,0.000653458940051496,0.003313928587269038
1761508334536120300,5.166120361328125,0.009322539618611335,0.00695672380272299,-0.005935509262513369
1761508334546091300,5.17609130859375,0.017853052076697348,0.001615326242148876,0.0009491356846876442
1761508334556063500,5.1860634765625,0.014707155266404152,-0.0041155820926651356,0.005661432428332045
1761508334566034400,5.196034423828125,0.02114157222807407,-0.00022199045391753315,-0.001064898418309167
1761508334576006400,5.20600634765625,0.0226391173094511,0.002750979208573699,-0.00020462832716293633
1761508334585977300,5.215977294921875,0.01455868670642376,-0.007471651054918766,-0.007234207303542644
1761508334595948500,5.225948486328125,0.015157821643352507,-0.0025677315961569547,-0.005725218379544094
1761508334605920300,5.235920166015625,0.012915011152625083,-0.0009314173649065196,-0.006437595299445092
1761508334615891500,5.245891357421875,0.018003858724236488,0.004819127252139151,-0.0055842298731207845
1761508334625863400,5.255863525390625,0.018600071051716804,0.0032275106791406867,-0.00436043283236213
1761508334635834400,5.26583447265625,0.017549100694060325,-0.0044258718845434485,0.007045434132637455
1761508334645805300,5.275805419921875,0.022931378254294393,0.0025052425528876484,-0.0018877956411335617
1761508334655777500,5.285777587890625,0.021582886254787444,0.004354688078165054,-0.005259664960717782
1761508334665748500,5.29574853515625,0.016347908210754394,-0.0045521468790248034,-0.004058828670438379
1761508334675720400,5.305720458984375,0.02068506063222885,-0.002340553510468453,0.002134354280726984
1761508334685691400,5.31569140625,0.019185177463293075,-0.0007384703423827886,0.008507359911361709
1761508334695662600,5.32566259765625,0.017691139513254163,-0.010100629585329443,-0.006204444130696356
1761508334705634300,5.33563427734375,0.017691139513254163,-0.003967789386119693,-0.0039264892613515255
1761508334715605500,5.34560546875,0.01185293487906456,-0.00016569368941709398,-0.009708607193594797
1761508334725576400,5.355576416015625,0.024272855991125105,-0.0038906872956082222,-0.000583836903097108
1761508334735548400,5.36554833984375,0.02441898646354675,-0.0010989194189198314,0.00550355671918951
1761508334745519400,5.375519287109375,0.02366962940096855,0.0051981896976009,-0.008189644864853471
1761508334755491600,5.38549169921875,0.014687866044044495,0.007127422460820525,-0.00858470859704539
1761508334765462300,5.395462158203125,0.021276596784591675,0.0004984875740483403,-0.005952725258795544
1761508334775433200,5.40543310546875,0.022322306445240973,-0.002015632405038923,0.0019039887241087852
1761508334785405400,5.415405517578125,0.031000702941417692,0.0022280513130128383,0.004102174621820449
1761508334795376400,5.42537646484375,0.020229133558273313,-0.0005988426759839057,0.001442563491128385
1761508334805347300,5.435347412109375,0.016940028885006904,-0.00578024563556537,-0.006106381450546905
1761508334815319300,5.4453193359375,0.015296353331208228,0.001612476697936654,-0.004767935921018943
1761508334825290500,5.45529052734375,0.02591828511059284,0.002402311901375651,-0.0036223278161603956
1761508334835262200,5.46526220703125,0.03399871571362018,0.0014875534103251993,-0.005690649389661848
1761508334845233400,5.4752333984375,0.01574585066437721,-0.003124196435138583,-0.013080978836677968
1761508334855204400,5.485204345703125,0.015597966626286507,-0.00568776331283152,0.0010672091064043343
1761508334865176300,5.49517626953125,0.01814180589020252,-0.002969352933298796,-0.0028581750432495026
1761508334875147300,5.505147216796875,0.020837620845437048,0.004398856013454497,-0.0018266857041977344
1761508334885119500,5.515119384765625,0.01784428424835205,-0.008582425308413803,-0.0024514391395729033
1761508334895090400,5.52509033203125,0.012757190242409705,-0.0024446349394507704,0.004252743807341903
1761508334905061400,5.535061279296875,0.02128770270049572,0.002117120018135756,-0.0066472742610611014
1761508334915033300,5.545033447265625,0.014556348618865012,-0.005430792877078056,-0.007145825767191126
1761508334925004500,5.555004638671875,0.02173778455555439,-0.001157736934069544,-0.007046986768906935
1761508334934975500,5.5649755859375,0.02084112797677517,-0.0060224020946770904,0.0007043306107632815
1761508334944947500,5.574947509765625,0.02802548652291298,0.0020440913145430384,-0.008083535875566303
1761508334954918400,5.58491845703125,0.022784078738093374,0.00745919343214482,-0.0032646369522903113
1761508334964890400,5.594890380859375,0.009016250148415565,0.0024683080759830773,-0.003178337775170803
1761508334974861300,5.604861328125,0.01919452981352806,-0.0016927205936051904,-0.001325293787010014
1761508334984832500,5.61483251953125,0.019342413851618764,-0.0010955218854360282,-0.00031349552911706267
1761508334994804500,5.624804443359375,0.015301614028215407,0.003553856556676328,0.002861417313106358
1761508335004775400,5.634775390625,0.024129063606262206,0.0030057942198589444,-0.007621507854387164
1761508335014747400,5.644747314453125,0.020987258449196813,-0.006276121127419173,-0.006161764899594709
1761508335024718600,5.654718505859375,0.017096096229553222,-0.004865852470695972,0.0020463746031746267
1761508335034689500,5.664689453125,0.012753683111071586,-0.007380648303218186,-0.0031228903940413145
1761508335044661500,5.67466162109375,0.02188449954986572,-0.0019640666145831344,-0.0004607676458545029
1761508335054632400,5.684632568359375,0.0069219082176685326,-0.00010360650494694709,0.001240090588433668
1761508335064603400,5.694603271484375,0.02009118639230728,-0.002821815955080092,0.000008621697872877121
1761508335074575400,5.704575439453125,0.01814180589020252,-0.0073545640138909215,0.0002791457349434495
1761508335084546300,5.71454638671875,0.01843815848827362,0.003991572120506316,-0.004771991041628644
1761508335094518500,5.7245185546875,0.011405191111564636,-0.007205730127729475,-0.012688161860499531
1761508335104489200,5.7344892578125,0.013351649004220962,-0.006667275869473814,0.0017081647579092532
1761508335114460400,5.74446044921875,0.02457271572053432,0.005958323882520198,-0.009944808835955336
1761508335124432400,5.754432373046875,0.020682722544670105,-0.0034345775585621595,0.002229704413982108
1761508335134403600,5.764403564453125,0.013051204752922057,-0.0006072999770753085,-0.0008861899836920201
1761508335144375300,5.774375244140625,0.024873159971833227,-0.0061111032914370296,0.006068223130935802
1761508335154346500,5.784346435546875,0.014099252501130104,-0.0013711422227323054,0.008307352960389107
1761508335164317400,5.7943173828125,0.01289864453971386,0.0013042692652903496,-0.006008026509452611
1761508335174289400,5.804289306640625,0.00855856950879097,-0.0030219051044434305,0.0002906809091102332
1761508335184259600,5.814259521484375,0.008560323074460028,-0.005622753518912941,-0.002866604944877326
1761508335194230500,5.82423046875,0.015441314759850501,0.0017569632025435566,-0.0008556395818013697
1761508335204202800,5.83420263671875,0.017087328401207923,-0.005978288958314806,0.009422182334493845
1761508335214173400,5.84417333984375,0.01753448764681816,-0.005336027265712619,-0.008649051670683547
1761508335224145700,5.854145751953125,0.01633797133862972,-0.0034993864230811592,-0.007536889177700504
1761508335234116600,5.86411669921875,0.01783434737622738,0.004523797567375004,-0.004835201604105532
1761508335244087600,5.874087646484375,0.016340309426188467,0.0037353506034240123,-0.00240642182091251
1761508335254059500,5.8840595703125,0.020978490620851515,0.00031993440305814146,-0.011126812561601399
1761508335264030500,5.894030517578125,0.019926351219415665,-0.00523828424597159,-0.0009549809035845101
1761508335274002400,5.90400244140625,0.029056583136320112,-0.005405512305349111,0.00507994274594821
1761508335283973400,5.913973388671875,0.017537410256266595,-0.006646963733807206,-0.0017714575187768786
1761508335293944600,5.923944580078125,0.027860066828131674,0.0013272482820786535,-0.003457711838977411
1761508335303916500,5.93391650390625,0.018285598275065422,0.0004025346525944769,-0.008001246153283863
1761508335313887500,5.943887451171875,0.01723813504874706,0.0017978066695854068,0.00433393755108118
1761508335323858400,5.9538583984375,0.02546644968986511,0.0026500395847484466,-0.0024524985854979604
1761508335333830700,5.96383056640625,0.019180501288175583,0.007562288480438292,-0.006055756375007331
1761508335343801600,5.973801513671875,0.022169746232032776,0.003183671537414193,-0.0004442549024708569
1761508335353773600,5.983773681640625,0.01677986988723278,0.0018952026294544338,-0.0040476679556071754
1761508335363744500,5.99374462890625,0.011244447591900825,-0.007160648876987397,-0.003125666873017326
1761508335373715700,6.0037158203125,0.015436054062843322,0.0018953852925449608,0.005099971753824502
1761508335383687400,6.0136875,0.021420389169454573,0.0037118235973641273,-0.0011447313220240174
1761508335393658600,6.02365869140625,0.01768003359735012,0.0022069171934388575,-0.00011335158082656562
1761508335403629600,6.033629638671875,0.02426350364089012,-0.0018183014683425425,-0.0056395493900869035
1761508335413601500,6.0436015625,0.019327800804376603,0.001263644993957132,-0.012015075771370901
1761508335423572500,6.053572509765625,0.02561550277173519,0.005178389018587768,0.0038518257230985907
1761508335433544700,6.063544677734375,0.016783961540460586,0.0023086240022443232,0.0014610033301170914
1761508335443515600,6.073515625,0.02396422843337059,0.005809654393140226,-0.007344864603783935
1761508335453486300,6.083486328125,0.015285831937193869,-0.0003203727944754064,0.0015575955723877994
1761508335463458600,6.09345849609375,0.018427052572369575,0.005342036881390959,0.0059698499235324555
1761508335473429500,6.103429443359375,0.0169271694034338,-0.0014267083348706365,-0.003992531101731583
1761508335483401500,6.1134013671875,0.006152677410840988,-0.002291946862079203,-0.004279577015340328
1761508335493372400,6.123372314453125,0.021864041283726692,0.007924929514061659,-0.0028036683770362287
1761508335503343600,6.133343505859375,0.010341361272335052,0.005360102261044085,-0.005144614613149315
1761508335513315300,6.1433154296875,0.008394318857789039,0.0028034035155549645,0.0038443365363869816
1761508335523286500,6.15328662109375,0.022459084567427633,0.007330379420705139,-0.001378741007298231
1761508335533257500,6.163257568359375,0.01662087993323803,0.0014577427939511834,-0.0033829478360246864
1761508335543229700,6.173229736328125,0.018718144473433493,0.000624031916167587,0.0049337209419813
1761508335553200400,6.183200439453125,0.015126841983199118,0.0022104608573950825,0.0007675137737765908
1761508335563172600,6.193172607421875,0.026049218013882637,0.0002738850379362702,-0.007832090998301282
1761508335573143600,6.2031435546875,0.004354103556275368,-0.008136215910874307,-0.0059357284582220015
1761508335583114800,6.21311474609375,0.01437865396440029,-0.0031632863365113734,-0.0026368513096123934
1761508335593086500,6.22308642578125,0.022308862441778182,-0.00842591957245022,-0.009351665248395875
1761508335603057700,6.2330576171875,0.014229016360640525,-0.004515504663065076,-0.002535884286323562
1761508335613029400,6.243029296875,0.009442366605997085,-0.0033308979883790012,-0.008573374352278187
1761508335623000600,6.25300048828125,0.01497778890132904,0.003149257811158895,0.002384118657559156
1761508335632971500,6.262971435546875,0.02155833633542061,0.0055936552885919805,-0.0008119739700108766
1761508335642943700,6.27294384765625,0.013776596418023108,-0.006365662574395537,-0.0022825579792261123
1761508335652914400,6.28291455078125,0.018563830694556235,-0.010703892708104103,-0.006241323808673769
1761508335662885400,6.292885498046875,0.017215338695049286,-0.005000347304251045,0.0020743129228707404
1761508335672857600,6.302857666015625,0.02948503768146038,0.005343680849205702,-0.0019527323698159307
1761508335682828500,6.31282861328125,0.017963526713848113,0.000531659191288054,-0.0007385890733916312
1761508335692800500,6.322800537109375,0.010478723916411399,0.001982405988872051,-0.000538700853427872
1761508335702771500,6.332771484375,0.013469137904047966,-0.0022418241100385784,-0.00041926659168675537
1761508335712742700,6.34274267578125,0.02109948665201664,-0.0029135858917608854,-0.004775452507194132
1761508335722714400,6.35271435546875,0.011222820281982421,0.0018791282774880528,0.002003932834090665
1761508335732685600,6.362685546875,0.020500936236977577,0.0027401107546873387,0.0008245320574846118
1761508335742657500,6.372657470703125,0.017508184161782264,0.007076806518435477,0.0004978025874588639
1761508335752628500,6.38262841796875,0.021252631387114522,0.007401453629229217,0.002234718515817076
1761508335762599400,6.392599365234375,0.01766249794065952,-0.0065739715628325935,0.0018193517811130732
1761508335772571600,6.402571533203125,0.010778583645820617,0.003025193040072918,-0.004916230951063335
1761508335782542600,6.41254248046875,0.018413024047017095,-0.003223766085784882,-0.0042077538881450886
1761508335792513500,6.422513427734375,0.020209844335913656,-0.0005657623902894556,-0.006615810543717816
1761508335802485500,6.432485595703125,0.017661913418769836,0.006424735817871987,-0.0012535711245145649
1761508335812456700,6.442456787109375,0.027240473625063894,0.006481178712844848,-0.0007929496091324835
1761508335822428400,6.452428466796875,0.019459902751445768,0.004536711847875267,-0.002052904808660969
1761508335832399600,6.462399658203125,0.010330255356431006,0.0025049137593246996,-0.005745987172937021
1761508335842370600,6.47237060546875,0.016462474501132963,-0.0013303718209266662,-0.0006993347752373665
1761508335852342500,6.482342529296875,0.015565233400464057,-0.0023852146361023185,0.0030215397782623766
1761508335862313500,6.4923134765625,0.016165537381172178,-0.001234656361490488,-0.0016717326045036314
1761508335872285700,6.50228564453125,0.015720716223120688,0.006157609314285218,-0.00046558081828989087
1761508335882256400,6.51225634765625,0.021110008046030998,0.004843403176870197,0.0026619583514053374
1761508335892227600,6.5222275390625,0.015875030001997945,0.007240289984457194,-0.0007326068571768701
1761508335902199600,6.532199462890625,0.02485562431514263,0.008068429637979716,0.0029554066063370555
1761508335912170800,6.542170654296875,0.02395546060502529,-0.00017078998964279888,0.00337051761271432
1761508335922141400,6.552141357421875,0.01632628090083599,0.0015519238834269344,-0.0010212236733641476
1761508335932113700,6.56211376953125,0.016626140630245208,0.005060644390434027,-0.003659536287700757
1761508335942084600,6.572084716796875,0.023507716837525366,-0.004115088902320712,0.0005003050717990845
1761508335952056600,6.582056640625,0.01573065309524536,0.0010596833870746194,-0.0022301610717084257
1761508335962027500,6.592027587890625,0.013036007183790206,0.005223269339930266,-0.008254252799972892
1761508335971998500,6.60199853515625,0.014533552265167235,-0.0023606099178083238,-0.0028003713082522153
1761508335981970400,6.611970458984375,0.012290157252550124,-0.005374094253778458,0.003005273630050942
1761508335991941400,6.62194140625,0.01707739152908325,0.00040147520666941995,-0.007064997349632903
1761508336001912600,6.63191259765625,0.010196984365582466,0.0013437610254622995,-0.00846383129688911
1761508336011884500,6.641884521484375,0.016775778234004973,-0.0016708010227419435,-0.006198251851927489
1761508336021855500,6.65185546875,0.00495090040564537,0.0006670673402957618,0.0028762130234390496
1761508336031827500,6.661827392578125,0.004200374299287796,0.005382167962379753,-0.004850527037400752
1761508336041798700,6.671798583984375,0.017517536512017248,-0.002141085415612906,-0.00008786094654351473
1761508336051769600,6.68176953125,0.013024316745996474,0.004101900627184659,-0.0035704240989871323
1761508336061741600,6.691741455078125,0.014371055179834365,0.0053065271765924986,0.004678942463314161
1761508336071712500,6.70171240234375,0.02350245614051819,-0.00334074352895841,-0.00048295207819901403
1761508336081684500,6.7116845703125,0.014827566775679587,0.0023443346364423632,-0.0016004665997345
1761508336091655400,6.721655517578125,0.016174889731407165,-0.0038332580199465153,-0.006227852405747398
1761508336101626600,6.731626708984375,0.02395721417069435,-0.007470993467792868,-0.0028048374208156017
1761508336111598600,6.7415986328125,0.02350713231563568,0.0016634214338846504,-0.00811652482971549
1761508336121569500,6.751569580078125,0.018569091391563413,0.003273139919154346,-0.0023788762268610298
1761508336131540500,6.76154052734375,0.01542611719071865,0.0007374656953848898,-0.0021899751917924732
1761508336141512700,6.7715126953125,0.019917583391070366,0.002092789294477552,-0.004854426894383505
1761508336151483600,6.781483642578125,0.01797054097652435,-0.003615560148656368,-0.009024807914206758
1761508336161455600,6.79145556640625,0.0169184015750885,0.0037124446518719194,-0.003988923505693674
1761508336171426600,6.801426513671875,0.008988193097710609,0.005723729675356298,-0.0032261772385798393
1761508336181397800,6.811397705078125,0.01557166314125061,-0.008467110099364072,-0.000535102390544489
1761508336191369700,6.82136962890625,0.025002339309453964,-0.0018913667045533655,0.006952412953786551
1761508336201340700,6.831340576171875,0.012280804902315139,0.0004539177799597382,0.002928454667329788
1761508336211313000,6.84131298828125,0.016773440146446227,0.0019717019317671653,0.00030626207073219117
1761508336221283600,6.85128369140625,0.023807576566934583,0.000613419190607965,0.0013156857084482907
1761508336231254500,6.861254638671875,0.013929741153120994,-0.0007272365623153745,0.0072380888942163435
1761508336241226800,6.871226806640625,0.01991641434729099,0.005143883960787207,0.00008564158999361098
1761508336251197700,6.88119775390625,0.017371406039595604,0.0051962900014594195,-0.0035068573434837162
1761508336261168600,6.891168701171875,0.020366496202349663,-0.007859389997180551,-0.011705626229709014
1761508336271140600,6.901140625,0.01677636275589466,-0.002899228572845459,-0.0016141754646785556
1761508336281111800,6.91111181640625,0.015128595548868178,0.008107245544716715,-0.0006581990472506731
1761508336291083500,6.92108349609375,0.032335750937461855,0.0012017039399594067,0.0023065325098577884
1761508336301054700,6.9310546875,0.010636544826626777,-0.005141180547047406,-0.004454349060356617
1761508336311025700,6.941025634765625,0.018717559951543807,-0.0021921397494152188,-0.004643743285769596
1761508336320997600,6.95099755859375,0.01617372068762779,-0.0027075236593373116,0.0009751103761605918
1761508336330968600,6.960968505859375,0.01348199738562107,-0.0021932539942674336,0.0004115125434938818
1761508336340939800,6.970939697265625,0.014385083705186843,-0.000030322073027491567,0.004255419821618125
1761508336350911700,6.980911865234375,0.02156827320754528,0.004190199965145439,-0.0033253358972724525
1761508336360882700,6.990882568359375,0.017678864553570747,0.009349409359227866,-0.004611813777545467
1761508336370854700,7.000854736328125,0.02201660149693489,-0.0024183862533420325,-0.0063252757650800046
1761508336380825900,7.010825927734375,0.018572598522901534,-0.0023185974069871006,-0.008235292371176183
1761508336390796500,7.020796630859375,0.021418635603785513,-0.0028821861064992843,-0.003329820276144892
1761508336400768800,7.030768798828125,0.01872515873610973,-0.0010097067655064165,-0.00860276484354399
1761508336410739700,7.04073974609375,0.013187398353219032,0.0036229945364408193,-0.0028418906287290156
1761508336420711700,7.050711669921875,0.011691022315621375,-0.0005494505763053894,-0.004673489970061928
1761508336430682600,7.0606826171875,0.010493921485543251,0.0004214585487730801,0.0010712550938595086
1761508336440653600,7.070653564453125,0.01647884111404419,0.0014188172893598674,0.0008032700737472623
1761508336450625500,7.08062548828125,0.01783084024488926,0.004064363362081349,-0.0007463887873571366
1761508336460596500,7.090596435546875,0.012146949389576911,0.0018339008962735533,-0.00042728550136089324
1761508336470567700,7.100567626953125,0.02367138296663761,-0.002473057316336781,-0.008051697698887438
1761508336480539600,7.11053955078125,0.02097615253329277,0.0004497347951866686,0.0028751535775139924
1761508336490510600,7.120510498046875,0.012144611302018165,0.004432082429621368,-0.004400956638995558
1761508336500482600,7.130482666015625,0.013189151918888092,0.0029149193323217333,-0.009296994185401126
1761508336510453800,7.140453857421875,0.018273323315382003,0.006726970167458057,-0.009614197775255889
1761508336520424700,7.1504248046875,0.02096563113927841,-0.0021244813406839968,-0.002779401585459709
1761508336530396700,7.160396728515625,0.018418869265913962,-0.0052390331646427505,0.004198401537910104
1761508336540367600,7.17036767578125,0.018714052820205686,0.002920326159801334,0.002233869132446125
1761508336550339600,7.180339599609375,0.012727379626035689,-0.000935801279079169,0.00006746661248616874
1761508336560310500,7.190310546875,0.01916179658770561,-0.005328428481146693,-0.006739747450640425
1761508336570281700,7.20028173828125,0.017816227197647094,-0.000699581370409578,-0.002142482788255438
1761508336580253700,7.210253662109375,0.021408114209771154,-0.00361685705659911,-0.0017808464016299693
1761508336590224600,7.220224609375,0.01541734936237335,0.00321625863276422,-0.0023262875230982897
1761508336600195600,7.230195556640625,0.014513093999028205,-0.0015083404700271784,-0.0011083357012365012
1761508336610167800,7.240167724609375,0.024237200155854222,0.0010002813500352204,0.002910517151840031
1761508336620138800,7.250138671875,0.016004209339618682,-0.0029433417092077432,0.00042934959428384895
1761508336630110700,7.26011083984375,0.020942250263690947,-0.001232665333803743,-0.003409461383614689
1761508336640081700,7.27008154296875,0.017500585377216337,0.006104216892924159,-0.0001335723849479109
1761508336650052600,7.280052490234375,0.012409984239935874,0.0026141280211508275,-0.0028972284120041877
1761508336660024600,7.290024658203125,0.009714753806591033,-0.0075012972745113074,-0.003172364692110568
1761508336669995500,7.29999560546875,0.023184476232528686,0.0021521182662807403,0.013385505608050153
1761508336679966700,7.309966796875,0.013608254113793372,0.004395001822244376,0.00766458894428797
1761508336689938400,7.3199384765625,0.01106383032798767,-0.005923453498538583,0.00018531170533969996
1761508336699909600,7.32990966796875,0.016449615019559858,0.008629168793279678,0.008317810422321782
1761508336709881900,7.3398818359375,0.016447276932001112,0.0007744732375256717,-0.010483025632193312
1761508336719852800,7.349852783203125,0.008515899410843849,0.00015228621857240796,-0.005469279990252107
1761508336729823500,7.359823486328125,0.01420095930993557,-0.00000884089358150959,0.004777452668035403
1761508336739795700,7.369795654296875,0.015548282265663146,-0.0000820522602647543,0.00006320142932236194
1761508336749766700,7.3797666015625,0.014652210208773612,-0.004117335658334195,-0.000940486587351188
1761508336759738600,7.389738525390625,0.02512567342817783,-0.00042807095265015956,0.0028637645338196304
1761508336769709600,7.39970947265625,0.009711246675252914,0.0010248130030930042,-0.0012042520900722592
1761508336779680800,7.4096806640625,0.011356091272830963,0.006227149152848869,-0.005836935125710443
1761508336789652500,7.419652587890625,0.028414778101444244,0.0002916764229536056,0.002911649663001299
1761508336799623700,7.429623779296875,0.02392798807621002,0.0023631124021485446,-0.0057690027223434295
1761508336809594600,7.4395947265625,0.013306056296825408,-0.0012698372727259993,-0.005399320026580244
1761508336819566800,7.44956689453125,0.01974047325849533,-0.005646499720681458,-0.004773287949571386
1761508336829537500,7.45953759765625,0.015248422536253928,0.002129102716874331,-0.00565886601191014
1761508336839509800,7.469509765625,0.013151157996058463,0.0013757818652316927,0.004021254872716963
1761508336849480700,7.479480712890625,0.015393383964896201,0.001323430623486638,-0.008213144471449777
1761508336859451600,7.48945166015625,0.022575404423475266,-0.0011174962552264332,-0.004662731114029884
1761508336869423600,7.499423583984375,0.019881927555799483,0.000020494798757135867,0.0037976478504482655
1761508336879394800,7.509394775390625,0.016440262669324874,-0.0026989202277734876,0.0036825518371071666
1761508336889365800,7.51936572265625,0.016588731229305265,0.0020157237365841865,-0.004419643073156476
1761508336899337700,7.529337646484375,0.030804303586483,-0.002548953830450773,-0.0037456254022661594
1761508336909308700,7.53930859375,0.014944471153616905,0.002757920406013727,-0.0011733911609277128
1761508336919280600,7.54928076171875,0.012103110247850418,0.005339260402414947,-0.005786200452316552
1761508336929251600,7.55925146484375,0.008662614405155181,0.0021439714924432335,-0.0008559775085188448
1761508336939222500,7.569222412109375,0.008212532550096512,-0.0000427796958014369,0.006159563809353858
1761508336949194800,7.57919482421875,0.01659340740442276,0.004193414835538715,0.004993323908420279
1761508336959165700,7.589165771484375,0.019133739537000656,-0.0005645750802010297,0.002404997048806399
1761508336969137700,7.5991376953125,0.020329671323299405,0.004589775475673377,-0.0005968973140697926
1761508336979108600,7.609108642578125,0.015395137530565262,0.005062233559321612,0.002930683157034218
1761508336989079800,7.619079833984375,0.013299626556038856,-0.004547543769143522,0.007077865964360535
1761508336999051500,7.629051513671875,0.01703939760625362,0.0036109205061569806,-0.0027828356515616176
1761508337009022700,7.639022705078125,0.020782675787806508,0.005272606640681624,0.0006492302895057947
1761508337018993700,7.64899365234375,0.020187632504105567,-0.0026664609965868294,-0.003505925761722028
1761508337028965600,7.658965576171875,0.011957564297318458,0.006942055956553668,-0.000227214618306607
1761508337038936600,7.6689365234375,0.017194880428910254,0.00916661840453744,-0.002594583070464432
1761508337048908800,7.67890869140625,0.01869301003217697,-0.004810377690102905,0.0029056948462501168
1761508337058879500,7.68887939453125,0.015849311038851736,0.0031081586157903074,-0.004092164684459567
1761508337068850700,7.6988505859375,0.019289222359657285,0.009357866660319267,0.0011249854419380426
1761508337078822700,7.70882275390625,0.02153086380660534,-0.0008951222088187932,-0.004034324416844174
1761508337088793900,7.7187939453125,0.013598901763558387,-0.0037914647048339248,-0.001633574284892529
1761508337098765600,7.728765625,0.017190788775682447,-0.003681921649444848,-0.009235043998248874
1761508337108736800,7.73873681640625,0.02706511705815792,0.001709014141280204,-0.0058105494422838085
1761508337118707700,7.748707763671875,0.02092763721644878,0.0013041048685088752,-0.0007180760083254427
1761508337128679700,7.7586796875,0.019730536386370658,-0.0027205840703099964,0.0008990129326470195
1761508337138650600,7.768650634765625,0.01733750376999378,-0.000790529323183,0.002935359332151711
1761508337148621600,7.77862158203125,0.011802081474661826,-0.00873416353771463,-0.0020542565155308693
1761508337158593500,7.788593505859375,0.020333178454637526,-0.006025763095542788,-0.002744978726049885
1761508337168564500,7.798564453125,0.027666590082645416,0.0018316906728781759,0.00041428902246989306
1761508337178536700,7.80853662109375,0.01928688427209854,0.003931494230031967,-0.0007663081973791122
1761508337188508200,7.818508056640625,0.013301964643597602,-0.003604947423096746,0.00198243338833563
1761508337198479000,7.82847900390625,0.020486323189735412,0.0009379201709292828,-0.005787013303069397
1761508337208451300,7.838451416015625,0.018392565780878067,-0.009925400882586836,-0.005462083064485341
1761508337218422300,7.84842236328125,0.02138297976851463,-0.00031949601164087653,-0.00038309016660787164
1761508337228393200,7.858393310546875,0.011053308933973311,0.0002572992293164134,-0.0005465918989386409
1761508337238365200,7.868365234375,0.016434417450428007,-0.0008751023340970277,0.0041896793753374365
1761508337248336400,7.87833642578125,0.021970424267649648,0.0004541369756683707,0.001255644350592047
1761508337258308000,7.88830810546875,0.01194353577196598,0.003226067640725523,0.005727784795965999
1761508337268279300,7.898279296875,0.01957446904182434,0.003965761825814843,-0.008300539627112448
1761508337278250200,7.908250244140625,0.019272855746746063,0.0023564817319624127,-0.0015995989500544965
1761508337288222200,7.91822216796875,0.017773557099699973,0.006193776606209575,0.004293002752494067
1761508337298193200,7.928193115234375,0.016425065100193023,-0.001114847640413791,-0.004324009812111035
1761508337308165400,7.938165283203125,0.014033786049485205,-0.0014056655468419194,-0.005044268644368276
1761508337318136300,7.94813623046875,0.01687865408658981,0.001974350546579808,-0.002545812025293708
1761508337328107300,7.958107177734375,0.017779986840486525,-0.0005169000135734677,0.003786304472526535
1761508337338079200,7.968079345703125,0.016133973199129105,-0.0007550561510026454,0.007745654823863878
1761508337348050400,7.978050537109375,0.020626023921370504,0.0013978293002583086,0.004216786577971652
1761508337358021400,7.988021484375,0.01748129615485668,-0.0021050642541609703,-0.0066649834476877
1761508337367993300,7.997993408203125,0.024959084689617154,0.0021049911889247596,-0.004970089163305238
1761508337377964300,8.00796435546875,0.024957331123948094,0.0021183803934603927,-0.004857477367995307
1761508337387935500,8.017935546875,0.024209143105149267,-0.0011944339489564299,0.0005477426764089614
1761508337397907200,8.0279072265625,0.018068740653991697,0.0035918870121240615,-0.0008122205651830882
1761508337407878400,8.03787841796875,0.016422727012634277,0.0002864157259464264,-0.00945610287040472
1761508337417849300,8.047849365234375,0.023308979395031928,0.0027151224439032375,0.0018805895822122693
1761508337427821300,8.0578212890625,0.018819266760349274,-0.002439995296951383,0.006123131655948236
1761508337437792300,8.067792236328126,0.016727847439050675,0.0044223464868962765,-0.002007403432810679
1761508337447763200,8.07776318359375,0.012837269741296767,-0.004570906378421932,-0.0040881186970043925
1761508337457735400,8.0877353515625,0.02032031897306442,0.0025832579588517543,-0.0012803221341222523
1761508337467706000,8.0977060546875,0.017329904985427854,0.007451722511742263,0.01032997222864069
1761508337477678300,8.10767822265625,0.014184592697024344,-0.002452489452343434,-0.005059320083027705
1761508337487649300,8.117649169921876,0.0164303257972002,0.0032189620465040204,-0.00452954232157208
1761508337497620200,8.1276201171875,0.01702770716845989,-0.0023028518485836685,0.006923606984410435
1761508337507592200,8.13759228515625,0.017326397854089737,0.0025237828565761447,0.0009015884822234511
1761508337517563400,8.1475634765625,0.02570785723030567,-0.0031740817251615224,-0.0035161640279460695
1761508337527534300,8.157534423828125,0.022564883029460907,0.006822356833331287,0.004354843341792002
1761508337537506300,8.16750634765625,0.02376023029386997,-0.0019300912797451017,-0.0010262195088900626
1761508337547477200,8.177477294921875,0.019421908828616143,-0.003663198682665825,0.003040956864785403
1761508337557449200,8.18744921875,0.013881810358166694,0.0043316907950676975,0.0012635719287209211
1761508337567420200,8.197420166015625,0.02285831301808357,0.0014667298180051148,0.0041055538889952
1761508337577391400,8.207391357421875,0.01971826142668724,-0.003227857739012688,-0.002730301746726036
1761508337587363300,8.21736328125,0.010742343288660049,-0.0016383965904824434,0.003488426637649536
1761508337597334300,8.227334228515625,0.015382862570881842,0.005335442743822932,0.003461228103470057
1761508337607306200,8.23730615234375,0.011644845086336135,0.00980566522674635,0.00019665508326143026
1761508337617277400,8.24727734375,0.015536007305979729,0.005399502689670771,0.0013025887648575006
1761508337627248400,8.257248291015625,0.01972352212369442,-0.0000012421090155839919,0.006710293027292937
1761508337637220400,8.267220458984376,0.010446575212478637,-0.0004673069844953716,0.0022349925104528665
1761508337647191300,8.27719140625,0.01898234836757183,0.0019825155867263674,0.004393978908937424
1761508337657162200,8.287162353515624,0.018979425758123395,0.003877279824763536,0.003107062637247145
1761508337667134200,8.29713427734375,0.02271685872077942,-0.0012649419018998741,-0.0021824860050808637
1761508337677105200,8.307105224609375,0.01478255859017372,0.0004122705953195691,-0.0013322897833772003
1761508337687077400,8.317077392578126,0.031842414462566374,0.00198651590840891,-0.002650815902883187
1761508337697048000,8.327048095703125,0.022567221117019653,0.002953607374895364,0.0007502338454127311
1761508337707019300,8.337019287109374,0.01433423030078411,0.003801876500993967,-0.0005391209785360842
1761508337716991200,8.3469912109375,0.021067337948083877,0.00038638723539188505,-0.0006803469469770789
1761508337726962400,8.35696240234375,0.016880407652258872,0.0023971973348408935,0.005466786639066413
1761508337736933000,8.36693310546875,0.010000585010647774,0.004372698658891022,0.0029907336480449885
1761508337746906400,8.37690625,0.012093757897615432,-0.0020216602870263157,-0.0018826993409078567
1761508337756878300,8.38687841796875,0.022867665368318555,-0.0011561842978000641,0.0037076406125910576
1761508337766849300,8.396849365234376,0.017777064231038094,0.007342508249916136,0.005532399221183731
1761508337776820200,8.4068203125,0.023167525097727775,0.0009077990273013711,0.0008589549168944358
1761508337786792200,8.416792236328124,0.021225158858299255,0.00436148314513266,0.004167915068101138
1761508337796763100,8.42676318359375,0.009552256721258163,-0.000878993057925254,0.0023092724562156944
1761508337806734300,8.436734375,0.01104863275885582,0.006272778392862528,0.0024969131159596142
1761508337816706300,8.446706298828126,0.0185305129468441,0.005190499581489712,0.006284012172929942
1761508337826677200,8.45667724609375,0.012847791135311126,-0.00026389336688444016,0.008517388115031645
1761508337836649200,8.466649169921874,0.013895254361629486,0.005477883421815931,-0.0023095007850788534
1761508337846620400,8.476620361328125,0.019730536386370658,-0.0028756467678584157,-0.00172465010182932
1761508337856591000,8.486591064453124,0.026765257328748703,-0.00010957958800718187,0.00318317834706977
1761508337866563300,8.496563232421876,0.014644611424207686,-0.003137750036455691,0.0027962887881789354
1761508337876534300,8.5065341796875,0.015095862323045729,0.007562854736018925,0.006628807022608816
1761508337886505500,8.51650537109375,0.020037410378456116,0.000272222803812474,0.00003076959759928286
1761508337896477200,8.526477294921875,0.012404139021039009,-0.00076123016346246,-0.004334302877262234
1761508337906448400,8.536448486328124,0.015844050341844558,-0.003375084189977497,0.0006055555445607751
1761508337916420000,8.546420166015626,0.023175708404183388,0.0006759265001863241,-0.007595816290704533
1761508337926391300,8.556391357421875,0.010604396122694015,0.0023604272547177968,0.0017331165360752491
1761508337936362200,8.5663623046875,0.011201777493953704,-0.0001701506688259542,0.0007428725228644907
1761508337946334500,8.57633447265625,0.022877602240443228,-0.0031477599738165734,-0.006214335337048396
1761508337956305200,8.58630517578125,0.014199205744266509,-0.00003863324364647269,-0.004580505323829129
1761508337966277400,8.59627734375,0.01808744535446167,0.00668446446629241,-0.0032758707323577254
1761508337976248300,8.606248291015625,0.012542670708894728,0.007338562727160752,0.0018918324954342097
1761508337986219500,8.616219482421876,0.03154372377693653,0.0019762319764122364,0.007521563744405284
1761508337996191200,8.626191162109375,0.013875965139269829,0.00297855915306136,0.003183488874323666
1761508338006162400,8.636162353515624,0.01312426998913288,-0.004019775301683694,-0.004326859356323257
1761508338016133400,8.64613330078125,0.025688568007946014,-0.005876764812599867,0.004792129647359251
1761508338026105300,8.656105224609375,0.02658580910861492,-0.0019512619319371877,-0.001788216857332736
1761508338036076300,8.666076171875,0.015364742392301558,-0.0015373839014209806,-0.000946203942084685
1761508338046048500,8.676048583984375,0.022996844705939292,-0.0012495434033684431,0.001707589369174093
1761508338056019200,8.686019287109374,0.01940320412814617,-0.005819974857755005,0.0076028944854624565
1761508338065990100,8.695990234375,0.011326280656456947,0.0013260609719902277,0.0003114679688122123
1761508338075962400,8.70596240234375,0.015817746856808663,0.0020381730304099618,-0.0009455828875768929
1761508338085933300,8.715933349609376,0.014023849177360534,-0.001543758843280375,0.006608805414196103
1761508338095905300,8.7259052734375,0.009989479094743728,0.0018550532821565865,0.005316464048717171
1761508338105876200,8.735876220703124,0.008043605723977089,0.010660491957794874,-0.004211589813046157
1761508338115847400,8.745847412109375,0.005948094749450683,0.005744114876259118,-0.005855877288198098
1761508338125819100,8.755819091796875,0.021062077251076696,0.0028447949718683955,0.0025728552958462388
