time,seconds_elapsed,z,y,x
1761508329480628000,0.1106279296875,0.0021384097635746002,-0.0010488545522093773,0.00028913456480950117
1761508329490600200,0.12060009765625,-0.00009411806240677834,-0.0005468486342579126,0.00011416489724069834
1761508329500571100,0.130571044921875,0.00006061140447854996,0.0005085620796307921,-0.0011468417942523956
1761508329510543000,0.140543212890625,-0.00003969995304942131,0.00005779997445642948,-0.0005623744218610227
1761508329520514000,0.15051416015625,-0.0006391778588294983,-0.0002926719607785344,0.00027039600536227226
1761508329530485200,0.1604853515625,-0.00024064304307103157,-0.0005257629090920091,0.0011637728894129395
1761508329540457000,0.17045703125,-0.0005602221935987473,-0.0004796902649104595,-0.0003294616471976042
1761508329550428200,0.18042822265625,0.002050970681011677,-0.0000719722593203187,0.0009558600140735507
1761508329560399000,0.190399169921875,-0.002111549489200115,-0.00021764717530459166,-0.0001213887007907033
1761508329570371000,0.20037109375,-0.0006839064881205559,-0.001493931165896356,-0.0006217008922249079
1761508329580342000,0.210342041015625,0.0015464909374713898,-0.001014828565530479,0.0003772508352994919
1761508329590314200,0.220314208984375,-0.0008302908390760422,0.0013648957246914506,0.0007388744270429015
1761508329600285000,0.230284912109375,-0.0008438732475042343,-0.00020796724129468203,0.0008864135015755892
1761508329610256000,0.240255859375,-0.002483213320374489,-0.0009773381752893329,-0.0022382449824362993
1761508329620228000,0.25022802734375,0.0010635843500494957,0.00023999263066798449,0.001032383181154728
1761508329630199000,0.260198974609375,0.000016252510249614716,0.00007879524491727352,-0.0012861985014751554
1761508329640170000,0.270169921875,-0.0014804443344473839,0.001648196019232273,-0.0012382615823298693
1761508329650142000,0.280141845703125,-0.002682493068277836,0.000504118506796658,0.0007902964716777205
1761508329660113200,0.290113037109375,-0.000017201527953147888,-0.00040002469904720783,-0.002277931198477745
1761508329670084000,0.300083984375,0.0026209624484181404,-0.0021662218496203423,0.0022192690521478653
1761508329680056000,0.31005615234375,0.0003117350861430168,0.002404295140877366,-0.0004753174143843353
1761508329690027000,0.320027099609375,0.0009096800349652767,0.0028130956925451756,-0.0012946638744324446
1761508329699999000,0.3299990234375,-0.0022565526887774467,-0.0008751160930842161,0.001500323647633195
1761508329709970000,0.339969970703125,0.0011302907951176167,0.0005249241949059069,-0.0025567077100276947
1761508329719941000,0.349941162109375,-0.0014646933414041996,0.0007294549723155797,-0.00046479457523673773
1761508329729913000,0.3599130859375,0.00021435320377349854,0.0013773036189377308,0.0015100353630259633
1761508329739884000,0.369884033203125,0.0000622863881289959,0.00039060250855982304,0.0007845903746783733
1761508329749855000,0.37985498046875,-0.0011356277391314507,0.0012154653668403625,-0.0009066413622349501
1761508329759827200,0.3898271484375,-0.0021580150350928307,0.0006820342387072742,-0.0012334112543612719
1761508329769798100,0.399798095703125,-0.0013939933851361275,-0.0007800502935424447,-0.0017425285186618567
1761508329779770000,0.40977001953125,-0.0023886840790510178,0.0002878772793337703,0.0011219675652682781
1761508329789741000,0.419740966796875,-0.0013140724040567875,-0.0006861237343400717,-0.0006499749724753201
1761508329799712000,0.4297119140625,-0.00024161720648407936,-0.001989741111174226,-0.0009005784522742033
1761508329809684000,0.43968408203125,0.0009365519508719444,0.00022858043666929007,-0.0009829325135797262
1761508329819655000,0.449655029296875,-0.0005082134157419205,-0.00034346652682870626,-0.0008359259809367359
1761508329829627100,0.459627197265625,-0.00015597790479660034,-0.0020039640367031097,-0.00017043028492480516
1761508329839597800,0.469597900390625,-0.002322459127753973,-0.00014640926383435726,-0.00014433125033974648
1761508329849569000,0.479569091796875,0.0013031675480306149,-0.003209616057574749,-0.0012904542963951826
1761508329859541000,0.489541015625,-0.00141964852809906,-0.0005027791485190392,-0.0009620865457691252
1761508329869512200,0.49951220703125,-0.0005167350172996521,0.0012890511425212026,0.0009081782773137093
1761508329879483000,0.50948291015625,0.0000830087810754776,-0.0033669532276690006,-0.0013366002822294831
1761508329889455000,0.519455078125,-0.00039028609171509743,-0.0001811552792787552,-0.002556741703301668
1761508329899426000,0.529426025390625,0.0013090772554278374,0.0028364723548293114,0.001403645146638155
1761508329909398000,0.53939794921875,-0.0007040058262646198,0.0006529467646032572,0.0017128381878137589
1761508329919369000,0.549368896484375,-0.0004142546094954014,-0.0006048643263056874,-0.000016618636436760426
1761508329929340200,0.559340087890625,-0.0005238242447376251,-0.00010642863344401121,0.0014536218950524926
1761508329939311900,0.569311767578125,0.0016474509611725807,-0.001242799567990005,0.002476808149367571
1761508329949283000,0.579282958984375,-0.0025744084268808365,0.0004106323467567563,-0.0020456244237720966
1761508329959254000,0.58925390625,0.0013300525024533272,0.0026572751812636852,-0.00011749588884413242
1761508329969226200,0.599226318359375,-0.00047200731933116913,-0.0010253273649141192,0.0025715262163430452
1761508329979197000,0.609197021484375,0.00022041471675038338,-0.0011353158624842763,-0.00044050905853509903
1761508329989169200,0.619169189453125,-0.0011132699437439442,0.00009844359010457993,0.0005092989886179566
1761508329999140000,0.62914013671875,-0.00111726438626647,0.000014554010704159737,-0.0015559823950752616
1761508330009111000,0.639111083984375,-0.002637626137584448,0.0010878180619329214,-0.0007291504298336804
1761508330019083000,0.6490830078125,-0.00023838412016630173,0.0017397599294781685,-0.0009661717340350151
1761508330029054000,0.659053955078125,0.0008911387994885445,-0.0019843061454594135,0.001120585249736905
1761508330039025200,0.669025146484375,0.0009611798450350761,0.00042265886440873146,0.0025501700583845377
1761508330048996900,0.678996826171875,0.0019127405248582363,0.00016255979426205158,-0.003325766185298562
1761508330058968000,0.688968017578125,-0.0010228618048131466,-0.0020191017538309097,-0.0013182754628360271
1761508330068940000,0.69893994140625,0.0006726323626935482,-0.000946139800362289,0.0021910229697823524
1761508330078911000,0.708910888671875,0.0001562456600368023,-0.0009943431941792369,-0.0011571032227948308
1761508330088882000,0.7188818359375,-0.00005736621096730232,-0.0007718857377767563,-0.0009228700073435903
1761508330098854100,0.728854248046875,0.00043638376519083977,-0.00044698012061417103,0.0013810305390506983
1761508330108825000,0.7388251953125,-0.00025426410138607025,0.00042254338040947914,-0.0023388394620269537
1761508330118797000,0.748797119140625,0.0006040725857019424,0.0014888730365782976,-0.0013510729186236858
1761508330128768000,0.75876806640625,-0.0019507273100316525,0.0026469111908227205,0.00008013937622308731
1761508330138739200,0.7687392578125,-0.0014580427668988705,-0.002314558019861579,-0.0018495871918275952
1761508330148711000,0.7787109375,-0.0007615550421178341,-0.0024043377488851547,0.0004586203722283244
1761508330158682000,0.78868212890625,-0.001235863659530878,-0.0009161634370684624,0.001439196290448308
1761508330168653000,0.798653076171875,0.0008573322556912899,0.0024178451858460903,-0.0021524163894355297
1761508330178625000,0.808625,-0.003147263079881668,-0.0006999175529927015,-0.0003638373455032706
1761508330188596200,0.81859619140625,0.0025844513438642025,-0.001206684741191566,-0.00026911438908427954
1761508330198568200,0.828568115234375,-0.0025397371500730515,-0.0015542273176833987,-0.0010150658199563622
1761508330208539100,0.8385390625,-0.0011391062289476395,-0.0005553489318117499,-0.0020084073767066
1761508330218510000,0.848510009765625,0.0008034035563468933,0.0010723749874159694,0.0030891490168869495
1761508330228482300,0.858482421875,-0.0003516026772558689,-0.0003973215352743864,-0.0006933978293091059
1761508330238453200,0.868453369140625,0.000682502519339323,-0.00016882235649973154,0.003143951063975692
1761508330248424000,0.878423828125,-0.002131048124283552,-0.0011175696272403002,0.000328118447214365
1761508330258396200,0.888396240234375,0.0012224041856825352,0.0013317395932972431,0.001631469465792179
1761508330268367000,0.8983671875,0.0016846251673996449,-0.0009966155048459768,0.0019191934261471033
1761508330278339000,0.908339111328125,0.002162662334740162,-0.00002429529558867216,-0.0011831228621304035
1761508330288310000,0.91831005859375,-0.0008572898805141449,-0.002140154130756855,0.002710530534386635
1761508330298281200,0.92828125,-0.0005065510049462318,-0.00006288860458880663,0.0008178218267858028
1761508330308253000,0.9382529296875,0.0024864813312888145,0.0018485075561329722,-0.0002916259109042585
1761508330318224100,0.94822412109375,-0.00026962393894791603,0.00029615103267133236,0.00026817049365490675
1761508330328196000,0.958196044921875,0.001774247270077467,-0.0012995292199775577,-0.0013305016327649355
1761508330338167300,0.968167236328125,0.00004638824611902237,-0.0005253484705463052,0.003441350534558296
1761508330348138000,0.978137939453125,0.0017930376343429089,-0.0008968249894678593,-0.0007323762401938438
1761508330358110200,0.988110107421875,0.0005485424771904945,-0.0006065405905246735,-0.0015377162490040064
1761508330368081200,0.9980810546875,0.002498248592019081,-0.0026344056241214275,-0.0026231766678392887
1761508330378052400,1.00805224609375,0.0017565581947565079,0.0005390167934820056,0.00015423388686031103
1761508330388024000,1.018024169921875,-0.00008456315845251083,0.00024602864868938923,-0.001218650140799582
1761508330397995300,1.027995361328125,0.0013852356933057308,0.0007754650432616472,-0.000032744486816227436
1761508330407967000,1.037967041015625,-0.00003773067146539688,-0.001991379540413618,-0.001481234678067267
1761508330417938200,1.047938232421875,-0.000028409529477357864,-0.000920788967050612,-0.0010218394454568624
1761508330427909000,1.0579091796875,-0.0011588078923523426,0.0000044245971366763115,-0.0020964297000318766
1761508330437881300,1.06788134765625,0.002618352882564068,-0.0010515187168493867,-0.002604294568300247
1761508330447852000,1.07785205078125,0.00041834311559796333,0.0010547024430707097,-0.0014210573863238096
1761508330457823200,1.0878232421875,0.000457757618278265,0.0007676137029193342,0.0015771292382851243
1761508330467795200,1.097795166015625,-0.0008361758664250374,-0.0010416331933811307,0.00044317194260656834
1761508330477766400,1.107766357421875,0.0016397652216255665,0.00010006397496908903,0.0017838072963058949
1761508330487738000,1.117738037109375,-0.000023148488253355026,-0.00046208861749619246,0.0002624362241476774
1761508330497709300,1.127709228515625,-0.00112116988748312,-0.003191828727722168,0.0027538235299289227
1761508330507680300,1.13768017578125,0.001972976140677929,-0.00021198892500251532,-0.002326538087800145
1761508330517652200,1.14765234375,0.00019931094720959663,-0.0009645982645452023,0.0025169530417770147
1761508330527623200,1.157623046875,0.0012821261771023273,0.0007768938667140901,0.0015770855825394392
1761508330537595400,1.167595458984375,-0.0001602419652044773,-0.0006654741009697318,0.0018985290080308914
1761508330547566000,1.177566162109375,-0.0013058101758360863,0.00044207111932337284,0.0012058692518621683
1761508330557537000,1.187537109375,-0.001129775308072567,-0.001988862408325076,-0.0017963123973459005
1761508330567509200,1.19750927734375,0.0016444497741758823,0.0017280798638239503,0.0007434189319610596
1761508330577480200,1.207480224609375,0.001997851300984621,0.00024816126096993685,0.0020821900106966496
1761508330587452200,1.2174521484375,0.0001796642318367958,-0.00023127312306314707,-0.0020183236338198185
1761508330597423000,1.227423095703125,0.001970639917999506,0.0009181472705677152,-0.0002859372179955244
1761508330607394300,1.237394287109375,0.00023420574143528938,0.0023234032560139894,-0.0010662381537258625
1761508330617366000,1.247365966796875,0.0018278416246175766,0.001417662133462727,-0.0033536271657794714
1761508330627337200,1.257337158203125,0.0023797214962542057,0.0022773765958845615,-0.0013367754872888327
1761508330637308200,1.26730810546875,0.00035997992381453514,-0.0007117553614079952,0.000545546761713922
1761508330647280000,1.277280029296875,-0.00028638122603297234,0.0008100735722109675,-0.0008850847370922565
1761508330657251000,1.2872509765625,0.00011788681149482727,0.00017677387222647667,-0.001157792517915368
1761508330667223300,1.297223388671875,-0.00008586375042796135,0.001125162118114531,0.0017574061639606953
1761508330677194200,1.3071943359375,-0.0008179666474461555,-0.004022195935249329,-0.0023209587670862675
1761508330687165200,1.317165283203125,0.0017980588600039482,0.0009178590262308717,-0.0005625387420877814
1761508330697137200,1.32713720703125,-0.0006477879360318184,0.00014687387738376856,0.0013943520607426763
1761508330707108400,1.3371083984375,0.0005831047892570496,0.0016690329648554325,0.0001822981284931302
1761508330717080000,1.347080078125,0.0014273268170654774,-0.00046202854719012976,0.0012808520114049315
1761508330727051300,1.35705126953125,0.0011135819368064404,-0.0014751232229173183,-0.0005105762975290418
1761508330737022200,1.367022216796875,0.000019022729247808456,-0.0007725812029093504,-0.003727408591657877
1761508330746994200,1.376994140625,-0.001259888056665659,0.000782551767770201,-0.0008217766880989075
1761508330756965000,1.386965087890625,-0.0003195260651409626,0.0011897491058334708,-0.001082233851775527
1761508330766936000,1.39693603515625,-0.0008362508378922939,-0.0005648271180689335,-0.002008321462199092
1761508330776908000,1.406907958984375,0.0032967086881399155,0.00025356223341077566,0.0008338040206581354
1761508330786879000,1.41687890625,-0.000613152515143156,0.00014723348431289196,-0.0002687238738872111
1761508330796851200,1.426851318359375,0.0009562480263411999,-0.0006682263920083642,0.00023195042740553617
1761508330806822100,1.436822265625,-0.0004799230955541134,0.0008911117329262197,-0.0010963422246277332
1761508330816793000,1.44679296875,0.00014671916142106056,0.00007272232323884964,0.0009814559016376734
1761508330826765000,1.45676513671875,-0.0024882443249225616,0.00006461003795266151,0.002051995601505041
1761508330836736300,1.466736328125,-0.0000775512307882309,0.0005208095535635948,0.0011659617302939296
1761508330846708000,1.4767080078125,-0.001524916384369135,-0.0003519854508340359,0.00036489591002464294
1761508330856679200,1.48667919921875,-0.0011544707231223583,-0.002041761064901948,0.00032281794119626284
1761508330866650000,1.496650146484375,0.000822452362626791,-0.00001009088009595871,-0.002405966632068157
1761508330876622000,1.5066220703125,-0.0017509600147604942,0.0002967052860185504,-0.0001798301818780601
1761508330886593000,1.516593017578125,0.00005928613245487213,0.0015571988187730312,-0.0009038103744387627
1761508330896564200,1.526564208984375,0.002483827993273735,-0.0027267620898783207,-0.0014926352305337787
1761508330906536200,1.5365361328125,-0.002394838258624077,-0.00021188391838222742,-0.0019424643833190203
1761508330916507100,1.546507080078125,-0.0013279765844345093,0.0003191503928974271,0.0002956562675535679
1761508330926479000,1.55647900390625,0.001190542709082365,0.0007885165978223085,-0.0007229046314023435
1761508330936450300,1.5664501953125,0.001448070164769888,-0.0006277525098994374,0.0006369054317474365
1761508330946421200,1.576421142578125,-0.0007047620601952076,0.0002987440675497055,0.0015398822724819183
1761508330956393200,1.586393310546875,-0.00007013045251369476,-0.0015438972041010857,0.00043893151450902224
1761508330966364200,1.5963642578125,0.003720340318977833,-0.000549403834156692,0.00021649827249348164
1761508330976336100,1.606336181640625,0.00020177196711301804,0.00019175384659320116,0.001020772964693606
1761508330986307000,1.61630712890625,0.0021008667536079884,-0.0016058339970186353,-0.0014486390864476562
1761508330996278000,1.626278076171875,-0.0006339331157505512,-0.003562724683433771,0.0013471475103870034
1761508331006250200,1.636250244140625,0.00008230796083807945,-0.00006418954581022263,0.000278233434073627
1761508331016221000,1.646220947265625,0.0008511627092957497,0.0016325104515999556,0.0002145838225260377
1761508331026192100,1.656192138671875,0.001408957876265049,0.0003371386555954814,-0.0013055216986685991
1761508331036164000,1.6661640625,-0.0007042605429887772,-0.001856507151387632,-0.0011270898394286633
1761508331046135300,1.67613525390625,-0.0007148776203393936,-0.001078181667253375,-0.0007443205686286092
1761508331056107300,1.686107177734375,-0.002502657473087311,0.0005836308700963855,0.0018360161921009421
1761508331066078200,1.696078125,-0.0023718923330307007,-0.000327554065734148,-0.0003681425005197525
1761508331076049200,1.706049072265625,0.00001643085852265358,0.0003395677777007222,-0.001035796944051981
1761508331086021000,1.716021240234375,-0.0025422698818147182,-0.00023187859915196896,0.0009734674822539091
1761508331095992000,1.725991943359375,0.0007885457016527653,-0.0007123127579689026,0.0013268690090626478
1761508331105963300,1.73596337890625,-0.0013236310333013535,-0.0007093294989317656,-0.000520544417668134
1761508331115935000,1.74593505859375,-0.0002567688934504986,-0.0004645849112421274,-0.0006893888348713517
1761508331125906200,1.75590625,0.0007141022942960262,0.0010534548200666904,0.0007894950686022639
1761508331135878100,1.765878173828125,-0.0009911195375025272,-0.0017274179263040423,0.002214552368968725
1761508331145849300,1.775849365234375,-0.000453420914709568,0.0017443449469283223,-0.0021121189929544926
1761508331155820000,1.785820068359375,-0.0004361104220151901,0.0003850675420835614,-0.0012101064203307033
1761508331165792300,1.795792236328125,-0.0003254096955060959,0.00178896589204669,0.002228330820798874
1761508331175763200,1.80576318359375,-0.0015230332501232624,-0.0003327745944261551,0.003511974588036537
1761508331185735000,1.81573486328125,0.001048574224114418,0.0006075026467442513,-0.0034626673441380262
1761508331195706000,1.8257060546875,0.0008613541722297668,0.0014213647227734327,0.0018431483767926693
1761508331205677000,1.835677001953125,0.00200678501278162,-0.0010759173892438412,0.00016684271395206451
1761508331215649000,1.84564892578125,0.001743930857628584,-0.0025347969494760036,-0.0001308986684307456
1761508331225620000,1.855619873046875,-0.0026189573109149933,0.002130036475136876,0.001043239259161055
1761508331235591000,1.8655908203125,-0.000046344008296728134,0.0006698252400383353,0.003322905395179987
1761508331245563100,1.875563232421875,-0.0008876188658177853,0.0019312695367261767,0.001471629599109292
1761508331255533800,1.885533935546875,0.001643449068069458,0.00009262317325919867,-0.0006439854623749852
1761508331265506000,1.895506103515625,-0.0011166781187057495,-0.0026828229892998934,-0.0025629792362451553
1761508331275477000,1.90547705078125,-0.0013454444706439972,0.001566516817547381,-0.0003152713179588318
1761508331285448200,1.9154482421875,-0.0015726392157375813,0.00026725942734628916,0.001112418482080102
1761508331295420000,1.925419921875,-0.0002940557897090912,0.0013714060187339783,-0.0014615266118198633
1761508331305391000,1.93539111328125,-0.00007584737613797188,-0.0005630549276247621,-0.0005389383295550942
1761508331315362800,1.94536279296875,-0.0012913141399621964,-0.000735627836547792,-0.0002936611999757588
1761508331325334000,1.955333984375,0.0020099603570997715,-0.0020486318971961737,0.0002491080667823553
1761508331335305000,1.965304931640625,0.00014707911759614944,0.0008315768791362643,-0.0013392012333497405
1761508331345277200,1.975277099609375,0.0019982531666755676,-0.0027166889049112797,-0.000854361685924232
1761508331355247900,1.985247802734375,-0.000803658738732338,-0.0010215867077931762,0.0007219633553177118
1761508331365219000,1.995218994140625,0.00092660216614604,0.0016357246786355972,-0.0014461317332461476
1761508331375191000,2.00519091796875,-0.0021469518542289734,0.00226875813677907,0.001504384446889162
1761508331385162200,2.015162353515625,0.0003364770673215389,0.002358237747102976,0.00043983093928545713
1761508331395134000,2.025134033203125,0.0007679094560444355,-0.0015528806252405047,0.0024310764856636524
1761508331405105200,2.035105224609375,0.0012779519893229008,0.00006987538654357195,0.0016292550135403872
1761508331415076000,2.045076171875,-0.00006721075624227524,-0.0014494580682367086,-0.001248823245987296
1761508331425048000,2.055048095703125,-0.001967252232134342,-0.0005764083471149206,-0.00044122670078650117
1761508331435019000,2.06501904296875,-0.0007011853158473969,-0.0012400681152939796,-0.0016313933301717043
1761508331444991200,2.0749912109375,0.00014880346134305,0.000679820659570396,-0.00031620211666449904
1761508331454962000,2.0849619140625,0.0007384270429611206,-0.0010413804557174444,-0.00039396638749167323
1761508331464933000,2.09493310546875,-0.00029030023142695427,-0.0005603884346783161,-0.00033016898669302464
1761508331474905000,2.104905029296875,-0.0017648926004767418,-0.0019529552664607763,-0.0013743944000452757
1761508331484876000,2.1148759765625,0.0007533226162195206,0.0010194338392466307,-0.0027546770870685577
1761508331494847000,2.124846923828125,-0.0017239497974514961,0.002104139421135187,0.0009412576910108328
1761508331504819200,2.134819091796875,0.0006462358869612217,-0.00020918098744004965,-0.0001926642144098878
1761508331514790100,2.1447900390625,-0.000005706213414669037,0.000997230876237154,-0.0013977446360513568
1761508331524762000,2.15476220703125,0.00032645463943481445,-0.0007303474703803658,-0.0004053874872624874
1761508331534733000,2.164733154296875,0.00030914414674043655,-0.0009338128147646785,-0.00028288207249715924
1761508331544704000,2.1747041015625,0.0003764946013689041,0.000750546925701201,0.0006944281049072742
1761508331554676000,2.184676025390625,0.002535785548388958,0.0020661484450101852,-0.002737587783485651
1761508331564647000,2.19464697265625,-0.0009958301670849323,-0.0006397983524948359,0.0016360926674678922
1761508331574619100,2.204619140625,0.0014327061362564564,-0.001309849787503481,-0.0007996343774721026
1761508331584590000,2.214590087890625,-0.0013593151234090328,0.0015049659414216876,-0.0011822466040030122
1761508331594561000,2.22456103515625,0.001100913155823946,-0.0013603289844468236,-0.000012852600775659084
1761508331604533000,2.234532958984375,0.001438109204173088,-0.0003582085482776165,-0.001357136876322329
1761508331614504200,2.244504150390625,0.0004657893441617489,-0.002593665849417448,0.00037311878986656666
1761508331624475000,2.254474853515625,-0.0019204267300665379,-0.001757166930474341,-0.00123251520562917
1761508331634447000,2.264447021484375,0.0010010604746639729,0.002023456385359168,0.0011078707175329328
1761508331644418000,2.27441796875,0.00277128629386425,0.0027514100074768066,-0.00008657318539917469
1761508331654390000,2.28439013671875,0.0003808331675827503,-0.000022005988284945488,-0.0024245623499155045
1761508331664361000,2.29436083984375,0.0009530680254101753,-0.0004532989114522934,0.00044728082139045
1761508331674332200,2.304332275390625,-0.001970550511032343,-0.0005150842480361462,0.0022302670404314995
1761508331684304000,2.314303955078125,-0.0019262521527707577,0.00010753178503364325,-0.0006281894748099148
1761508331694275000,2.324275146484375,-0.0009336923249065876,0.0007837083539925516,0.0008432070026174188
1761508331704247000,2.3342470703125,0.0004561259411275387,-0.0015469621866941452,0.0012133970158174634
1761508331714218200,2.34421826171875,-0.0017039640806615353,-0.0001778311561793089,-0.00020207324996590614
1761508331724189000,2.35418896484375,-0.0008276919834315777,0.0013514760648831725,-0.0005651648971252143
1761508331734161200,2.3641611328125,0.002218698151409626,-0.0005026167491450906,0.0009123568888753653
1761508331744132000,2.374132080078125,-0.0013144249096512794,-0.000017228303477168083,0.0010849101236090064
1761508331754103000,2.38410302734375,0.0002661612816154957,0.0006498935399577022,0.000004732050001621246
1761508331764075000,2.394074951171875,-0.0016002827323973179,-0.0006005018949508667,0.002379193902015686
1761508331774046000,2.4040458984375,-0.0004652435891330242,-0.0007219419348984957,-0.0006677287165075541
1761508331784018000,2.414017822265625,-0.0002112286165356636,-0.0017422112869098783,-0.0006949754897505045
1761508331793988900,2.42398876953125,0.00092301145195961,0.001159302657470107,-0.000979134812951088
1761508331803960000,2.4339599609375,0.000986398197710514,0.0004530703881755471,-0.0017602044390514493
1761508331813932000,2.44393212890625,-0.0016445387154817581,0.00320518109947443,0.002920034807175398
1761508331823903000,2.453903076171875,0.0012758574448525906,0.0007019687909632921,0.00024018727708607912
1761508331833875000,2.463875,-0.002363885287195444,-0.0008858077926561236,0.0014527244493365288
1761508331843846100,2.47384619140625,0.0006172675639390945,-0.001970579382032156,-0.0016882340423762798
1761508331853817000,2.483817138671875,0.0009232647716999054,-0.00006721832323819399,-0.0006043274770490825
1761508331863789000,2.4937890625,-0.0006405538879334927,0.0014667011564597487,-0.0023857750929892063
1761508331873760000,2.503760009765625,0.0011288505047559738,-0.0005999119020998478,0.0006329179741442204
1761508331883731200,2.513731201171875,-0.00048209307715296745,-0.0007277685217559338,-0.0013505539391189814
1761508331893703000,2.523702880859375,0.0024186219088733196,0.0005436245119199157,-0.00011031981557607651
1761508331903674000,2.533674072265625,-0.002599455416202545,0.0031723063439130783,-0.002348341979086399
1761508331913646000,2.54364599609375,0.0006224368698894978,-0.00008394080214202404,0.0016386766219511628
1761508331923617000,2.553616943359375,-0.0005626287311315536,0.0008193192188628018,-0.001204123836942017
1761508331933588000,2.563587890625,-0.0001660841517150402,-0.00025260308757424355,-0.00008346571121364832
1761508331943560200,2.573560302734375,0.00029699038714170456,0.0008369895513169467,-0.0031148106791079044
1761508331953531100,2.58353125,-0.0009296615608036518,0.0005317912437021732,-0.0033353203907608986
1761508331963501800,2.593501708984375,0.0018330533057451248,0.0016356355044990778,-0.00001352617982774973
1761508331973474000,2.60347412109375,-0.0015089469961822033,0.0005735668819397688,-0.00012111791875213385
1761508331983445000,2.613445068359375,0.0015849219635128975,0.00010593957267701626,0.001889483886770904
1761508331993417000,2.6234169921875,-0.0009288359433412552,0.002139529213309288,0.00017147872131317854
1761508332003388000,2.633387939453125,0.0002755904570221901,-0.0017843596870079637,0.00345914950594306
1761508332013359000,2.643359130859375,-0.0008280235342681408,0.0009682836243882775,-0.0012298780493438244
1761508332023330800,2.653330810546875,0.0005081729032099247,-0.0016185035929083824,-0.002034833189100027
1761508332033302000,2.663302001953125,0.002319655381143093,0.001039064722135663,-0.0009389424812979996
1761508332043274000,2.67327392578125,0.00011265464127063751,0.0007423977367579937,-0.002140243537724018
1761508332053245200,2.6832451171875,-0.0019465014338493347,0.0031797229312360287,-0.0007444808725267649
1761508332063215900,2.6932158203125,-0.0005597276613116264,-0.0013744125608354807,-0.0006527345394715667
1761508332073188000,2.70318798828125,0.0008445573039352894,-0.0006489674560725689,-0.0003960058093070984
1761508332083159000,2.713158935546875,-0.00007474701851606369,0.000584860797971487,0.0014321261551231146
1761508332093131000,2.723131103515625,0.00009809248149394989,0.001394195482134819,-0.0015700553776696324
1761508332103102000,2.73310205078125,0.0014678793959319592,0.0007787205977365375,-0.001092838472686708
1761508332113073200,2.7430732421875,-0.0015593357384204865,-0.0005264945793896914,0.0007913480512797832
1761508332123044900,2.753044921875,-0.0003320877440273762,-0.00018287671264261007,0.002340432023629546
1761508332133016000,2.76301611328125,-0.00024926289916038513,0.0007106137927621603,0.001102594891563058
1761508332142987000,2.772987060546875,-0.00014980696141719818,-0.0003079748712480068,-0.00029877835186198354
1761508332152959200,2.782959228515625,-0.000997757539153099,0.0001998899970203638,0.0006141532212495804
1761508332162930000,2.792929931640625,0.001786768902093172,0.001056259498000145,-0.0004973423783667386
1761508332172902100,2.802902099609375,-0.0009922399185597897,0.0008852845639921725,0.001259278622455895
1761508332182873000,2.812873046875,-0.000715556088835001,0.0007538103964179754,-0.0005531488568522036
1761508332192844000,2.822843994140625,-0.001647395547479391,-0.0006992102134972811,0.0007326252525672317
1761508332202816000,2.83281591796875,0.000221379566937685,-0.0001673630904406309,0.0006939275190234184
1761508332212787000,2.842786865234375,0.0008626687340438366,0.0014126903843134642,-0.0013330044457688928
1761508332222759000,2.852759033203125,-0.002460090909153223,0.00017880962695926428,0.00001592189073562622
1761508332232729900,2.862729736328125,0.0026840707287192345,0.0004328752402216196,-0.000012573902495205402
1761508332242700800,2.87270068359375,0.0004900814965367317,-0.0009254046017304063,-0.00015438091941177845
1761508332252673000,2.882673095703125,0.0009566671214997768,0.0005374698666855693,-0.00006915978156030178
1761508332262643700,2.892643798828125,0.00023005623370409012,0.00045723782386630774,-0.0011365888640284538
1761508332272615000,2.902614990234375,-0.0007007187232375145,0.00007587310392409563,0.0013550646835938096
1761508332282587000,2.9125869140625,-0.0005374695174396038,-0.001535920542664826,-0.0012105528730899096
1761508332292558000,2.92255810546875,-0.0009609120897948742,-0.0012584190117195249,0.001429971307516098
1761508332302529800,2.93252978515625,-0.00012216810137033463,0.0001379791647195816,0.00023037893697619438
1761508332312501000,2.9425009765625,-0.001181307714432478,-0.0016255660448223352,-0.0016905592055991292
1761508332322472000,2.952471923828125,0.002090602647513151,-0.0009355531074106693,0.0007066036341711879
1761508332332444000,2.96244384765625,0.00029137078672647476,-0.001056460663676262,0.000682901474647224
1761508332342414800,2.972414794921875,0.0001768004149198532,0.0029759719036519527,0.004628445021808147
1761508332352386000,2.982385986328125,0.0012916000559926033,0.003195416182279587,-0.00004700035788118839
1761508332362357800,2.992357666015625,0.00009689619764685631,-0.002212433610111475,0.002564776223152876
1761508332372329000,3.002328857421875,0.0008774683810770512,0.0007753670215606689,-0.0008350151474587619
1761508332382301000,3.012301025390625,-0.0016254568472504616,-0.0014618998393416405,-0.000384046055842191
1761508332392272000,3.02227197265625,0.0023833997547626495,0.0018209787085652351,-0.0022147030103951693
1761508332402242800,3.032242919921875,-0.0014375760219991207,0.0012315332423895597,0.0012587672099471092
1761508332412215000,3.042215087890625,0.00016191881150007248,0.0002874425845220685,0.003855349263176322
1761508332422186000,3.05218603515625,-0.00010579545050859451,-0.0006272741593420506,-0.0001585251884534955
1761508332432158000,3.062157958984375,-0.0010394994169473648,0.0017717014998197556,-0.0005670540849678218
1761508332442129000,3.07212890625,-0.0006269868463277817,-0.0014876885106787086,-0.000245381030254066
1761508332452099800,3.082099853515625,-0.0012006321921944618,0.0004020906053483486,-0.0014810877619311213
1761508332462071800,3.09207177734375,0.0012724250555038452,-0.0007474323501810431,0.0001775857526808977
1761508332472042800,3.102042724609375,-0.0007888614200055599,-0.00023344217333942652,0.0021097089629620314
1761508332482014000,3.112013916015625,0.0006471145898103714,-0.000284307636320591,-0.0015980591997504234
1761508332491986000,3.12198583984375,0.000012749806046485901,-0.0008851168677210808,-0.0021272292360663414
1761508332501956900,3.131956787109375,0.0008477848023176193,0.00045105733443051577,0.0015780206304043531
1761508332511928800,3.1419287109375,0.001248857006430626,-0.0012488384963944554,-0.00021455308888107538
1761508332521900000,3.151900146484375,0.0018233279697597027,0.0005633172113448381,-0.0007514357566833496
1761508332531870700,3.16187060546875,0.001448621042072773,-0.0008385707624256611,0.00035803718492388725
1761508332541843000,3.171843017578125,0.000662563368678093,0.0005761299398727715,-0.0007028683321550488
1761508332551814000,3.18181396484375,0.001990948338061571,-0.000930686597712338,-0.0003814247902482748
1761508332561785900,3.191785888671875,-0.0019622989930212498,0.002158434595912695,0.0021119555458426476
1761508332571756800,3.2017568359375,0.0027126139029860497,0.0005879685049876571,0.00034308398608118296
1761508332581728000,3.21172802734375,-0.0021690474823117256,0.0018200038466602564,-0.0012650382705032825
1761508332591699700,3.22169970703125,-0.0008774138987064362,0.0009009470231831074,-0.0014519921969622374
1761508332601671000,3.2316708984375,-0.0010023084469139576,-0.0007247913163155317,-0.00016061181668192148
1761508332611641900,3.241641845703125,-0.0010896599851548672,0.0017439589137211442,-0.004680262412875891
1761508332621614000,3.251614013671875,0.0007773963734507561,-0.0018702666275203228,-0.0015439013950526714
1761508332631584800,3.261584716796875,-0.0007307515479624271,0.00025866448413580656,0.0003919504815712571
1761508332641557000,3.271556884765625,0.0009887958876788616,-0.00013405876234173775,0.002511297818273306
1761508332651528000,3.28152783203125,-0.0005252109840512276,-0.0008139638230204582,0.0010375045239925385
1761508332661499100,3.2914990234375,-0.0004943083040416241,0.0015430848579853773,-0.0003767063608393073
1761508332671470800,3.301470947265625,-0.0015366696752607822,0.000376087729819119,-0.00133650959469378
1761508332681442000,3.311442138671875,0.00003672949969768524,0.0007065729587338865,-0.0025466831866651773
1761508332691413800,3.321413818359375,-0.00034623267129063606,0.0003861946752294898,-0.0013189659221097827
1761508332701385000,3.331385009765625,0.0013947105035185814,0.0010806063655763865,-0.00025289622135460377
1761508332711356000,3.34135595703125,-0.0014095981605350971,0.0030215182341635227,-0.0022697080858051777
1761508332721328000,3.351328125,-0.0011879806406795979,-0.0009271837770938873,-0.0027376613579690456
1761508332731298800,3.361298828125,0.003109296318143606,-0.0001806997461244464,0.0006671900628134608
1761508332741269800,3.371269775390625,0.00025113020092248917,-0.00022832723334431648,0.00010689080227166414
1761508332751242000,3.381241943359375,-0.0015321220271289349,0.001055316417478025,-0.0033693332225084305
1761508332761213000,3.391212890625,-0.0024903430603444576,0.0013871054397895932,-0.0013765014009550214
1761508332771185000,3.401184814453125,-0.00041653914377093315,-0.0020161480642855167,0.001343651209026575
1761508332781155800,3.41115576171875,-0.0007052957080304623,-0.00017008173745125532,-0.0029215048998594284
1761508332791127000,3.421126953125,-0.0011031716130673885,0.001832881709560752,-0.00010547833517193794
1761508332801098800,3.4310986328125,-0.0014694612473249435,0.000006823218427598476,0.0006468851352110505
1761508332811070000,3.441070068359375,0.001274127047508955,-0.0001393842976540327,-0.00016564526595175266
1761508332821042000,3.4510419921875,0.0013489853590726852,-0.0031573008745908737,-0.0019903129432350397
1761508332831012900,3.461012939453125,-0.0006968551315367222,-0.0006888167699798942,0.0007913588779047132
1761508332840983800,3.47098388671875,0.0003759702667593956,0.002089405432343483,-0.0007863164646551013
1761508332850956000,3.4809560546875,0.000796217005699873,-0.0019066676031798124,-0.0010305283358320594
1761508332860927000,3.490927001953125,0.0000649457797408104,0.0006943473126739264,-0.00025497429305687547
1761508332870898000,3.50089794921875,0.0004934482276439667,0.0014059438835829496,0.002498201560229063
1761508332880870000,3.510869873046875,0.0005126842297613621,0.0013002543710172176,-0.0026061004027724266
1761508332890841000,3.520841064453125,0.0003635468892753124,-0.0003050991799682379,-0.0012987545924261212
1761508332900812800,3.530812744140625,0.0005572005175054073,-0.001001862925477326,-0.0005055360961705446
1761508332910784000,3.540783935546875,0.000341217964887619,0.0004913713783025742,-0.0003537359298206866
1761508332920755000,3.5507548828125,0.0006216280162334442,-0.00021939072757959366,0.0019528386183083057
1761508332930727000,3.560726806640625,-0.0013400563038885593,-0.00038530572783201933,0.0023744171485304832
1761508332940697900,3.57069775390625,-0.0011834623292088509,0.0003485495690256357,-0.00028097216272726655
1761508332950670000,3.580670166015625,0.0022219219245016575,-0.0010924868984147906,-0.0010106783593073487
1761508332960641000,3.59064111328125,-0.00016985787078738213,-0.00013419368769973516,-0.002611753297969699
1761508332970611700,3.60061181640625,-0.001254829578101635,0.001940142479725182,-0.00011264299973845482
1761508332980584000,3.610583984375,-0.000008192844688892365,-0.00033750245347619057,-0.002316886093467474
1761508332990555000,3.620554931640625,-0.0010548150166869164,-0.0020384634844958782,-0.002336859703063965
1761508333000525800,3.63052587890625,-0.00006798794493079185,0.0017661729361861944,-0.0002800171496346593
1761508333010497800,3.640497802734375,0.0012569348327815533,0.0008681549807079136,0.0006406375905498862
1761508333020469000,3.650468994140625,-0.0011936635710299015,0.00198468123562634,-0.0008006748976185918
1761508333030440700,3.660440673828125,0.0015619085170328617,-0.000006830552592873573,-0.0008667213260196149
1761508333040412000,3.670411865234375,-0.002115996554493904,-0.0019341983133926988,0.00028715061489492655
1761508333050382800,3.6803828125,0.002430019434541464,-0.0008841139497235417,-0.001985058421269059
1761508333060355000,3.69035498046875,-0.0016410620883107185,0.0006570888217538595,-0.000044749933294951916
1761508333070325800,3.70032568359375,0.00041969213634729385,0.00012685346882790327,-0.0011275912402197719
1761508333080297000,3.710296875,0.00029103178530931473,0.00045714236330240965,-0.0013524722307920456
1761508333090269000,3.72026904296875,-0.0011393525637686253,0.000999628333374858,-0.00004725693725049496
1761508333100240000,3.730239990234375,-0.0008716252632439137,0.0003808261826634407,-0.0006617715116590261
1761508333110211800,3.7402119140625,-0.0005890638567507267,-0.0008530162740498781,0.0008919165702536702
1761508333120183000,3.75018310546875,0.0008988520130515099,0.001185223925858736,0.0001437055179849267
1761508333130154000,3.760154052734375,0.0011651678942143917,0.00035698083229362965,0.000730666215531528
1761508333140126000,3.7701259765625,0.001046113669872284,0.00027491908986121416,-0.0005128788179717958
1761508333150097000,3.780096923828125,-0.0006822780705988407,0.0012248685816302896,0.00037422007881104946
1761508333160068900,3.79006884765625,-0.0015059555880725384,-0.0009714252082630992,-0.0002756734029389918
1761508333170039800,3.800039794921875,-0.0027517820708453655,0.0003425783943384886,0.0015033181989565492
1761508333180011500,3.810011474609375,-0.002599101047962904,0.0006270908052101731,-0.0007645368459634483
1761508333189983500,3.8199833984375,-0.00107151223346591,0.0002992557128891349,-0.0010204666759818792
1761508333199954400,3.829954345703125,-0.0003668060526251793,0.0005728713585995138,-0.0009019619901664555
1761508333209926400,3.839926513671875,-0.00038491562008857727,0.001822692807763815,0.0005976640386506915
1761508333219897600,3.849897705078125,0.0008591022342443466,-0.0022761726286262274,0.00011954852379858494
1761508333229868300,3.859868408203125,-0.0012312126345932484,0.0016754257958382368,-0.0011020435485988855
1761508333239840500,3.869840576171875,0.00047601014375686646,0.0020398038905113935,0.0009185584494844079
1761508333249811500,3.8798115234375,0.00039851199835538864,-0.0006039162399247289,-0.002604004694148898
1761508333259782400,3.889782470703125,-0.0006449837237596512,-0.0005227738292887807,0.00012208253610879183
1761508333269754400,3.89975439453125,-0.00012460164725780487,0.0013970989966765046,0.0018342288676649332
1761508333279725300,3.909725341796875,-0.00026874756440520287,-0.00038760167080909014,0.0006772419437766075
1761508333289697500,3.919697509765625,0.0012098397128283978,-0.000824626418761909,0.00020985712762922049
1761508333299668200,3.929668212890625,0.00038357265293598175,0.0006759606767445803,-0.0002513329382054508
1761508333309639400,3.939639404296875,-0.00028221774846315384,-0.000014863326214253902,-0.0005141869187355042
1761508333319611400,3.949611328125,0.0013625831343233585,-0.0002878981176763773,-0.002490539802238345
1761508333329582300,3.959582275390625,-0.00026008114218711853,0.0002460656687617302,-0.002340869978070259
1761508333339554300,3.96955419921875,-0.0007534879259765148,0.00045883748680353165,-0.0008407698478549719
1761508333349525500,3.979525390625,-0.0002288450486958027,-0.0011044382117688656,-0.0010407732333987951
1761508333359496400,3.989496337890625,-0.0005401521921157837,0.0007121367380023003,0.0021659554913640022
1761508333369468400,3.999468505859375,0.000589294359087944,0.0009723276016302407,-0.00004100613296031952
1761508333379439400,4.009439453125,-0.0035643689334392548,0.0007753667305223644,0.00023595010861754417
1761508333389410600,4.01941064453125,-0.00037896260619163513,-0.0008909731404855847,-0.0019997735507786274
1761508333399382300,4.02938232421875,0.00029372982680797577,-0.000712978420779109,-0.0004629151662811637
1761508333409353500,4.039353515625,-0.0009928429499268532,0.0008385791443288326,-0.0011478802189230919
1761508333419325400,4.049325439453125,-0.00029147369787096977,-0.0017604471649974585,-0.004067595582455397
1761508333429296400,4.05929638671875,-0.0013066711835563183,-0.0012579085305333138,-0.0015695502515882254
1761508333439267300,4.069267333984375,0.0002264808863401413,-0.0019753878004848957,0.003363386495038867
1761508333449239600,4.079239501953125,-0.0013112286105751991,0.00030454457737505436,0.00044775777496397495
1761508333459210500,4.08921044921875,0.000724070705473423,-0.00039725564420223236,-0.00034915789728984237
1761508333469182500,4.099182373046875,-0.0012748981826007366,-0.00031949125695973635,0.0008007950382307172
1761508333479153400,4.1091533203125,0.0006780805997550488,-0.0027783510740846395,0.00428065424785018
1761508333489124400,4.119124267578125,-0.00013258541002869606,-0.001193503849208355,-0.0014917473308742046
1761508333499096300,4.129096435546875,0.00018499791622161865,0.002293965080752969,0.001353076659142971
1761508333509067300,4.1390673828125,0.0010931356810033321,-0.0015899890568107367,0.0007895518792793155
1761508333519038500,4.14903857421875,-0.0015053949318826199,0.001941091613844037,-0.00302360812202096
1761508333529010200,4.15901025390625,0.001238726545125246,-0.000838183332234621,-0.0003226302796974778
1761508333538981400,4.1689814453125,-0.0016472553834319115,-0.00014170340728014708,-0.0025078603066504
1761508333548953300,4.178953369140625,0.0023317732848227024,0.00012834114022552967,0.001380354748107493
1761508333558924500,4.188924560546875,-0.001466499175876379,-0.002885160967707634,0.0013320348225533962
1761508333568895200,4.198895263671875,0.0006906618364155293,-0.002012975513935089,-0.00007517950143665075
1761508333578867500,4.208867431640625,0.0004771728999912739,0.0011896456126123667,-0.0005635920679196715
1761508333588838400,4.21883837890625,-0.0010016807354986668,-0.0021012225188314915,0.0012939628213644028
1761508333598809600,4.2288095703125,0.0002538473345339298,-0.0023955856449902058,-0.002086434978991747
1761508333608781300,4.23878125,-0.0006417739205062389,0.00017915840726345778,-0.003610295709222555
1761508333618752500,4.24875244140625,0.002817292232066393,-0.001164322136901319,-0.00008625007467344403
1761508333628724200,4.25872412109375,0.0021325936540961266,0.0004309111973270774,0.0001864576479420066
1761508333638695400,4.2686953125,-0.0012242700904607773,-0.00049641914665699,0.0008561850991100073
1761508333648666400,4.278666259765625,-0.0015667527914047241,-0.00004900805652141571,-0.0013004427310079336
1761508333658638600,4.288638671875,0.0015038163401186466,-0.001063880859874189,-0.0008712462731637061
1761508333668609300,4.298609375,0.0002734363079071045,-0.00113818293903023,0.0009892380330711603
1761508333678581500,4.30858154296875,-0.001859602052718401,0.002063681371510029,-0.002382212085649371
1761508333688552400,4.318552490234375,-0.001299272757023573,-0.00021438661497086287,-0.002824296709150076
1761508333698523600,4.328523681640625,-0.0013944958336651325,-0.0005864655831828713,0.0010970038129016757
1761508333708495400,4.338495361328125,0.001105413306504488,-0.0016157772624865174,0.0006551854312419891
1761508333718466600,4.348466552734375,0.0011490453034639359,0.0015041480073705316,-0.0008917782688513398
1761508333728437500,4.3584375,0.000514680054038763,-0.00007590546738356352,-0.0011815301841124892
1761508333738409500,4.368409423828125,0.0020441636443138123,0.0009599432814866304,-0.00038721360033378005
1761508333748381400,4.37838134765625,0.0002097785472869873,0.00018629501573741436,-0.000009311013855040073
1761508333758352600,4.3883525390625,0.001291430089622736,0.0007458408363163471,-0.00033673038706183434
1761508333768323300,4.3983232421875,-0.0012140721082687378,0.0017168293707072735,-0.00006109324749559164
1761508333778295600,4.408295654296875,-0.000803050585091114,-0.0009586281375959516,0.002678429242223501
1761508333788266500,4.4182666015625,0.0001748627983033657,-0.00018764298874884844,-0.0005445281276479363
1761508333798238500,4.428238525390625,0.001765687484294176,-0.0018990294774994254,-0.00013077084440737963
1761508333808209400,4.43820947265625,-0.001471119001507759,0.0010645361617207527,0.0009046661434695125
1761508333818180400,4.448180419921875,0.0003882511518895626,-0.001040901173837483,-0.000675363524351269
1761508333828152300,4.45815234375,-0.001556122675538063,0.00018148962408304214,0.0002386333653703332
1761508333838123300,4.468123291015625,0.00007496681064367294,-0.0003722170367836952,0.0006076594581827521
1761508333848095500,4.478095458984375,0.0015990938991308212,-0.0022209833841770887,0.001488366862758994
1761508333858066400,4.48806640625,-0.0003666151314973831,0.0010139563819393516,0.0013501523062586784
1761508333868037400,4.498037353515625,-0.0006814002990722656,-0.0009815500816330314,0.000944286584854126
1761508333878009300,4.50800927734375,-0.0012410599738359451,-0.002489965409040451,-0.0036170142702758312
1761508333887980500,4.51798046875,0.0005030441097915173,-0.00018233596347272396,-0.00016289431368932128
1761508333897951500,4.527951416015625,0.0004449421539902687,0.0023385409731417894,-0.0003794759977608919
1761508333907923500,4.53792333984375,-0.0002229786477982998,0.002185142831876874,0.0005883167032152414
1761508333917894400,4.547894287109375,0.0015475079417228699,-0.0005693048005923629,0.00037980033084750175
1761508333927866400,4.557866455078125,0.0015445784665644169,-0.0010492064757272601,-0.001014364417642355
1761508333937837300,4.56783740234375,0.0022753137163817883,0.0001403667265549302,0.0022812364622950554
1761508333947808500,4.57780859375,-0.00007812166586518288,0.00012492039240896702,-0.0010503779631108046
1761508333957780500,4.587780517578125,0.0007735360413789749,0.00029128394089639187,0.001970567274838686
1761508333967751400,4.59775146484375,-0.0007966640405356884,0.00041299033910036087,0.001381209585815668
1761508333977723400,4.607723388671875,0.002428110223263502,-0.000029943068511784077,-0.00023856776533648372
1761508333987694600,4.617694580078125,0.0012009255588054657,0.0019708899781107903,-0.0007837168523110449
1761508333997665300,4.627665283203125,-0.0012554638087749481,0.0004696273244917393,0.0006097578443586826
1761508334007637500,4.637637451171875,0.0008990336209535599,-0.00039829686284065247,0.001836409792304039
1761508334017608400,4.6476083984375,0.0007731262594461441,0.0007642936543561518,-0.002544908784329891
1761508334027579400,4.657579345703125,-0.0004202364943921566,-0.0003742077387869358,0.0005603370955213904
1761508334037551400,4.66755126953125,-0.0013714008964598179,0.0023693074472248554,-0.0002973290393128991
1761508334047522300,4.677522216796875,0.001255807001143694,0.0009724793490022421,0.0000110650435090065
1761508334057494500,4.68749462890625,0.0009723654948174953,-0.0012785850558429956,0.00019002053886651993
1761508334067465200,4.69746533203125,-0.0005690720863640308,-0.0005225136410444975,0.00015646463725715876
1761508334077436400,4.7074365234375,0.0004051746800541878,0.0005488198949024081,-0.00010201515397056937
1761508334087408400,4.717408447265625,-0.0014933929778635502,-0.00039100961294025183,-0.0014442482497543097
1761508334097379300,4.72737939453125,-0.0003015473484992981,-0.0016815082635730505,0.0015453007072210312
1761508334107351300,4.737351318359375,-0.0013686753809452057,-0.0008410145528614521,0.002398311160504818
1761508334117322500,4.747322509765625,-0.0020774146541953087,0.00285709323361516,-0.00024004047736525536
1761508334127293400,4.75729345703125,0.00026270514354109764,0.0008623854373581707,-0.00018358143279328942
1761508334137265400,4.767265380859375,-0.00019307900220155716,0.000659099780023098,0.00007925974205136299
1761508334147236400,4.777236328125,-0.0014351769350469112,-0.004136987030506134,-0.0008914624340832233
1761508334157207600,4.78720751953125,0.00013378076255321503,-0.0015673850430175662,-0.001025992794893682
1761508334167179300,4.79717919921875,-0.0011533251963555813,0.0014217470306903124,0.0004454036243259907
1761508334177150500,4.807150390625,-0.0004304214380681515,0.001271053683012724,0.001485291519202292
1761508334187122400,4.817122314453125,-0.00045865075662732124,0.0007602593977935612,0.0003806123277172446
1761508334197093400,4.82709326171875,-0.0007829535752534866,0.0005263449857011437,0.00033684156369417906
1761508334207064300,4.837064208984375,0.0013174815103411674,-0.00016554421745240688,0.0003056826535612345
1761508334217036500,4.84703662109375,0.00041353655979037285,0.00044636079110205173,0.0005415811901912093
1761508334227007500,4.857007568359375,-0.0014663892798125744,-0.0010090568102896214,-0.0015316897770389915
1761508334236979500,4.8669794921875,-0.00047666626051068306,0.0016836010618135333,0.0008783151861280203
1761508334246950400,4.876950439453125,-0.00046867644414305687,-0.0019606687128543854,0.0014913749182596803
1761508334256921600,4.886921630859375,-0.0001820530742406845,0.0019180870149284601,-0.000614483724348247
1761508334266893300,4.896893310546875,0.00211572227999568,0.00011592591181397438,0.001471303985454142
1761508334276864500,4.906864501953125,0.0006348825991153717,0.0015154887223616242,0.001945106778293848
1761508334286835500,4.91683544921875,-0.0008008275181055069,0.001107492484152317,-0.0003180475323460996
1761508334296807400,4.926807373046875,-0.0009931190870702267,-0.0003013844834640622,0.0012947175418958068
1761508334306778400,4.9367783203125,-0.0023896810598671436,0.0007132798782549798,-0.001462186686694622
1761508334316750600,4.94675048828125,-0.0007755099795758724,-0.0003707417054101825,-0.0018107525538653135
1761508334326721500,4.956721435546875,0.0002237078733742237,-0.0007302684243768454,0.0005480091786012053
1761508334336692200,4.966692138671875,0.0001406087540090084,0.00029044400434941053,0.0015012132935225964
1761508334346664400,4.97666455078125,-0.0019912519492208958,-0.00004404899664223194,-0.0028898066375404596
1761508334356635400,4.986635498046875,-0.0015048314817249775,0.0005470648175105453,-0.0021399520337581635
1761508334366607400,4.996607421875,0.0001974613405764103,-0.0014332619030028582,0.001391932019032538
1761508334376578300,5.006578369140625,-0.00026537617668509483,-0.0006884705508127809,0.0019191422034054995
1761508334386549500,5.016549560546875,-0.001357539091259241,-0.0009665045654401183,-0.0007504105451516807
1761508334396521200,5.026521240234375,-0.0006880317814648151,0.0005832818569615483,0.0001037034671753645
1761508334406492400,5.036492431640625,-0.000057128723710775375,-0.0005975636886432767,0.001803865539841354
1761508334416463400,5.04646337890625,0.0014922916889190674,0.00009926687926054001,0.002395494608208537
1761508334426435600,5.056435546875,-0.001310685183852911,-0.0016395108541473746,0.0004742902237921953
1761508334436406300,5.06640625,0.001078727189451456,0.003607523627579212,0.000576019287109375
1761508334446378500,5.07637841796875,0.001078993547707796,0.0017861878732219338,-0.0007177443476393819
1761508334456349400,5.086349365234375,0.0005995067767798901,-0.00046925561036914587,-0.0015181087655946612
1761508334466320600,5.096320556640625,0.0001651449128985405,-0.002287395764142275,-0.003505093278363347
1761508334476292400,5.106292236328125,-0.0003788117319345474,0.0003221859224140644,0.0023924235720187426
1761508334486263600,5.116263671875,0.0005325218662619591,-0.00038754648994654417,-0.00005741824861615896
1761508334496235300,5.1262353515625,-0.0007160641252994537,0.0018048263154923916,-0.001604581018909812
1761508334506206500,5.13620654296875,0.0017324462532997131,0.001814946299418807,0.0004087686538696289
1761508334516177400,5.146177490234375,0.00015663821250200272,-0.0015316464705392718,-0.000829340482596308
1761508334526149600,5.156149658203125,0.0013252333737909794,0.0018974398262798786,-0.002593151992186904
1761508334536120300,5.166120361328125,-0.0022627953439950943,0.002921213861554861,0.0007003725040704012
1761508334546091300,5.17609130859375,0.00034150946885347366,-0.00010440335609018803,0.00008678017184138298
1761508334556063500,5.1860634765625,0.0014479020610451698,-0.0000375362578779459,-0.000925565545912832
1761508334566034400,5.196034423828125,0.00048170704394578934,0.0005707297241315246,0.00023237685672938824
1761508334576006400,5.20600634765625,-0.0006441655568778515,0.0009623327641747892,0.0008745241211727262
1761508334585977300,5.215977294921875,0.000516706146299839,0.002420147182419896,0.0003256467171013355
1761508334595948500,5.225948486328125,0.00008484488353133202,0.0012763055274263024,-0.0004181243712082505
1761508334605920300,5.235920166015625,-0.0014275647699832916,0.0005929383914917707,0.0009864267194643617
1761508334615891500,5.245891357421875,0.0002014744095504284,0.003204770851880312,0.0025855149142444134
1761508334625863400,5.255863525390625,-0.000979370903223753,-0.0021372640039771795,-0.0006209310377016664
1761508334635834400,5.26583447265625,0.00042284000664949417,0.0016532355220988393,0.0018900432623922825
1761508334645805300,5.275805419921875,-0.00030526798218488693,0.0005086088785901666,0.0015675344038754702
1761508334655777500,5.285777587890625,0.00045419717207551,-0.0017397667979821563,-0.0008850648300722241
1761508334665748500,5.29574853515625,0.0031107007525861263,-0.00232166750356555,-0.0022525980602949858
1761508334675720400,5.305720458984375,0.001185789704322815,-0.0014469308080151677,0.0014364292146638036
1761508334685691400,5.31569140625,-0.0014589950442314148,0.00040236825589090586,-0.0011934423819184303
1761508334695662600,5.32566259765625,-0.0011518369428813457,0.00014515628572553396,0.0016261939890682697
1761508334705634300,5.33563427734375,-0.0009491709060966969,-0.0015414234949275851,0.0013774547260254622
1761508334715605500,5.34560546875,-0.001901756040751934,0.0012153477873653173,-0.00004997855285182595
1761508334725576400,5.355576416015625,0.0009108087979257107,-0.0006115807918831706,0.0013199513778090477
1761508334735548400,5.36554833984375,-0.0008027502335608006,-0.0026810457929968834,0.00004102534148842096
1761508334745519400,5.375519287109375,-0.0002259095199406147,0.0004119493532925844,0.0018253432353958488
1761508334755491600,5.38549169921875,0.000017743557691574097,-0.0006485913181677461,-0.0019353326642885804
1761508334765462300,5.395462158203125,-0.0015271562151610851,-0.0006973271956667304,-0.0031966057140380144
1761508334775433200,5.40543310546875,-0.0011840411461889744,-0.0009921048767864704,0.003090793266892433
1761508334785405400,5.415405517578125,-0.0013781855814158916,0.0013959516072645783,0.001234037452377379
1761508334795376400,5.42537646484375,-0.000043744221329689026,-0.0021328050643205643,-0.002074293326586485
1761508334805347300,5.435347412109375,0.001990910619497299,-0.0002653963165357709,0.00030337669886648655
1761508334815319300,5.4453193359375,-0.00034779636189341545,-0.00045932410284876823,0.0000645719701424241
1761508334825290500,5.45529052734375,-0.000021559186279773712,-0.0015245885588228703,-0.001268606400117278
1761508334835262200,5.46526220703125,0.00018448010087013245,0.0004731608787551522,-0.0010330940131098032
1761508334845233400,5.4752333984375,0.001634038519114256,0.0008324212394654751,-0.0011702468618750572
1761508334855204400,5.485204345703125,-0.00022487668320536613,0.00015509966760873795,0.00008727982640266418
1761508334865176300,5.49517626953125,0.0014569098129868507,0.00304036820307374,-0.0009281834936700761
1761508334875147300,5.505147216796875,-0.0011405679397284985,0.0008401575032621622,-0.0012691395822912455
1761508334885119500,5.515119384765625,-0.00037064822390675545,-0.0013364440528675914,-0.0016563632525503635
1761508334895090400,5.52509033203125,-0.00023446697741746902,0.001980224624276161,0.00008641392923891544
1761508334905061400,5.535061279296875,0.000282985158264637,-0.0016430059913545847,0.0009229127317667007
1761508334915033300,5.545033447265625,0.001226088497787714,0.0008635678677819669,0.0013749017380177975
1761508334925004500,5.555004638671875,0.0004234118387103081,0.00015037332195788622,0.0013514659367501736
1761508334934975500,5.5649755859375,0.000056416261941194534,0.002051660558208823,-0.0019877273589372635
1761508334944947500,5.574947509765625,-0.00029778433963656425,0.0011057057417929173,0.003130335360765457
1761508334954918400,5.58491845703125,-0.001390497200191021,0.0004853227874264121,0.0008427797583863139
1761508334964890400,5.594890380859375,-0.0004155132919549942,0.0016368735814467072,0.0019163000397384167
1761508334974861300,5.604861328125,-0.00023875292390584946,-0.00025063054636120796,-0.0014591087820008397
1761508334984832500,5.61483251953125,0.001347159966826439,-0.001708178548142314,-0.002513720653951168
1761508334994804500,5.624804443359375,0.00031825248152017593,0.00022546062245965004,0.000388653133995831
1761508335004775400,5.634775390625,-0.0007270388305187225,-0.00047788023948669434,0.0013098405906930566
1761508335014747400,5.644747314453125,-0.0023226761259138584,-0.0007176598301157355,-0.000385359104257077
1761508335024718600,5.654718505859375,-0.00008269120007753372,-0.0003115276340395212,0.00017763313371688128
1761508335034689500,5.664689453125,-0.0018496830016374588,0.0008145198225975037,0.00017747713718563318
1761508335044661500,5.67466162109375,0.0006126756779849529,-0.0009045505430549383,0.00035271316301077604
1761508335054632400,5.684632568359375,0.0016133422031998634,0.0011086910963058472,-0.0011827568523585796
1761508335064603400,5.694603271484375,0.001436508260667324,0.00020667840726673603,-0.0005510550690814853
1761508335074575400,5.704575439453125,-0.001247887033969164,-0.0015864080050960183,0.002658694051206112
1761508335084546300,5.71454638671875,-0.000356792937964201,0.00043892604298889637,0.0012861008290201426
1761508335094518500,5.7245185546875,0.0016414159908890724,-0.0004544473486021161,-0.003955467604100704
1761508335104489200,5.7344892578125,0.001792950090020895,-0.0014544642763212323,0.0013258469989523292
1761508335114460400,5.74446044921875,-0.0012949858792126179,0.0020128944888710976,0.0013361809542402625
1761508335124432400,5.754432373046875,-0.0016561108641326427,0.0007092770538292825,-0.0013733191881328821
1761508335134403600,5.764403564453125,-0.0012422604486346245,0.0001506567932665348,0.000927507528103888
1761508335144375300,5.774375244140625,0.0013316846452653408,0.0001706305192783475,0.0013626680010929704
1761508335154346500,5.784346435546875,0.00018953252583742142,-0.000015540746971964836,0.000747734447941184
1761508335164317400,5.7943173828125,0.00020604440942406654,0.00043400085996836424,-0.00017957831732928753
1761508335174289400,5.804289306640625,-0.0006575738079845905,0.00044320221059024334,0.002639311831444502
1761508335184259600,5.814259521484375,-0.0012077833525836468,0.00012202502693980932,-0.0009522271575406194
1761508335194230500,5.82423046875,-0.0007539521902799606,-0.00033261068165302277,0.0019533075392246246
1761508335204202800,5.83420263671875,0.0001150369644165039,-0.00016003777272999287,-0.0003026560880243778
1761508335214173400,5.84417333984375,-0.0009890194050967693,0.00010020751506090164,0.0024901602882891893
1761508335224145700,5.854145751953125,0.001673609483987093,0.0008584094466641545,0.0003881271695718169
1761508335234116600,5.86411669921875,-0.002276623621582985,0.0006261061644181609,0.0001243428559973836
1761508335244087600,5.874087646484375,0.00041743041947484016,0.002918555401265621,0.0012535231653600931
1761508335254059500,5.8840595703125,-0.001478111371397972,-0.0006835237145423889,0.0016617419896647334
1761508335264030500,5.894030517578125,-0.000009112060070037842,0.0007255548262037337,-0.0019087579566985369
1761508335274002400,5.90400244140625,0.0006027063354849815,-0.0008583668386563659,-0.00002956506796181202
1761508335283973400,5.913973388671875,-0.003526524640619755,0.000952582573518157,0.002501769457012415
1761508335293944600,5.923944580078125,0.0004724329337477684,-0.0015316816279664636,-0.0004445341764949262
1761508335303916500,5.93391650390625,0.001658604945987463,0.0004419870674610138,0.0016452483832836151
1761508335313887500,5.943887451171875,-0.0018887137994170189,0.0018712379969656467,0.001338871312327683
1761508335323858400,5.9538583984375,-0.0006988132372498512,0.001116498140618205,-0.0008483829442411661
1761508335333830700,5.96383056640625,-0.0019730268977582455,-0.0007830203976482153,0.0014560427516698837
1761508335343801600,5.973801513671875,-0.0006963075138628483,-0.00046290853060781956,0.0015473891980946064
1761508335353773600,5.983773681640625,-0.00006037438288331032,-0.0019418435404077172,0.00017834734171628952
1761508335363744500,5.99374462890625,0.0015649530105292797,-0.000316249905154109,-0.003583101322874427
1761508335373715700,6.0037158203125,0.002476187888532877,-0.0019336275290697813,0.0017309040995314717
1761508335383687400,6.0136875,-0.0006735329516232014,0.0005002354737371206,-0.0008949727052822709
1761508335393658600,6.02365869140625,0.00010471511632204056,0.0007268736371770501,-0.0008207598584704101
1761508335403629600,6.033629638671875,-0.0010915766470134258,-0.00011468527372926474,0.001655181054957211
1761508335413601500,6.0436015625,0.00004022568464279175,0.0005084510194137692,-0.0022698480170220137
1761508335423572500,6.053572509765625,-0.002761952579021454,0.0005119130946695805,-0.0014898080844432116
1761508335433544700,6.063544677734375,0.00025876471772789955,0.002423529513180256,0.0010658229002729058
1761508335443515600,6.073515625,-0.0000035567209124565125,-0.0006167353130877018,0.0019968640990555286
1761508335453486300,6.083486328125,0.0011988119222223759,0.002701129764318466,0.0008390122093260288
1761508335463458600,6.09345849609375,0.000929033849388361,0.00022652058396488428,0.0013018696336075664
1761508335473429500,6.103429443359375,0.00017887912690639496,-0.002663141582161188,0.0022267154417932034
1761508335483401500,6.1134013671875,0.002332577481865883,-0.00014938414096832275,-0.0013698836555704474
1761508335493372400,6.123372314453125,-0.00017999252304434776,0.000708515930455178,0.0014074189821258187
1761508335503343600,6.133343505859375,-0.0013342062011361122,0.0009300909587182105,-0.0013721222057938576
1761508335513315300,6.1433154296875,-0.0002859714441001415,-0.001796431140974164,0.0002780860522761941
1761508335523286500,6.15328662109375,-0.001708365511149168,0.0008973563089966774,-0.0015344612766057253
1761508335533257500,6.163257568359375,0.0008071507327258587,-0.0031388672068715096,-0.00033748167334124446
1761508335543229700,6.173229736328125,-0.003004631493240595,0.00044441595673561096,0.0013576203491538763
1761508335553200400,6.183200439453125,0.0004832767881453037,-0.001147620496340096,0.001592470915056765
1761508335563172600,6.193172607421875,-0.0000019511207938194275,-0.0018807885935530066,-0.0006166212260723114
1761508335573143600,6.2031435546875,0.0004772166721522808,0.000698916323017329,0.0010379862505942583
1761508335583114800,6.21311474609375,-0.0018618376925587654,0.00028932210989296436,0.0006337184458971024
1761508335593086500,6.22308642578125,0.00016291718930006027,0.002328291302546859,0.001020088791847229
1761508335603057700,6.2330576171875,0.0004036668688058853,-0.0017402200028300285,0.0000019622966647148132
1761508335613029400,6.243029296875,0.00034523941576480865,0.00013126491103321314,-0.0015416734386235476
1761508335623000600,6.25300048828125,0.0005548298358917236,0.00025163975078612566,0.0009790085023269057
1761508335632971500,6.262971435546875,0.000032061245292425156,0.0001078267814591527,0.0010251372586935759
1761508335642943700,6.27294384765625,0.0016568559221923351,0.0018005319871008396,-0.0001019124174490571
1761508335652914400,6.28291455078125,-0.0015885778702795506,-0.0017782074864953756,-0.0010857684537768364
1761508335662885400,6.292885498046875,-0.0006450195796787739,-0.0007504934910684824,-0.001045821001753211
1761508335672857600,6.302857666015625,-0.00144858006387949,0.0014541976852342486,-0.003555122297257185
1761508335682828500,6.31282861328125,0.0006915363483130932,-0.00035036029294133186,0.0015118079027161002
1761508335692800500,6.322800537109375,-0.0013800505548715591,-0.0010803964687511325,0.0008661312749609351
1761508335702771500,6.332771484375,0.0010881670750677586,-0.0012873242376372218,0.001299427472986281
1761508335712742700,6.34274267578125,0.00226554274559021,0.000285923364572227,-0.00021927495254203677
1761508335722714400,6.35271435546875,-0.0010162708349525928,0.00019910431001335382,-0.002338352147489786
1761508335732685600,6.362685546875,0.00223693810403347,0.0008434820920228958,0.002343136817216873
1761508335742657500,6.372657470703125,-0.001184158492833376,0.0018264548853039742,0.0002826493000611663
1761508335752628500,6.38262841796875,0.0006638332270085812,-0.0003349992912262678,-0.0000811446807347238
1761508335762599400,6.392599365234375,0.0016247020103037357,-0.0010460632620379329,-0.00014985422603785992
1761508335772571600,6.402571533203125,0.0004060976207256317,0.00045810139272361994,0.0013118298957124352
1761508335782542600,6.41254248046875,0.00167376222088933,0.0009228229173459113,-0.0010506603866815567
1761508335792513500,6.422513427734375,-0.00026984233409166336,-0.00044093700125813484,-0.00018122169421985745
1761508335802485500,6.432485595703125,0.0026891962625086308,-0.00047396018635481596,-0.00028561759972944856
1761508335812456700,6.442456787109375,0.0008340463973581791,-0.0006904709152877331,0.0011561592109501362
1761508335822428400,6.452428466796875,0.0009698676876723766,0.0017564414301887155,-0.0018268474377691746
1761508335832399600,6.462399658203125,0.00016657542437314987,-0.0012186591047793627,0.0014586368342861533
1761508335842370600,6.47237060546875,0.00045046815648674965,-0.0001659116242080927,0.00013318168930709362
1761508335852342500,6.482342529296875,-0.0008400604128837585,0.0024144244380295277,0.0006429431959986687
1761508335862313500,6.4923134765625,0.0014089792966842651,0.0005784410750493407,-0.0017219438450410962
1761508335872285700,6.50228564453125,-0.0004241727292537689,0.0008585468749515712,-0.00008605007315054536
1761508335882256400,6.51225634765625,-0.0008926233276724815,-0.003151907352730632,-0.002956405049189925
1761508335892227600,6.5222275390625,-0.0007949131540954113,0.0001433683792129159,-0.002332073636353016
1761508335902199600,6.532199462890625,0.0012450679205358028,-0.00006489083170890808,-0.00003270036540925503
1761508335912170800,6.542170654296875,0.0015418543480336666,-0.0006185526726767421,0.0011037207441404462
1761508335922141400,6.552141357421875,-0.0003298148512840271,0.0004752076929435134,0.000368422013707459
1761508335932113700,6.56211376953125,-0.0008384822867810726,-0.001176891615614295,0.0020332802087068558
1761508335942084600,6.572084716796875,-0.0012523378245532513,0.0017406013794243336,-0.00029059406369924545
1761508335952056600,6.582056640625,0.00025598518550395966,0.0006716837524436414,-0.0014481747057288885
1761508335962027500,6.592027587890625,-0.00019515445455908775,-0.002989097498357296,-0.00011765945237129927
1761508335971998500,6.60199853515625,-0.0013685692101716995,0.0006132295820862055,0.0006981374463066459
1761508335981970400,6.611970458984375,0.0023651826195418835,0.00022467435337603092,0.0016592721221968532
1761508335991941400,6.62194140625,-0.00029943976551294327,0.0006917188875377178,-0.001286204089410603
1761508336001912600,6.63191259765625,0.00013012811541557312,-0.0009993882849812508,0.00005123531445860863
1761508336011884500,6.641884521484375,0.0001330510713160038,-0.0024383412674069405,0.002529547084122896
1761508336021855500,6.65185546875,0.0005178777500987053,-0.0011978406691923738,0.00226749200373888
1761508336031827500,6.661827392578125,-0.0010858634486794472,-0.0009107169462367892,0.0008629963267594576
1761508336041798700,6.671798583984375,0.0003455858677625656,-0.0018140611937269568,0.0015181340277194977
1761508336051769600,6.68176953125,0.0015285606496036053,-0.0005501862615346909,0.002848254516720772
1761508336061741600,6.691741455078125,-0.00045602675527334213,0.0007832585251890123,-0.0009491466335020959
1761508336071712500,6.70171240234375,0.00037856586277484894,0.0010884915245696902,-0.0015925801126286387
1761508336081684500,6.7116845703125,-0.000655272975564003,0.0010189830791205168,-0.00001572247128933668
1761508336091655400,6.721655517578125,0.0015473379753530025,-0.0010068214032799006,-0.001373041421175003
1761508336101626600,6.731626708984375,0.0003638290800154209,-0.0009825865272432566,0.002141266129910946
1761508336111598600,6.7415986328125,-0.0001109875738620758,0.0018427812028676271,-0.0014442697865888476
1761508336121569500,6.751569580078125,0.0007348326034843922,0.001194301526993513,-0.0013723644660785794
1761508336131540500,6.76154052734375,-0.0021603694185614586,-0.0020220819860696793,-0.00026543199783191085
1761508336141512700,6.7715126953125,-0.0012335898354649544,-0.00016213045455515385,-0.0009903444442898035
1761508336151483600,6.781483642578125,0.00011985749006271362,-0.0020670443773269653,0.0013057985343039036
1761508336161455600,6.79145556640625,0.0009563565254211426,-0.0005596951814368367,0.0009212380973622203
1761508336171426600,6.801426513671875,0.0002873172052204609,0.0019407426007092,0.001682804198935628
1761508336181397800,6.811397705078125,-0.00016089295968413353,0.0012688270071521401,0.002021558117121458
1761508336191369700,6.82136962890625,0.0003154645673930645,-0.0007672307547181845,-0.0014262341428548098
1761508336201340700,6.831340576171875,-0.0014275740832090378,0.0007166824652813375,0.0015599682228639722
1761508336211313000,6.84131298828125,-0.0005335025489330292,0.0010146797867491841,0.0016604538541287184
1761508336221283600,6.85128369140625,0.0009631938301026821,-0.0019206563010811806,-0.00199926202185452
1761508336231254500,6.861254638671875,0.00121261365711689,0.0005974095547571778,0.0015412094071507454
1761508336241226800,6.871226806640625,-0.0005051251500844955,0.0015881054569035769,0.0008828759891912341
1761508336251197700,6.88119775390625,-0.0006756512448191643,-0.00013324711471796036,-0.00014021439710631967
1761508336261168600,6.891168701171875,-0.0021443841978907585,0.0022161935921758413,-0.0010685923043638468
1761508336271140600,6.901140625,-0.0005866563878953457,0.0005273030255921185,0.0019098736811429262
1761508336281111800,6.91111181640625,-0.000775474589318037,-0.0027382653206586838,0.0010312970262020826
1761508336291083500,6.92108349609375,-0.00023125670850276947,0.0003686684649437666,-0.0009336458169855177
1761508336301054700,6.9310546875,-0.002551935613155365,0.0039346409030258656,0.001278908341191709
1761508336311025700,6.941025634765625,0.0016236156225204468,0.0005972730577923357,0.0008094076765701175
1761508336320997600,6.95099755859375,-0.0003268839791417122,0.001504878280684352,-0.0033136983402073383
1761508336330968600,6.960968505859375,0.00016551045700907707,-0.0010738723212853074,-0.0015073908725753427
1761508336340939800,6.970939697265625,-0.0002363603562116623,-0.0008791951695457101,-0.0014653129037469625
1761508336350911700,6.980911865234375,-0.0015760604292154312,0.0018034569220617414,0.0048337397165596485
1761508336360882700,6.990882568359375,-0.0005917558446526527,-0.0014157721307128668,-0.0029275103006511927
1761508336370854700,7.000854736328125,0.0020299647003412247,-0.0005631778622046113,0.0011087418533861637
1761508336380825900,7.010825927734375,0.0023151892237365246,0.00023417244665324688,0.00102511839941144
1761508336390796500,7.020796630859375,0.0013751238584518433,0.0007007676758803427,-0.0019638442900031805
1761508336400768800,7.030768798828125,0.0003287680447101593,0.00029596721287816763,-0.0022874181158840656
1761508336410739700,7.04073974609375,0.0016954331658780575,-0.0006822512950748205,0.00048771733418107033
1761508336420711700,7.050711669921875,-0.00036159250885248184,0.0006349480827338994,0.0015756185166537762
1761508336430682600,7.0606826171875,-0.00012796325609087944,-0.00006963673513382673,0.0037375204265117645
1761508336440653600,7.070653564453125,-0.0010835053399205208,0.0020997743122279644,0.0007995208725333214
1761508336450625500,7.08062548828125,0.0010672505013644695,-0.0003772162599489093,-0.002692202106118202
1761508336460596500,7.090596435546875,-0.0026286845095455647,0.0006731344619765878,0.00022662244737148285
1761508336470567700,7.100567626953125,-0.0009685740806162357,-0.0003352036001160741,0.0010081736836582422
1761508336480539600,7.11053955078125,-0.0012857564724981785,8.873175829648972e-7,0.0011634360998868942
1761508336490510600,7.120510498046875,0.002446127589792013,-0.001934652216732502,0.0016030336264520884
1761508336500482600,7.130482666015625,0.0010732677765190601,-0.0007317024283111095,0.0010179372038692236
1761508336510453800,7.140453857421875,0.0015637464821338654,-0.0008298286702483892,0.0004556098720058799
1761508336520424700,7.1504248046875,0.0009573446586728096,0.0015603583306074142,0.0011240632738918066
1761508336530396700,7.160396728515625,0.0002589616924524307,0.0009365385049022734,0.0024253218434751034
1761508336540367600,7.17036767578125,0.0004642917774617672,-0.0008184846956282854,-0.0002652696566656232
1761508336550339600,7.180339599609375,-0.0003249761648476124,-0.0003608559491112828,-0.0013720772694796324
1761508336560310500,7.190310546875,-0.0015710690058767796,-0.0004756383132189512,-0.0008341187494806945
1761508336570281700,7.20028173828125,0.0015040705911815166,0.001331000356003642,-0.001443549059331417
1761508336580253700,7.210253662109375,0.00014692358672618866,-0.0006551850819960237,0.0002712602727115154
1761508336590224600,7.220224609375,0.0008246637880802155,-0.0016335240798071027,0.0028778393752872944
1761508336600195600,7.230195556640625,0.0005945670418441296,-0.0006678617792204022,0.000853837002068758
1761508336610167800,7.240167724609375,0.0013968362472951412,-0.0003961907932534814,0.0009417592082172632
1761508336620138800,7.250138671875,-0.0001837494783103466,0.0012725458946079016,0.0005430839955806732
1761508336630110700,7.26011083984375,0.0007632886990904808,0.0009853079682216048,-0.00228144065476954
1761508336640081700,7.27008154296875,0.002041339874267578,-0.0005340254865586758,-0.0002071044873446226
1761508336650052600,7.280052490234375,0.0013248901814222336,-0.0006999588804319501,-0.0009019847493618727
1761508336660024600,7.290024658203125,0.0018577887676656246,-0.00018996361177414656,0.00027539883740246296
1761508336669995500,7.29999560546875,-0.0006131362169981003,0.0015007522888481617,0.0010363553883507848
1761508336679966700,7.309966796875,0.0002084490843117237,-0.0005413596518337727,-0.002404714934527874
1761508336689938400,7.3199384765625,0.002189591061323881,-0.0005260023754090071,-0.0003786435117945075
1761508336699909600,7.32990966796875,0.0005730520933866501,0.0003757438389584422,0.0010757086565718055
1761508336709881900,7.3398818359375,0.003436717204749584,-0.00019279401749372482,0.0014305030927062035
1761508336719852800,7.349852783203125,0.00047741271555423737,-0.000594931305386126,-0.0010781945893540978
1761508336729823500,7.359823486328125,-0.0010678889229893684,-0.0012867542682215571,0.001894399174489081
1761508336739795700,7.369795654296875,0.0005220184102654457,0.0005857141804881394,-0.00018659490160644054
1761508336749766700,7.3797666015625,0.0021770773455500603,-0.0009322920814156532,0.0008120790589600801
1761508336759738600,7.389738525390625,-0.003495987970381975,-0.0016585360281169415,0.00010740663856267929
1761508336769709600,7.39970947265625,-0.0001590382307767868,-0.0008273025741800666,-0.00016564223915338516
1761508336779680800,7.4096806640625,0.00174618698656559,-0.000846477341838181,0.0018868560437113047
1761508336789652500,7.419652587890625,0.0003213738091289997,0.0010903613874688745,-0.0004120771773159504
1761508336799623700,7.429623779296875,0.001048949547111988,0.00031005521304905415,-0.0013002414489164948
1761508336809594600,7.4395947265625,-0.0014713751152157784,-0.0010038404725492,-0.0011099287075921893
1761508336819566800,7.44956689453125,-0.0002508480101823807,0.0008521164418198168,-0.00140340905636549
1761508336829537500,7.45953759765625,-0.0011092163622379303,-0.000905120512470603,0.0014595475513488054
1761508336839509800,7.469509765625,0.0029100258834660053,0.0015963866608217359,0.001056611305102706
1761508336849480700,7.479480712890625,-0.001252384390681982,-0.0005025295540690422,0.000424462603405118
1761508336859451600,7.48945166015625,0.0013524536043405533,0.0006471570814028382,-0.0009577180608175695
1761508336869423600,7.499423583984375,-0.0009687845595180988,-0.0013536595506593585,-0.00041713129030540586
1761508336879394800,7.509394775390625,0.0007572099566459656,0.0025593230966478586,0.0008188417414203286
1761508336889365800,7.51936572265625,0.00005427142605185509,0.0007859053439460695,-0.0023249334190040827
1761508336899337700,7.529337646484375,-0.00039420509710907936,0.0007201252155937254,-0.00046098692109808326
1761508336909308700,7.53930859375,-0.0009312387555837631,0.0008128647459670901,0.000308559974655509
1761508336919280600,7.54928076171875,-0.0032862722873687744,0.0014299191534519196,-0.0020794966258108616
1761508336929251600,7.55925146484375,0.0014539440162479877,0.0014075529761612415,-0.0006294935592450202
1761508336939222500,7.569222412109375,-0.0024995184503495693,-0.0005021998658776283,-0.000012172851711511612
1761508336949194800,7.57919482421875,0.00038881925866007805,0.0015267241979017854,0.0011831478914245963
1761508336959165700,7.589165771484375,0.0008474159985780716,0.0010596057400107384,0.0022042039781808853
1761508336969137700,7.5991376953125,-0.0006172526627779007,0.0007461973000317812,-0.0010410050163045526
1761508336979108600,7.609108642578125,0.0017905114218592644,0.003939060959964991,0.0010487776016816497
1761508336989079800,7.619079833984375,-0.002561453729867935,-0.0033670272678136826,0.000513862818479538
1761508336999051500,7.629051513671875,-0.0002807220444083214,0.0011896416544914246,-0.0003969382378272712
1761508337009022700,7.639022705078125,-0.0025270627811551094,0.0015359014505520463,-0.0006596221937797964
1761508337018993700,7.64899365234375,-0.000648736022412777,0.002719410229474306,0.0013297591358423233
1761508337028965600,7.658965576171875,0.0011053914204239845,-0.0007325933547690511,-0.0008450814639218152
1761508337038936600,7.6689365234375,-0.000001417938619852066,-0.001039655995555222,-0.001290894579142332
1761508337048908800,7.67890869140625,0.00037066033110022545,-0.0010714131640270352,-0.0036677143070846796
1761508337058879500,7.68887939453125,-0.0029803956858813763,0.000729150022380054,-0.00012597627937793732
1761508337068850700,7.6988505859375,-0.0004630396142601967,-0.0008758081821724772,0.0016130952863022685
1761508337078822700,7.70882275390625,-0.001216980628669262,-0.00019563676323741674,0.0021193623542785645
1761508337088793900,7.7187939453125,0.0026676934212446213,-0.0017806425457820296,-0.0009019081480801105
1761508337098765600,7.728765625,0.000056197866797447205,-0.001112455385737121,0.00006428675260394812
1761508337108736800,7.73873681640625,0.0020179366692900658,-0.0026872497983276844,0.001397591782733798
1761508337118707700,7.748707763671875,-0.00007637357339262962,-0.002776998095214367,0.0009882638696581125
1761508337128679700,7.7586796875,0.0006757685914635658,-0.0020511469338089228,-0.0005883129197172821
1761508337138650600,7.768650634765625,-0.000540231354534626,0.0002623411128297448,0.0015006705652922392
1761508337148621600,7.77862158203125,-0.0021880841813981533,0.0014268143568187952,-0.001297447830438614
1761508337158593500,7.788593505859375,0.001609582919627428,-0.000588133349083364,-0.0007626850856468081
1761508337168564500,7.798564453125,-0.0014032400213181973,0.00038168043829500675,-0.0009171224664896727
1761508337178536700,7.80853662109375,-0.0025537251494824886,-0.0006926386849954724,0.0008325743256136775
1761508337188508200,7.818508056640625,-0.0010089995339512825,0.00116831180639565,0.00017112190835177898
1761508337198479000,7.82847900390625,0.0015931753441691399,-0.0007148095173761249,-0.002389241009950638
1761508337208451300,7.838451416015625,0.0010401350446045399,-0.0023316480219364166,-0.00003079557791352272
1761508337218422300,7.84842236328125,-0.0019149086438119411,-0.0019513488514348865,0.0015806832816451788
1761508337228393200,7.858393310546875,0.0005609225481748581,-0.0011564074084162712,0.002456459915265441
1761508337238365200,7.868365234375,-0.000984775833785534,-0.0012794453650712967,0.0005594902904704213
1761508337248336400,7.87833642578125,0.0015111793763935566,-0.00182042655069381,-0.0003765032161027193
1761508337258308000,7.88830810546875,0.00037214532494544983,0.001576968003064394,-0.00016265141312032938
1761508337268279300,7.898279296875,0.0012506404891610146,-0.00040253729093819857,-0.00020340748596936464
1761508337278250200,7.908250244140625,0.002750799059867859,-0.002180729992687702,0.0018690645229071379
1761508337288222200,7.91822216796875,0.00015660887584090233,-0.0002143094316124916,0.00019551871810108423
1761508337298193200,7.928193115234375,0.0013140183873474598,-0.0006726394640281796,-0.002021296415477991
1761508337308165400,7.938165283203125,-0.0003916970454156399,0.0016368079232051969,0.0003310214960947633
1761508337318136300,7.94813623046875,0.0032552354969084263,0.0000048228539526462555,0.00028894352726638317
1761508337328107300,7.958107177734375,-0.00021016644313931465,0.00010512990411370993,-0.001656079082749784
1761508337338079200,7.968079345703125,0.0022015925496816635,0.0014574831584468484,-0.0008693813579156995
1761508337348050400,7.978050537109375,0.001523494254797697,-0.0019969656132161617,0.0011846148408949375
1761508337358021400,7.988021484375,-0.0006629605777561665,-0.00006111396942287683,0.0016597227659076452
1761508337367993300,7.997993408203125,-0.0005984310992062092,-0.000241938978433609,-0.0010122943203896284
1761508337377964300,8.00796435546875,-0.0027601183392107487,-0.0007269005291163921,0.0007552456809207797
1761508337387935500,8.017935546875,-0.00007239403203129768,-0.004182461183518171,-0.000381719961296767
1761508337397907200,8.0279072265625,0.0003318740054965019,0.0011803463567048311,-0.00021926709450781345
1761508337407878400,8.03787841796875,-0.0003028595820069313,-0.0010297064436599612,0.00011093413922935724
1761508337417849300,8.047849365234375,-0.0005574570968747139,0.0005380964721553028,0.0003237207420170307
1761508337427821300,8.0578212890625,0.00015318626537919044,0.002692881040275097,-0.0015131946420297027
1761508337437792300,8.067792236328126,0.0015153931453824043,-0.0002672224072739482,-0.00006896239938214421
1761508337447763200,8.07776318359375,-0.00016921712085604668,0.00009117694571614265,0.0017926496220752597
1761508337457735400,8.0877353515625,-0.0009652357548475266,0.0008187525672838092,-0.0024620164185762405
1761508337467706000,8.0977060546875,-0.0009981347247958183,-0.0008266937220469117,0.0008226119680330157
1761508337477678300,8.10767822265625,-0.00021729618310928345,-0.0004804828204214573,0.0010939881904050708
1761508337487649300,8.117649169921876,-0.0019880044274032116,0.000591479183640331,-0.0002787818666547537
1761508337497620200,8.1276201171875,0.0025247219018638134,0.0006229045102372766,-0.0005136727122589946
1761508337507592200,8.13759228515625,0.0004917997866868973,-0.000056613353081047535,0.0016293738735839725
1761508337517563400,8.1475634765625,0.0003964584320783615,-0.00007259228732436895,-0.0007397743174806237
1761508337527534300,8.157534423828125,0.002128507010638714,-0.0009060325101017952,-0.000019742990843951702
1761508337537506300,8.16750634765625,0.00021129706874489784,0.0000013064127415418625,-0.0008178924326784909
1761508337547477200,8.177477294921875,0.001797023694962263,-0.0022725327871739864,0.000614374759607017
1761508337557449200,8.18744921875,0.000496602151542902,-0.001630977145396173,0.0013779031578451395
1761508337567420200,8.197420166015625,0.00157998688519001,0.0005193282850086689,-0.0013636028161272407
1761508337577391400,8.207391357421875,-0.004208926577121019,-0.00018081674352288246,0.0005219151498749852
1761508337587363300,8.21736328125,-0.0006426293402910233,0.00040449609514325857,-0.0020393626764416695
1761508337597334300,8.227334228515625,0.000008780043572187424,0.0005629541701637208,-0.0011567911133170128
1761508337607306200,8.23730615234375,0.0015295245684683323,-0.0018614297732710838,0.0007978891953825951
1761508337617277400,8.24727734375,0.0001550670713186264,-0.0005602091550827026,-0.0006047977367416024
1761508337627248400,8.257248291015625,-0.000635647214949131,-0.0001570357708260417,0.001268133521080017
1761508337637220400,8.267220458984376,-0.0021224897354841232,0.0005825241096317768,-0.0008525416487827897
1761508337647191300,8.27719140625,-0.0006394381634891033,-0.00039803062099963427,0.0003432397497817874
1761508337657162200,8.287162353515624,-0.0020016455091536045,-0.0004955022595822811,0.0002953028306365013
1761508337667134200,8.29713427734375,0.0002602348104119301,-0.00010349054355174303,-0.0014820583164691925
1761508337677105200,8.307105224609375,-0.0010409853421151638,0.002457671333104372,0.0025598211213946342
1761508337687077400,8.317077392578126,0.00028333207592368126,0.0013298522680997849,0.0003574464935809374
1761508337697048000,8.327048095703125,0.0004620300605893135,-0.0016821828903630376,-0.0012388522736728191
1761508337707019300,8.337019287109374,0.0024133450351655483,-0.0006361235864460468,0.00406480859965086
1761508337716991200,8.3469912109375,-0.0011217347346246243,0.0021354281343519688,0.001084198709577322
1761508337726962400,8.35696240234375,0.0021905070170760155,0.0022056293673813343,-0.001470366376452148
1761508337736933000,8.36693310546875,-0.0013552256859838963,0.0028927247039973736,-0.0030783829279243946
1761508337746906400,8.37690625,0.00020503299310803413,-0.0008699190802872181,0.00018275610636919737
1761508337756878300,8.38687841796875,-0.00013105804100632668,-0.0010435571894049644,0.0014778514159843326
1761508337766849300,8.396849365234376,0.00021092966198921204,0.00025791116058826447,0.0008711075643077493
1761508337776820200,8.4068203125,-0.0006119874306023121,0.0006712338072247803,-0.00005780300125479698
1761508337786792200,8.416792236328124,-0.0017051794566214085,-0.002123169833794236,0.001797681674361229
1761508337796763100,8.42676318359375,-0.00016746995970606804,-0.00026348454412072897,-0.0010966418776661158
1761508337806734300,8.436734375,-0.0021022725850343704,-0.0017378589836880565,-0.0015992883127182722
1761508337816706300,8.446706298828126,0.0007891212590038776,-0.0008134756935760379,0.0011759918415918946
1761508337826677200,8.45667724609375,-0.0003861207515001297,0.00036049087066203356,0.0012931411620229483
1761508337836649200,8.466649169921874,-0.000458558090031147,0.001001247437670827,0.000028672395274043083
1761508337846620400,8.476620361328125,-0.002464156597852707,0.00011690508108586073,-0.0002069648471660912
1761508337856591000,8.486591064453124,-0.0015618782490491867,-0.0005262483609840274,-0.00322938640601933
1761508337866563300,8.496563232421876,0.00008399831131100655,-0.0010054802987724543,-0.00019365566549822688
1761508337876534300,8.5065341796875,0.0000571003183722496,-0.0015117472503334284,-0.00040617596823722124
1761508337886505500,8.51650537109375,0.0014624753966927528,-0.0007763744797557592,-0.002630146685987711
1761508337896477200,8.526477294921875,0.0014393054880201817,-0.00006957142613828182,0.0006900163134559989
1761508337906448400,8.536448486328124,-0.0009127343073487282,-0.0007367677753791213,0.00023133843205869198
1761508337916420000,8.546420166015626,0.0026740110479295254,0.0017602121224626899,0.0013136470224708319
1761508337926391300,8.556391357421875,0.0007774676196277142,-0.001974426442757249,0.000882360152900219
1761508337936362200,8.5663623046875,-0.00014744838699698448,0.0001507761189714074,0.0005465354770421982
1761508337946334500,8.57633447265625,0.0005829799920320511,0.0014871385646983981,-0.0012911756057292223
1761508337956305200,8.58630517578125,-0.00010677846148610115,0.0013694268418475986,0.002474267967045307
1761508337966277400,8.59627734375,-0.0010783188045024872,-0.002412813948467374,0.0028273824136704206
1761508337976248300,8.606248291015625,0.0017353110015392303,-0.0020556841045618057,0.001962654059752822
1761508337986219500,8.616219482421876,-0.002504202537238598,-0.0008785430109128356,0.0028237234801054
1761508337996191200,8.626191162109375,0.0014439336955547333,-0.00015549478121101856,0.0028495562728494406
1761508338006162400,8.636162353515624,0.0016361805610358715,0.00023650191724300385,0.005380552727729082
1761508338016133400,8.64613330078125,-0.00016251858323812485,-0.0005762947257608175,0.0022614584304392338
1761508338026105300,8.656105224609375,0.00022770091891288757,-0.0007615876384079456,-0.0007988607976585627
1761508338036076300,8.666076171875,0.0003605922684073448,0.0012919759610667825,-0.0011959380935877562
1761508338046048500,8.676048583984375,0.0006511006504297256,-0.00012563157361000776,0.0012889895588159561
1761508338056019200,8.686019287109374,-0.002096482552587986,-0.001191162271425128,0.0005337169859558344
1761508338065990100,8.695990234375,-0.0010531735606491566,-0.0017289076931774616,-0.001326362369582057
1761508338075962400,8.70596240234375,-0.0008012386970221996,-0.0008692392148077488,-0.0017082595732063055
1761508338085933300,8.715933349609376,0.0008828630670905113,0.0004973924369551241,-0.0023612286895513535
1761508338095905300,8.7259052734375,-0.00007401034235954285,-0.0009782651904970407,-0.0011484251590445638
1761508338105876200,8.735876220703124,-0.0013197707012295723,-0.0007519451901316643,0.00016384292393922806
1761508338115847400,8.745847412109375,0.00016760453581809998,0.0013634037459269166,0.00035532424226403236
1761508338125819100,8.755819091796875,-0.002348912414163351,-0.0013633430935442448,-0.002763888332992792
