time,seconds_elapsed,z,y,x
1761508062480604200,0.081604248046875,0.11597411134988068,-0.05896013849079609,-0.0470996048271656
1761508062490576400,0.091576416015625,0.0991556630179286,-0.09085808253288269,-0.14455284784138203
1761508062500547000,0.101547119140625,0.12330839976072311,-0.1035322706669569,-0.1919870914503932
1761508062510519300,0.111519287109375,0.20267215159386395,-0.10452069718241691,-0.18685148212760685
1761508062520490200,0.121490234375,0.2021446205884218,-0.12324936304986477,-0.18218699744790792
1761508062530461200,0.131461181640625,0.16655600533485412,-0.145834119823575,-0.21137451348751782
1761508062540433200,0.14143310546875,0.10467238061279058,-0.19664076247513293,-0.25040713171511886
1761508062550404000,0.151404052734375,-0.0007537409767508506,-0.21138474262058735,-0.2424067806109786
1761508062560376000,0.1613759765625,-0.12651859397888182,-0.1453115572541952,-0.21884002706259487
1761508062570347000,0.171346923828125,-0.2795399949580431,-0.08718962315320967,-0.17124387089014054
1761508062580319200,0.1813193359375,-0.41428602679520843,-0.04307224900722503,-0.08875234242528676
1761508062590290200,0.191290283203125,-0.4776692424252629,-0.03888531871140003,0.0048895256072282785
1761508062600262100,0.20126220703125,-0.4895312373936176,-0.08863163865506649,0.07127367661893368
1761508062610233000,0.211233154296875,-0.4489063815385103,-0.2169248410910368,0.05156915145665407
1761508062620205000,0.221205078125,-0.38870851794630285,-0.3755155666351318,0.010269465079903601
1761508062630176000,0.231176025390625,-0.35866000116318464,-0.4762713583260774,-0.023876842410862444
1761508062640148200,0.241148193359375,-0.35335692631900306,-0.49606093142330643,-0.018777765706181525
1761508062650119200,0.251119140625,-0.37043548689186573,-0.48945875667929645,0.006531447595357894
1761508062660091100,0.261091064453125,-0.3870245103821158,-0.42864860640764235,0.040944589328765865
1761508062670062000,0.27106201171875,-0.3721346920251846,-0.3473959720879793,0.059041679294407366
1761508062680033300,0.281033203125,-0.30057810681164265,-0.2516810971736908,0.06727350106686353
1761508062690005000,0.2910048828125,-0.16762480361014603,-0.19710019668042658,0.09367956969439983
1761508062699976200,0.30097607421875,-0.06864069776684045,-0.18078852882683277,0.08063304111659526
1761508062709948200,0.3109482421875,-0.025373218448460102,-0.1448059458196163,0.044486499719321726
1761508062719919000,0.320919189453125,-0.0550230913028121,-0.11384557488858699,0.003880640825629234
1761508062729891000,0.33089111328125,-0.14066577727496624,-0.1331423960328102,-0.07648264343887567
1761508062739862300,0.3408623046875,-0.20125322470664977,-0.12442892822325229,-0.13942922121733425
1761508062749834000,0.350833984375,-0.2352016715377569,-0.07395312496125697,-0.23058833252340555
1761508062759805200,0.36080517578125,-0.17651976546645162,-0.05391103840768337,-0.27143706026226283
1761508062769777200,0.370777099609375,-0.060441609220206735,-0.03628770343363285,-0.2467524085998535
1761508062779748000,0.380748046875,0.05467676208317279,-0.020253098955750466,-0.13932254597246646
1761508062789720000,0.390719970703125,0.09464286176860331,0.017137597283720968,-0.008825111490488051
1761508062799691300,0.400691162109375,0.07438800924718379,0.03631868309378624,0.08926379907876253
1761508062809663000,0.4106630859375,-0.045346039158105846,-0.003023731735348701,0.1956266169965267
1761508062819634200,0.42063427734375,-0.18979893375635146,-0.023244097465276718,0.3088417850270867
1761508062829605000,0.430605224609375,-0.3275517461940646,-0.06498772821724415,0.3927250601112842
1761508062839577000,0.4405771484375,-0.4063616635367274,-0.16085224073529242,0.48977527528256176
1761508062849548000,0.450548095703125,-0.4477709477677941,-0.23705109879672526,0.5926239475995302
1761508062859520300,0.460520263671875,-0.4634302891924977,-0.318315423554182,0.6683581107586621
1761508062869491200,0.4704912109375,-0.4292532943025231,-0.5112491482049226,0.6808946439877152
1761508062879463200,0.480463134765625,-0.3415884548529982,-0.8234890512377023,0.6685019031435251
1761508062889434000,0.49043408203125,-0.2537178636983037,-1.2192407656937836,0.6812266524210572
1761508062899406000,0.500406005859375,-0.18298107043504713,-1.6141215425342321,0.7292313893944025
1761508062909377000,0.510376953125,-0.1585837112814188,-2.013691353973746,0.889251563219726
1761508062919349800,0.520349853515625,-0.19453443784564733,-2.426432781675458,1.0930907127663492
1761508062929320400,0.530320556640625,-0.17017945652902125,-2.8682997660964724,1.3017267412006854
1761508062939292700,0.540292724609375,-0.07658201216012239,-3.266913884246349,1.4945546673893928
1761508062949263600,0.550263671875,0.12163900524377823,-3.572579669585824,1.6585484210208057
1761508062959235600,0.560235595703125,0.3302785408094525,-3.7519022175133228,1.7616960762843488
1761508062969206500,0.57020654296875,0.5068336698502302,-3.8658600206047296,1.7102786082580685
1761508062979178800,0.5801787109375,0.6790294346377254,-3.8801831449896094,1.584497973164916
1761508062989149700,0.590149658203125,0.7414706932425499,-3.6865316274583337,1.3766533873692155
1761508062999121700,0.60012158203125,0.8306310319468379,-3.2010733385920522,1.1565285811930894
1761508063009092600,0.610092529296875,0.7883467184469103,-2.390402267873287,0.8750888900935649
1761508063019063800,0.620063720703125,0.5207037897706032,-1.198383855625987,0.4996878897488117
1761508063029035500,0.630035400390625,-0.0040977907076478,0.18764906224608421,0.18250205474644898
1761508063039006700,0.6400068359375,-0.761679660795629,1.3897288497805595,0.09582710311710833
1761508063048978700,0.649978759765625,-1.7622089942425487,2.0881921759456397,0.17939853577315806
1761508063058949600,0.65994970703125,-2.4357398314639926,2.8305910899490114,0.0005596797093749046
1761508063068921600,0.669921630859375,-2.712626681564748,3.409460068440437,-0.45526393387168645
1761508063078892800,0.679892822265625,-2.825636682412028,3.665806819337606,-1.0673153432577849
1761508063088864500,0.689864501953125,-2.7767060627654194,3.9536493632167575,-1.8959803358286618
1761508063098835700,0.699835693359375,-2.691561681704223,4.833783846262097,-2.9965543900877236
1761508063108807700,0.7098076171875,-2.7134970346584915,6.016402562001347,-3.9898470502793786
1761508063118778600,0.719778564453125,-2.828874349159002,7.44914930025339,-4.878514383870363
1761508063128750600,0.72975048828125,-2.7403718898415566,9.112414520663023,-5.459124653071164
1761508063138721800,0.7397216796875,-2.4372879376888275,10.64323643321991,-5.7885646972298614
1761508063148693500,0.749693603515625,-2.0243103631436825,11.706385888969898,-5.564962278071046
1761508063158664700,0.759664794921875,-1.5005124067500233,11.984651041686535,-4.589851463519037
1761508063168635600,0.7696357421875,-0.9930252414271235,11.259607751631735,-3.2969548022449016
1761508063178607600,0.779607666015625,-0.303792684943974,9.960003993934393,-2.076115369182825
1761508063188578600,0.78957861328125,0.5590656691297888,8.410403731149435,-1.0936983232706785
1761508063198550800,0.79955078125,1.1170923506006598,7.167768645864725,-0.4610039388284087
1761508063208521700,0.809521728515625,1.3255071374997496,6.0483817545861,0.14865034628808496
1761508063218493700,0.81949365234375,1.0743053482756018,4.93816250462532,0.822353909727931
1761508063228464600,0.829464599609375,0.6406795379772782,3.926773631250858,1.4016662480726838
1761508063238436600,0.8394365234375,0.27244448373913766,2.8136481384545564,1.9171672085031866
1761508063248407600,0.849407470703125,-0.06745528737455606,1.3383686648994684,2.346382801143825
1761508063258379800,0.8593798828125,-0.31696985416412354,-0.5313520250350237,2.6241274371176955
1761508063268350700,0.869350830078125,-0.49754035632610316,-2.707573197567463,2.8838001175671812
1761508063278322700,0.87932275390625,-0.6261217280536889,-5.049817291471362,3.3212536694601176
1761508063288293600,0.889293701171875,-0.5790156934857368,-7.278710316005348,3.6070182380214333
1761508063298265600,0.899265625,0.005322364066541195,-9.18966551812589,3.4624218432992695
1761508063308236500,0.909236572265625,0.9527814938440918,-10.273201343822478,2.9225974657341838
1761508063318208800,0.919208740234375,2.1544854338034987,-10.6054681358397,2.186139924478531
1761508063328179700,0.9291796875,3.2667437883764503,-10.708055234611034,1.7339806786239147
1761508063338150700,0.939150634765625,4.379907859617472,-10.18843397938013,1.392922677385807
1761508063348122600,0.94912255859375,4.992874338021874,-9.503514025399088,1.3267574298217892
1761508063358093800,0.95909375,5.04735937692523,-8.60802999753058,1.420563840766251
1761508063368065500,0.9690654296875,4.580514310853183,-7.576020945453643,1.6326234139084814
1761508063378036700,0.97903662109375,3.776804895840585,-6.849415228387713,1.9372998959496617
1761508063388008700,0.9890087890625,3.05613792117387,-6.592261837282776,2.383986847873032
1761508063397979600,0.998979736328125,2.5246798054158686,-6.701831050026416,2.9537542360201474
1761508063407951600,1.00895166015625,2.226074752242863,-6.944958838388323,3.4470155998528003
1761508063417922800,1.0189228515625,2.2282325147986413,-7.2323267504930495,3.680072660577297
1761508063427894500,1.02889453125,2.411065993456542,-7.498650705525279,3.5008816300749777
1761508063437865700,1.03886572265625,2.6161884608119723,-7.5741878848075865,3.060852966997027
1761508063447837700,1.048837646484375,2.714913623458147,-7.440420634874701,2.626825882421434
1761508063457808600,1.05880859375,2.724704657371342,-7.203466566711664,2.2364713508337735
1761508063467780600,1.068780517578125,2.6368098085582257,-6.823389975771308,1.8249273162230848
1761508063477751800,1.078751708984375,2.3968296705722807,-5.97963905774951,1.3070809617102146
1761508063487722800,1.08872265625,2.07343884344995,-4.7320495649278165,0.5412579174995422
1761508063497694700,1.09869482421875,1.634558181363344,-2.690176072564721,-0.6712804279461503
1761508063507665700,1.108665771484375,0.7738949992462992,0.07721767971515656,-1.9449927885398268
1761508063517637600,1.1186376953125,-0.7358630824938416,3.1047657584816215,-2.8545564874261617
1761508063527608600,1.128608642578125,-2.5679835250914094,5.951244153392315,-3.0614491793245073
1761508063537580800,1.138580810546875,-4.104420939442515,8.536899528774619,-3.1572619616553186
1761508063547551700,1.1485517578125,-4.347702749322354,12.425668131279945,-4.553109294316172
1761508063557523700,1.158523681640625,-3.2940576194986697,17.962890754032134,-6.548564734375477
1761508063567494700,1.16849462890625,-2.722164617499709,20.980802989447117,-6.22499679712057
1761508063577466600,1.178466552734375,-3.126365303610265,19.087340189397334,-3.1177088266849515
1761508063587437600,1.1884375,-3.5754882505089043,14.170907870543003,-0.01643178710192442
1761508063597409800,1.198409912109375,-3.7613770250841974,7.805172815433144,1.5113015117898583
1761508063607380700,1.208380615234375,-3.2427251994073387,2.418403788998723,0.9444982341453433
1761508063617352700,1.218352783203125,-2.1742665313333274,-0.20052140330076215,-1.3627689466625452
1761508063627323600,1.22832373046875,-1.3105039218962191,-1.5262603037297724,-4.009311336944997
1761508063637294600,1.238294677734375,-0.6940928559958934,-2.5476936012566087,-5.694232216584682
1761508063647266600,1.2482666015625,0.12754384537339208,-3.1936838128626346,-5.909577095007896
1761508063657237500,1.258237548828125,0.992035938128829,-3.5615444808304306,-4.507603680682182
1761508063667209700,1.268209716796875,1.5748095228433607,-3.6342823847830292,-2.399593290066719
1761508063677180400,1.278180419921875,1.962849932269752,-3.6718975374281406,-0.3668009297817945
1761508063687152600,1.288152587890625,2.051006646889448,-3.496300732025504,1.2948840356990694
1761508063697123600,1.29812353515625,1.6327151838451623,-3.2462153796106574,2.4223738616734742
1761508063707095600,1.308095458984375,0.8926566954880952,-3.0045138246595857,2.942287377849221
1761508063717066500,1.31806640625,-0.06229483587145805,-2.8291367994874714,2.8466788859188554
1761508063727038700,1.328038818359375,-0.6898235081136226,-2.9487054281979796,2.3583345202222463
1761508063737009400,1.338009521484375,-0.5775450364112854,-3.205172590604424,1.911758042936027
1761508063746981600,1.347981689453125,0.05156681336909532,-3.3495629413604733,1.6563655240237711
1761508063756952600,1.35795263671875,0.9275006298542022,-3.1270489019602534,1.3824071285903452
1761508063766924500,1.367924560546875,1.7135931396335362,-2.448930444687605,1.0373781778946518
1761508063776895500,1.3778955078125,1.9759502368614077,-1.1171966877579689,0.3184799664661288
1761508063786867700,1.38786767578125,1.8293129839614033,0.7081126135200262,-0.7028744206055998
1761508063796838400,1.39783837890625,1.2637588295951485,2.6483593765765425,-1.4325933012560008
1761508063806809600,1.4078095703125,0.29661124900728464,4.191273877987265,-1.4655387085244058
1761508063816781600,1.417781494140625,-0.7702557659611106,4.998209269309044,-0.9836135622203349
1761508063826752800,1.427752685546875,-1.4629773336037992,4.893426121798157,-0.187569275008142
1761508063836724500,1.437724365234375,-1.6577902961298823,3.712178694412112,0.62229661680758
1761508063846695700,1.44769580078125,-1.2093079852223396,1.7540724495381115,1.2407491254076362
1761508063856667400,1.45766748046875,-0.1768374531134963,-0.12657704616785048,1.7629644887849687
1761508063866638600,1.467638671875,0.9172665283486247,-1.6031255167454481,1.959706958068907
1761508063876610600,1.477610595703125,1.8436396154776213,-2.7483827623397112,1.8415192623227834
1761508063886581800,1.487581787109375,2.513115624350309,-3.5602637933701273,1.6594538454279302
1761508063896553500,1.497553466796875,2.85313229984194,-4.107952036178112,1.4344012274608016
1761508063906524700,1.507524658203125,2.928810641160607,-4.562668565300107,1.286924893388152
1761508063916497000,1.517496826171875,2.75449247739166,-4.979791569086909,1.1579174052029848
1761508063926467800,1.5274677734375,2.3862501166298986,-5.1510395316302775,1.0115759203791619
1761508063936440000,1.537440185546875,1.9198226914480327,-5.222953259718418,1.0567632618442178
1761508063946411000,1.547410888671875,1.408907305242121,-5.150386620679497,1.171190436013043
1761508063956381700,1.557381591796875,0.956524187503755,-4.9076323418051,1.354518420189619
1761508063966354000,1.56735400390625,0.606669716347754,-4.4864223609656095,1.5927160586729645
1761508063976324900,1.577324951171875,0.4249474138021469,-3.811132405117154,1.716823792117834
1761508063986296800,1.587296875,0.2591334590062499,-2.796580099275708,1.6620666582748294
1761508063996267800,1.597267822265625,0.035245500904321665,-1.5896318289220333,1.4178431836307048
1761508064006240000,1.607239990234375,-0.14538929866552353,-0.0845095902889967,0.8341536531150341
1761508064016210700,1.617210693359375,-0.32747575834840537,1.6082126107513903,0.14168752153813838
1761508064026183000,1.627182861328125,-0.7264695234656333,2.8791835636824366,-0.3829039233207702
1761508064036154000,1.637154052734375,-1.2129974873900413,3.8236172081589697,-0.9375567444443702
1761508064046125800,1.647125732421875,-1.5793202782660722,4.794564181029797,-1.5994401062309742
1761508064056097000,1.657096923828125,-1.9651465187743304,6.091372755050659,-2.6623934548869728
1761508064066069000,1.667069091796875,-2.1521768646001815,8.165596026876567,-4.273817428900301
1761508064076040000,1.6770400390625,-2.259596790355444,11.041134512054919,-5.923819555371999
1761508064086012000,1.687011962890625,-2.5829335492029784,13.832192633038758,-7.010458023259043
1761508064095983000,1.696983154296875,-3.179225371660292,15.873257731628417,-7.125147647756338
1761508064105954000,1.7069541015625,-3.8637414210155603,17.119098334956167,-6.271274564170837
1761508064115926000,1.716926025390625,-4.873164547275007,17.356514759933948,-5.01970038562715
1761508064125897000,1.72689697265625,-5.554315211850405,16.10080158188939,-3.5663305460631847
1761508064135869000,1.736868896484375,-5.764222867655754,13.331141638243198,-2.64483880123496
1761508064145839900,1.74683984375,-5.30031005564332,10.099022004002332,-2.529116034297645
1761508064155812000,1.75681201171875,-4.599410734502971,7.089794010302424,-2.2236589232727884
1761508064165783000,1.766782958984375,-4.155072976054251,4.420425747966766,-1.9738418664053081
1761508064175755000,1.776755126953125,-3.838458803460002,1.9613859971970318,-1.6713450664907692
1761508064185726000,1.786725830078125,-3.357127823656797,-0.39352234796881674,-1.3397387842088937
1761508064195698000,1.796697998046875,-2.3845190550535915,-2.4829087021350857,-0.9861354819133877
1761508064205668900,1.8066689453125,-0.9316378757894038,-4.379216370221973,-0.14023030846714973
1761508064215641000,1.81664111328125,0.5842684994474053,-6.109626204621791,1.0752464285179972
1761508064225612000,1.826612060546875,1.8404151004731655,-7.828553106498718,2.341699319502711
1761508064235584000,1.836583984375,2.9306732201620935,-9.392259636047482,3.398478655698895
1761508064245555000,1.846554931640625,3.6413244122490283,-10.751859305024146,3.826576057964563
1761508064255526000,1.85652587890625,3.953622182948887,-11.503234137165546,3.465244499504566
1761508064265497900,1.866497802734375,3.6254458751156924,-11.712706908684968,2.7410505197554826
1761508064275468800,1.87646875,3.070383304147422,-11.605885533344745,2.265163484571874
1761508064285441000,1.88644091796875,2.701926131591201,-11.300028609347343,2.137867184218764
1761508064295411700,1.89641162109375,2.491515494699776,-10.724096853351593,2.1554835049301384
1761508064305384000,1.906384033203125,2.4922531613245607,-9.804270995908976,2.2736314531877637
1761508064315355000,1.91635498046875,2.6239260693266986,-8.738472486954928,2.294291379378736
1761508064325326800,1.926326904296875,2.7516999240636824,-7.761877279064059,2.421285481914878
1761508064335297800,1.9362978515625,2.86408097935766,-7.1938821612864725,2.833787255641818
1761508064345270000,1.94627001953125,2.895332734450698,-6.990269806233048,3.3686823601111766
1761508064355240700,1.95624072265625,2.8382833980172872,-6.892224442544579,3.896714008551836
1761508064365213000,1.966212890625,2.709787074224651,-6.798157919359206,4.243659606523812
1761508064375184000,1.976183837890625,2.5060531386181712,-6.710484312081337,4.443764537978172
1761508064385155000,1.986155029296875,2.249084164169431,-6.540208993962406,4.56887326515913
1761508064395126800,1.996126708984375,1.9007997188091277,-6.313133345735073,4.690954753473401
1761508064405098000,2.006097900390625,1.7501742730557917,-6.021537586802244,4.639563588932156
1761508064415069700,2.016069580078125,1.8453157319962978,-5.7000639914780855,4.407039904431999
1761508064425041000,2.026041015625,2.0569109024971723,-5.203361839541793,3.7732732145830985
1761508064435012900,2.036012939453125,2.3591183640763163,-4.663997188442945,2.8863997786715627
1761508064444984000,2.045984130859375,2.77067175103724,-3.951365636193752,1.7150474300950764
1761508064454955800,2.055955810546875,3.4037300003558397,-2.440149756860733,0.121661801597476
1761508064464927000,2.065927001953125,3.6061224582254883,-0.28779285951852795,-1.5603268239825963
1761508064474898700,2.075898681640625,3.2343606911659237,2.424759295505285,-2.975340337145328
1761508064484870000,2.085869873046875,2.103265826436877,5.313075429192185,-3.6163244110271333
1761508064494841900,2.095841796875,0.4707078789800405,8.189808677113056,-4.1214734887912865
1761508064504813000,2.10581298828125,-1.4984242022991179,11.40288809531927,-4.619083110961318
1761508064514784800,2.11578466796875,-3.105766459956765,14.588871416807175,-4.670559615698457
1761508064524756000,2.125755859375,-4.050080277445912,16.264445499169824,-3.6417701101899147
1761508064534728000,2.13572802734375,-4.301466483326256,15.59286842636466,-1.6847385088101028
1761508064544699000,2.145698974609375,-3.697190091855824,13.510372416234016,-0.3949006505846977
1761508064554669800,2.155669921875,-2.4843530557245015,11.044917537724972,-0.3895701032117009
1761508064564642000,2.16564208984375,-1.8472616053670643,8.41022545197308,-0.9924427653640508
1761508064574612700,2.17561279296875,-1.6936562670201063,6.33259032587707,-1.8094313486665485
1761508064584585000,2.1855849609375,-1.8916724095016717,4.904548404315114,-2.6369679217293855
1761508064594556000,2.195555908203125,-2.5404139656424523,3.935337461456656,-3.1771669778257605
1761508064604527900,2.20552783203125,-3.112709995484352,3.049199354082346,-3.198179370716214
1761508064614498800,2.215498779296875,-2.997034574820101,2.0251029748260976,-2.7044091805785895
1761508064624471000,2.225470947265625,-2.1455489708930253,0.9477554823756218,-2.14067288928926
1761508064634441700,2.235441650390625,-0.9845806536868213,-0.2683323722451925,-1.8748884479612111
1761508064644414000,2.2454140625,0.03310264365673065,-1.6199375353366137,-1.8266881884157657
1761508064654385000,2.255385009765625,0.9356289912521839,-2.8741929157882926,-1.5154165458932518
1761508064664356900,2.26535693359375,1.5797031401038168,-3.8535266087323423,-0.9910586175292729
1761508064674327800,2.275327880859375,1.938078479106724,-4.5443683539777995,-0.3128182874426246
1761508064684300000,2.285300048828125,2.032244663274288,-4.963170689153671,0.5032493816226721
1761508064694271000,2.29527099609375,1.946769735084474,-5.077285728633403,1.3309522511631249
1761508064704242000,2.305241943359375,1.791854775443673,-5.009786309856176,2.076608121135831
1761508064714214000,2.3152138671875,1.5076374363243579,-4.754174887496233,2.651408827275038
1761508064724185000,2.32518505859375,1.1087488851472735,-4.353534816476702,3.0624972270727158
1761508064734156800,2.33515673828125,0.7147568738400936,-4.032474478128552,3.172128983658552
1761508064744128000,2.3451279296875,0.4261491908073425,-3.7110973289161917,2.9008053206428883
1761508064754100000,2.355099853515625,0.3330152722969651,-3.4592993273645636,2.3519638161465526
1761508064764071000,2.36507080078125,0.4446747353181243,-3.255820827823877,1.6686723401501773
1761508064774043000,2.37504296875,0.7691542344599962,-2.8707927519559857,1.0379983556196093
1761508064784014000,2.38501416015625,0.9978653749346732,-2.275785124090314,0.4214066724553704
1761508064793985800,2.39498583984375,1.116157700099051,-1.4183768521159887,-0.17439824326783418
1761508064803957000,2.40495703125,1.016142789903283,-0.40838907771110533,-0.6141314305305481
1761508064813929000,2.414928955078125,0.7252037413135171,0.6853823107957839,-0.8406997137576341
1761508064823900000,2.42489990234375,0.24693039551526308,1.4654332023233174,-0.8111427798837423
1761508064833870800,2.434870849609375,-0.2878863830208778,1.8784926099330186,-0.7130097379118203
1761508064843843000,2.444843017578125,-0.7601672104060649,1.9509364993751048,-0.42533787442445753
1761508064853813800,2.454813720703125,-1.1609776695564389,1.5717349377036094,0.040487493211030956
1761508064863786000,2.464785888671875,-1.448376853582263,0.7620821041166782,0.5964323999717831
1761508064873757000,2.4747568359375,-1.5882973654478787,-0.45048517516255376,1.148923951408267
1761508064883729000,2.48472900390625,-1.5036752546951173,-1.9193904375106094,1.5680039344817398
1761508064893699800,2.494699951171875,-1.1285738218188286,-3.2209961826801297,1.7294374822363257
1761508064903672000,2.504672119140625,-0.5843719598218798,-4.3063563011944295,1.4481576578736304
1761508064913643000,2.51464306640625,-0.2077843800410628,-5.249601612669229,0.9248989229232072
1761508064923615200,2.524615234375,0.0855769272595644,-5.5571793691098685,0.29299247398823497
1761508064933586200,2.534586181640625,0.16698767475038767,-5.2944297654330725,-0.1597632764548063
1761508064943558100,2.54455810546875,-0.17134820804744957,-4.654046287792921,-0.3757946758374572
1761508064953529000,2.554529052734375,-0.6731617116481066,-3.4999534093141556,-0.7105638060644268
1761508064963501300,2.564501220703125,-1.1487918494611977,-2.0136492683976885,-1.295837683162093
1761508064973472000,2.574471923828125,-1.4127715794548392,-0.48915071364343166,-1.8977891388162969
1761508064983443000,2.58444287109375,-1.4495382985770702,1.1266349627107382,-2.5494588573634624
1761508064993415200,2.594415283203125,-1.3002882328301668,3.0227187589138746,-3.3140821703955528
1761508065003386000,2.60438623046875,-1.1608756704866885,5.1692228385746475,-4.1488203454002734
1761508065013358000,2.614358154296875,-1.148455749374628,7.5575073836416005,-4.807451135131717
1761508065023329000,2.6243291015625,-1.3986118289381264,10.024040705037116,-5.19730677728653
1761508065033301000,2.634301025390625,-1.8166849730566144,12.265247267699241,-5.384805032885074
1761508065043272000,2.64427197265625,-2.2219918668434024,14.467625210273265,-5.435992199286818
1761508065053244200,2.654244140625,-2.749626624920964,16.045388906747103,-4.9571045209825035
1761508065063215000,2.664215087890625,-3.31958047555089,16.992990075343847,-4.153328762735426
1761508065073187000,2.67418701171875,-3.8355388243600723,16.548810722327232,-2.6529534263685344
1761508065083158000,2.684157958984375,-4.233132951812446,14.419306292784213,-0.8798369614034891
1761508065093130000,2.6941298828125,-4.365008688910305,11.588223619925975,-0.14982026685029268
1761508065103101000,2.704100830078125,-4.378417913320661,8.641796073532104,-0.10705138470381498
1761508065113073200,2.7140732421875,-4.176851969403028,5.771387936979532,0.18995207849144935
1761508065123044000,2.724044189453125,-3.642024669472873,3.37620135743916,0.2570616211682558
1761508065133015000,2.73401513671875,-2.768020944267511,1.4941817424237727,0.2270025829911232
1761508065142987000,2.743987060546875,-1.3116618597596883,-0.09305003961920738,0.0803916335761547
1761508065152958200,2.753958251953125,0.418210799023509,-1.7018904268801212,-0.08512772218734026
1761508065162930000,2.763929931640625,2.257108188410103,-3.616834406375885,0.19250614688843487
1761508065172901000,2.773901123046875,3.929442558199167,-5.682984261861443,1.0096800236299632
1761508065182873000,2.783873046875,4.986119603064656,-7.79647162258327,2.0001357068300245
1761508065192844000,2.793843994140625,5.662993028712273,-9.274778919526934,2.725018253365159
1761508065202816000,2.80381591796875,6.108885615387559,-10.122792171168326,2.9669542015939947
1761508065212787200,2.813787109375,6.11095365383327,-10.651592758154868,2.9918060265168545
1761508065222759000,2.823759033203125,5.776255250754952,-10.84033020015955,2.875620902764797
1761508065232730000,2.833730224609375,5.1279637764692305,-10.960697285771369,2.835407550320029
1761508065242702000,2.8437021484375,4.485333981207013,-10.765939268302917,2.8288436617597936
1761508065252673000,2.853673095703125,3.948723304991424,-10.212466012352705,2.8448548853620883
1761508065262645000,2.86364501953125,3.574222176095843,-9.397052715542912,2.9409637280300256
1761508065272616200,2.8736162109375,3.4205279904216526,-8.59385651074946,3.0229478914946317
1761508065282587100,2.883587158203125,3.2276153085589407,-8.120998760259152,3.024185324335098
1761508065292559000,2.89355908203125,2.9849580603182315,-7.735228341591358,3.073308543944359
1761508065302530000,2.903530029296875,2.651701088219881,-7.513800343862176,3.1215701782882213
1761508065312502300,2.913502197265625,2.271812713328004,-7.517266558668017,3.0288954017221927
1761508065322473000,2.923472900390625,2.061848358899355,-7.571725294086336,2.8091449818164107
1761508065332445200,2.933445068359375,1.9529086762309074,-7.518983883979916,2.6187308387711643
1761508065342416100,2.943416015625,1.9370055891782043,-7.396418996062875,2.460484981141984
1761508065352388000,2.95338818359375,1.9469833778351544,-7.175324175810814,2.2832956458508966
1761508065362359000,2.963359130859375,1.9277754040181636,-6.837505594885349,2.0817007680997253
1761508065372331300,2.973331298828125,1.877426734267175,-6.3964709696352475,1.7347168839439748
1761508065382302000,2.983302001953125,1.9638181927800178,-5.503578127303719,1.1192805082947015
1761508065392274200,2.993274169921875,2.210365434196591,-3.884083659559488,0.005884674124419688
1761508065402245000,3.0032451171875,2.5453774332687256,-1.704081799444556,-1.3124474571794271
1761508065412216000,3.013216064453125,2.7372061192870136,1.2388386156111955,-2.3353537498682737
1761508065422188000,3.02318798828125,2.501071843074262,4.590763609927892,-2.819965651038289
1761508065432159200,3.0331591796875,1.3934604375243187,7.474405322062969,-2.681007262203097
1761508065442131000,3.043130859375,-0.0008913958817720412,10.217066199624538,-2.4762775935575365
1761508065452102100,3.05310205078125,-1.7425637980520725,12.785705558276176,-2.1908631536081433
1761508065462074000,3.06307421875,-3.6871766473636027,14.257272148787974,-1.6843515553191304
1761508065472045000,3.073045166015625,-5.233900770190358,13.779613720017672,-0.7754331685990095
1761508065482017000,3.08301708984375,-5.679198313581943,11.871384727990627,-0.4989920164391398
1761508065491988200,3.09298828125,-4.836266602988541,9.835092835152148,-1.1658248173266648
1761508065501960000,3.1029599609375,-3.2011192235603927,8.018882201609015,-2.1820169993296266
1761508065511931100,3.11293115234375,-1.610680462169647,6.520082151734829,-3.3017627870485184
1761508065521903000,3.122903076171875,-0.45610710669755933,5.637736422380804,-4.123697594581544
1761508065531874300,3.132874267578125,-0.15695874042809008,5.26910886169374,-4.324564742580056
1761508065541845000,3.142844970703125,-0.5887678566932678,4.994608614468574,-3.840167945465445
1761508065551817200,3.152817138671875,-1.1826117014765738,4.465862388017773,-3.0288658833667634
1761508065561788200,3.1627880859375,-2.027487239614129,3.7044226734578607,-2.1483958847567437
1761508065571760000,3.172760009765625,-2.8336387870818376,2.6771979330480096,-1.2859586787045
1761508065581731000,3.18273095703125,-3.1632144403189417,1.2701724960297345,-0.7853715020284057
1761508065591703300,3.192703369140625,-2.8369366595834493,-0.2878869675427675,-0.649404403963685
1761508065601674000,3.202674072265625,-1.8605521718338132,-1.6898440152555703,-0.5978735386908054
1761508065611646200,3.212646240234375,-0.5555316497847438,-2.9925626901030538,-0.4065405272349715
1761508065621617200,3.2226171875,0.7633692213177681,-4.048157784950733,-0.13697042988836763
1761508065631589000,3.232589111328125,1.7375597061544656,-4.820277298957109,0.19475538711994886
1761508065641560000,3.24256005859375,2.31430511662066,-5.108832959541678,0.6806397924438119
1761508065651532300,3.2525322265625,2.5459467575892805,-5.057582664775848,1.2164330147966742
1761508065661503000,3.2625029296875,2.4205811330378055,-4.9851352682024235,1.6011451565831898
1761508065671475200,3.27247509765625,2.1392600998818874,-4.814186580866575,1.8785817495211958
1761508065681446100,3.282446044921875,1.7795885835886,-4.556331763494015,2.086226721091568
1761508065691417300,3.292417236328125,1.3898217887610196,-4.329938252311945,2.0986080637589097
1761508065701389000,3.30238916015625,1.1745692647963761,-4.129333846902847,1.8335525212273
1761508065711360300,3.3123603515625,1.069706037786603,-3.939791518256068,1.3744862724632023
1761508065721332000,3.32233203125,1.1261384113654493,-3.5495588594824072,0.7811351796329021
1761508065731303200,3.33230322265625,1.335236212092638,-2.744910702314973,0.0827072170421481
1761508065741275100,3.342275146484375,1.5422092757508157,-1.6289567080944776,-0.6303297011375427
1761508065751246300,3.352246337890625,1.5368109238386154,-0.22913082719147204,-1.2609691988766192
1761508065761218000,3.362218017578125,1.22174661103487,1.1906991463422774,-1.8084411685854196
1761508065771189200,3.372189208984375,0.4864750646933913,2.361442715370655,-1.7751526469677685
1761508065781161000,3.382160888671875,-0.6594029431477189,3.015278379780054,-1.0362374834269286
1761508065791132200,3.392132080078125,-1.9646525977775453,2.8588164829581975,0.0836179021462798
1761508065801104100,3.402104248046875,-2.916686780385673,1.8283821328520773,1.1545157800659536
1761508065811075300,3.412075439453125,-3.1988311126232145,0.017216507738828657,1.7974018881767988
1761508065821047000,3.422047119140625,-2.6643244229495524,-1.9946786104679106,1.9891446494773029
1761508065831018200,3.432018310546875,-1.3607134754374623,-3.7673242430508136,1.9141139584124087
1761508065840989200,3.4419892578125,-0.025186171443760393,-5.3185395398169755,1.4805056837707757
1761508065850961200,3.451961181640625,1.2244716520845889,-6.309618615612387,0.8424313598558306
1761508065860932000,3.46193212890625,2.2724194470494985,-6.8522285322427745,0.3468915296971798
1761508065870904300,3.471904296875,2.9283886163562536,-6.560037730026245,-0.1437020762309432
1761508065880875000,3.481875,3.1334891641408205,-5.369554856783151,-0.38133915822207926
1761508065890847200,3.49184716796875,2.8289655345737934,-3.681766020491719,-0.29795068091750143
1761508065900818200,3.501818115234375,2.2003347463086245,-1.7678887934446335,-0.508193560026586
1761508065910790100,3.5117900390625,1.4406985740393399,0.4670324053376913,-0.8067340235307813
1761508065920760000,3.521760009765625,0.37782384357750415,2.8801708211541173,-0.9822197697743773
1761508065930732300,3.531732177734375,-0.9864990545287727,5.353833556038141,-1.4222937332987784
1761508065940703200,3.541703125,-2.0101213865324854,7.480484349715709,-2.124348069693148
1761508065950675200,3.55167529296875,-2.5753482086405155,9.212281839081644,-2.9215228222399947
1761508065960646100,3.561646240234375,-2.906542987512052,11.00381395844221,-3.6987779455691574
1761508065970617000,3.5716171875,-3.2718045788973567,12.78069737472534,-4.083637971393764
1761508065980589000,3.581589111328125,-3.826456523238122,13.9673679962039,-4.0476854912638665
1761508065990560000,3.59156005859375,-4.001440165178478,15.04116159556508,-4.170649023109674
1761508066000532200,3.6015322265625,-3.9023081752970814,15.356149920523166,-3.957382704526186
1761508066010503200,3.611503173828125,-3.9548412033498286,14.51763456506729,-3.0786671483680603
1761508066020475100,3.62147509765625,-4.0409325098723174,13.038375666487216,-2.218457847498357
1761508066030446000,3.631446044921875,-4.039358392423391,11.138121891123056,-1.8391507796257733
1761508066040418000,3.64141796875,-3.260323107679188,8.858264403027295,-1.803496113398671
1761508066050389000,3.651388916015625,-1.8338912516623735,6.134832542070746,-1.6211559712156653
1761508066060361200,3.661361328125,-0.375794968098402,3.4783407124429937,-1.5042194445744157
1761508066070332200,3.671332275390625,0.4651347550228238,1.0670417870134115,-1.053219305627048
1761508066080304000,3.68130419921875,0.49195641871392726,-1.000004725050926,-0.2205328024551272
1761508066090275000,3.691275146484375,0.233164905013144,-2.943805381196737,0.825455382874608
1761508066100246300,3.701246337890625,0.13244681498408317,-4.939679338929057,1.8442060171887278
1761508066110218000,3.711218017578125,-0.02846095533072948,-7.307543611779809,2.8927856803163885
1761508066120189200,3.721189208984375,-0.132588853803277,-9.55977659536898,3.4787998543873426
1761508066130161200,3.7311611328125,0.05733166050612926,-10.917430975496769,3.040349400411546
1761508066140132000,3.741132080078125,0.7883870504572987,-11.313521712648868,2.3232655449286104
1761508066150104000,3.75110400390625,1.6297133716806769,-11.103458574020863,1.966154526773095
1761508066160075300,3.7610751953125,2.4508517681390045,-10.177310527819394,1.6939970432817935
1761508066170047000,3.771046875,3.0786840995028615,-8.85277281987369,1.6497569195389747
1761508066180018200,3.78101806640625,3.114243488661945,-7.848292995235323,1.9409137025326488
1761508066189990400,3.790990478515625,2.6783567476943135,-7.137289920970797,2.113208251519501
1761508066199961000,3.800961181640625,2.4258944370150566,-6.674955902582407,2.4935566451385616
1761508066209933300,3.810933349609375,2.3852765954226256,-6.733328012052178,2.992631663686037
1761508066219904300,3.820904296875,2.39352098441571,-7.132651739776134,3.2388843060702084
1761508066229876200,3.830876220703125,2.5770938832640646,-7.739063974231481,3.323076500973105
1761508066239847200,3.84084716796875,2.804450686520338,-8.327188856846094,3.3208997414559125
1761508066249818000,3.850818115234375,3.014712854851782,-8.74158214340806,3.141264474317431
1761508066259790000,3.8607900390625,3.0717417330190537,-9.035976008626818,2.81514246866554
1761508066269761000,3.870760986328125,2.80382144870609,-9.119844962924718,2.5460081323876977
1761508066279733200,3.880733154296875,2.333099833461642,-8.7749279481709,2.279260983507335
1761508066289704200,3.8907041015625,1.6411474966257809,-7.9852751155614845,2.0681699631363153
1761508066299676200,3.90067626953125,0.9130880736202001,-7.19398036096394,1.9978923118174075
1761508066309647000,3.910647216796875,0.3106482499271631,-6.561274578344822,1.9317457689538597
1761508066319619000,3.920619140625,0.08060527632683515,-5.834068557298183,1.5648787881985307
1761508066329590000,3.930590087890625,0.300338745097816,-3.9314918919444084,0.3623188159316778
1761508066339562200,3.940562255859375,0.46356648279279467,-0.35574119110703467,-1.4125713807076214
1761508066349533200,3.950533203125,0.001273088675737381,4.002632297572493,-2.668508430635929
1761508066359505200,3.960505126953125,-1.3184686171650886,7.745815786579251,-2.9292876110225916
1761508066369476000,3.97047607421875,-2.9536107358962296,10.636099420946836,-2.2068249851107598
1761508066379448000,3.980447998046875,-4.319326841926574,12.808691297066211,-1.4527522921875118
1761508066389419000,3.9904189453125,-5.165169763791561,13.79140001940131,-0.5597273479089141
1761508066399390200,4.00039013671875,-4.94993243739605,12.65011050839424,0.19776713615655897
1761508066409362200,4.010362060546875,-3.4368075095713135,10.282608639115095,-0.4936579619348049
1761508066419333000,4.0203330078125,-1.3325006496489047,8.654926188740134,-1.9032561720505357
1761508066429305000,4.03030517578125,0.271541105158627,7.23849813260436,-2.7755419874221086
1761508066439276300,4.0402763671875,1.0346054983109234,6.1412804030358785,-3.3812527956098317
1761508066449248000,4.050248046875,0.8931243129998445,5.613061999851465,-3.767681678186357
1761508066459219200,4.06021923828125,0.10863631580770015,5.175640304401517,-3.6132188462272286
1761508066469191200,4.070191162109375,-0.3553089371696114,4.631405416917801,-3.032678427392244
1761508066479162000,4.080162109375,-0.5818897876173258,3.778468737399578,-2.3548080996617675
1761508066489134000,4.090134033203125,-1.0137123478859662,2.773289824581146,-1.7180390131264924
1761508066499105300,4.100105224609375,-1.6919915486782788,1.5099316847413777,-1.2012173254862426
1761508066509076200,4.110076171875,-2.057407453842461,0.10398702869713305,-0.8028174346089363
1761508066519048200,4.120048095703125,-1.722312452661991,-1.3018202647030352,-0.4608332584366202
1761508066529019100,4.13001904296875,-0.8738160936787724,-2.5818951460659503,-0.15696809277832507
1761508066538991000,4.1399912109375,0.18349954135119914,-3.5151638379275796,0.12274813552945851
1761508066548962000,4.149962158203125,1.2092507020771504,-4.077925146704912,0.44203912611752744
1761508066558934300,4.159934326171875,1.703399370138347,-4.246810471770167,0.8341600828558207
1761508066568905200,4.1699052734375,1.8339254461929202,-4.1013463543027635,1.2362892233893275
1761508066578877200,4.179877197265625,1.7860092642858623,-3.8771787024766207,1.5828525440454482
1761508066588848000,4.18984814453125,1.519638547502458,-3.7001276066124436,1.8053659989237785
1761508066598820000,4.199820068359375,1.1165855701223015,-3.5224265224069353,1.903141605760157
1761508066608791000,4.209791015625,0.7125260460481048,-3.2286025660306215,1.8712436617180703
1761508066618763300,4.21976318359375,0.34245676212012766,-2.9322844547510147,1.689324083034694
1761508066628734200,4.229734130859375,0.10969809982031584,-2.7483278172820804,1.3570765802398324
1761508066638706200,4.2397060546875,0.18538316314071415,-2.6848002247452736,1.0161825373917817
1761508066648677000,4.249677001953125,0.2860898549929261,-2.604546538335085,0.6734279613688587
1761508066658648300,4.2596484375,0.4467041953191161,-2.3600316795289515,0.2126078546747565
1761508066668620000,4.2696201171875,0.5467576839596032,-1.8635925624430179,-0.13994739987254143
1761508066678591200,4.27959130859375,0.6426929236263036,-1.1505384008675812,-0.16715280218422413
1761508066688563200,4.289563232421875,0.7561991835579276,-0.46906420342624183,-0.005404781652987003
1761508066698534100,4.2995341796875,1.0172630261048674,0.04524667043685913,0.043964521671831604
1761508066708506000,4.309506103515625,1.5166241681173442,0.5934849483430386,-0.19446341843605042
1761508066718477300,4.319477294921875,2.0071482159405947,1.2400737103641033,-0.4884872812986374
1761508066728449000,4.329448974609375,2.058698078174889,1.930538438990712,-0.5709869930699467
1761508066738420200,4.339420166015625,1.3370894387438892,2.5409254222959277,-0.5045972891002893
1761508066748392200,4.34939208984375,0.30612814215421674,2.829188237413764,-0.2569140293911099
1761508066758363100,4.359363037109375,-0.35945816580355167,2.5425959858566523,0.466824023284018
1761508066768335000,4.369335205078125,-0.7662476993635297,1.527173326921463,1.4534464119315147
1761508066778306300,4.379306396484375,-0.8955658609330653,-0.166269005087018,2.0699618149891497
1761508066788277200,4.38927734375,-0.5615788209944963,-1.9846435386657715,2.3348653818294403
1761508066798249200,4.399249267578125,0.09652706808000802,-3.575917874097824,2.1111580409914255
1761508066808220200,4.40922021484375,0.8769356870040297,-4.813105215370655,1.4723282225340604
1761508066818192100,4.419192138671875,1.7525091457441448,-5.409660657200217,0.7357353644609451
1761508066828163000,4.4291630859375,2.2860151339426635,-5.38604305024743,0.25822803459912536
1761508066838135300,4.43913525390625,2.4753183931365608,-4.7979900638252495,0.01610796197503805
1761508066848106200,4.449106201171875,2.2711378828063604,-3.645025312593579,-0.09941694430261849
1761508066858078200,4.459078125,1.6762129647880792,-2.208528866419196,-0.11083061098158359
1761508066868049200,4.469049072265625,0.8303563066586852,-0.6086141284137964,-0.3336246363669634
1761508066878021000,4.479021240234375,-0.33444150570780035,0.7032850472331047,-0.6631418374150991
1761508066887992000,4.488991943359375,-1.6759622048974037,1.8106950849920511,-0.8711565190806985
1761508066897964300,4.49896435546875,-2.9219948236659166,2.9036493118971585,-1.235601825647056
1761508066907935200,4.508935302734375,-3.7202921505019066,4.02628614488244,-1.8547548837319014
1761508066917908000,4.518907958984375,-3.7303541103109716,5.448327364724874,-2.7634868079692123
1761508066927879000,4.52887890625,-3.3167385301232337,7.311933371171355,-3.767186880406737
1761508066937849900,4.538849853515625,-3.0331843310877677,9.869959565871953,-4.817875790773332
1761508066947821800,4.54882177734375,-3.4932430980205535,12.86484748405218,-5.767908862692117
1761508066957792800,4.558792724609375,-4.4993145757645365,15.684002403229474,-6.10418313678503
1761508066967764700,4.5687646484375,-5.217454077780246,17.452022129577397,-5.478875647723674
1761508066977735700,4.578735595703125,-5.077936886018514,17.525175044071673,-4.238558483992517
1761508066987708000,4.5887080078125,-4.332907038989663,15.668574532473086,-2.7458941603943705
1761508066997678800,4.598678955078125,-3.527623798789084,12.551555441617966,-1.46561498863101
1761508067007650800,4.60865087890625,-3.158301826097071,9.085115010327101,-0.802922356288135
1761508067017621800,4.618621826171875,-3.2372946987912057,5.90516863091588,-0.5849158574402332
1761508067027593700,4.62859375,-3.8321839609742163,3.02806128898561,-0.8186538861662149
1761508067037564700,4.638564697265625,-3.9695074420839545,0.7782944032490253,-1.1489414870649575
1761508067047537000,4.648536865234375,-3.4554821071639656,-0.8804454486906528,-1.2413760251343249
1761508067057507800,4.6585078125,-2.5465353711321947,-2.350700372081995,-0.8319500055909156
1761508067067478800,4.668478759765625,-1.2817077432617545,-3.8635102426081893,0.14991875878870486
1761508067077451000,4.678450927734375,-0.4054185374677181,-5.751804700109362,1.358768771110475
1761508067087422000,4.688421875,0.23054712373018263,-7.923000153434276,2.4611650723606346
1761508067097394000,4.698393798828125,1.1884054824471473,-10.062392355263233,2.96914557415843
1761508067107364900,4.70836474609375,2.7705159759536384,-11.777148108935355,2.783504052342474
1761508067117337000,4.718337158203125,4.363280549943447,-12.56831134610772,2.295484973077476
1761508067127307800,4.728307861328125,5.493554745939374,-12.096979782271385,2.043454039552808
1761508067137280000,4.738280029296875,5.76378213815093,-10.646521446239948,2.293083757154643
1761508067147251000,4.7482509765625,5.085113645780086,-8.785221963170171,2.4604677377462387
1761508067157223000,4.758222900390625,3.5919673838838935,-7.129463757389783,2.59804665492177
1761508067167193900,4.76819384765625,1.9794030076637863,-6.052555825400352,2.9532860339865086
1761508067177166000,4.778166015625,0.9209685977369546,-5.670628053635358,3.4045337179541586
1761508067187136800,4.78813671875,0.7780693623214959,-6.029001931333542,3.7053891804024577
1761508067197109000,4.79810888671875,1.2822025410413742,-7.064898053976893,3.792552792331576
1761508067207080000,4.808079833984375,1.9827908965364098,-8.022915987169743,3.6066005971312523
1761508067217051000,4.81805078125,2.7247575566023587,-8.551883162894844,3.323908860144019
1761508067227022800,4.82802294921875,3.3280981285274027,-8.840938005173205,2.8559572941347957
1761508067236993800,4.837993896484375,3.8691964715510605,-8.860205600222944,2.319798453339934
1761508067246965800,4.8479658203125,4.155659251509607,-8.687861074614524,2.0632789762243626
1761508067256936700,4.857936767578125,4.25034741372466,-8.331917054411768,1.9117995439901947
1761508067266909000,4.867908935546875,4.156988162025809,-7.970794170266389,1.9510285615727305
1761508067276880000,4.8778798828125,3.6801086086735126,-7.572633641102909,2.0971143180698153
1761508067286851800,4.887851806640625,2.9312185790851712,-7.029350939777493,2.1085864369377494
1761508067296822800,4.89782275390625,2.07492206774503,-6.186238319659233,1.947830642314255
1761508067306795000,4.907794921875,1.0730080019414425,-4.663426695078611,1.4631974060952662
1761508067316765700,4.917765625,-0.0037920857593417164,-1.9250737438440322,0.5702268223524093
1761508067326738000,4.927738037109375,-1.3741317599371075,2.1879928588688373,-0.7340171623662114
1761508067336708900,4.937708984375,-3.3218416984811423,6.82428137165308,-1.9309908589333296
1761508067346679800,4.9476796875,-5.526099171191453,10.057990905433893,-2.0310671439275145
1761508067356651800,4.95765185546875,-6.408752943581343,12.25060616340637,-1.8967457672432064
1761508067366623000,4.967623046875,-5.957963817036152,13.633551052135228,-1.6280410545542836
1761508067376594700,4.9775947265625,-5.300823265862465,13.433311388385295,-0.9576748188436031
1761508067386566000,4.98756591796875,-4.630932538709044,12.094241881740093,-0.9049649729192256
1761508067396537900,4.997537841796875,-3.530308507828414,10.771293488812447,-1.9016499058976768
1761508067406508800,5.0075087890625,-2.120577026721835,9.764827458792924,-3.0140596516400575
1761508067416480800,5.017480712890625,-0.7309820324540138,8.787374757289886,-3.890413739363849
1761508067426452000,5.027451904296875,0.22686288225948809,7.513183088746667,-4.149384701284766
1761508067436423700,5.037423583984375,0.7284633276313542,6.180849027836323,-3.513947447875142
1761508067446395000,5.047394775390625,0.5258119265645742,5.155794032680988,-2.3432883422598243
1761508067456366800,5.057366943359375,-0.017194880428910254,4.431370335829258,-1.3473872531354427
1761508067466337800,5.067337890625,-0.6554039366394281,3.4973049406319854,-0.8324708145946264
1761508067476309800,5.077309814453125,-0.9593319384008645,2.263132563266158,-0.7277168931782245
1761508067486281000,5.087281005859375,-0.6921753319367766,0.8374363280475139,-0.7386521286904811
1761508067496252000,5.097251953125,-0.00614215601682663,-0.5757213281154632,-0.583036327303946
1761508067506223900,5.107223876953125,0.813804692569375,-1.9108043954730032,-0.511638147522509
1761508067516194800,5.11719482421875,1.668393230947852,-3.0282267086803913,-0.3875166778132319
1761508067526167000,5.1271669921875,2.233521268856525,-3.866294904890656,-0.08478285427242517
1761508067536137700,5.1371376953125,2.416576281310618,-4.299059129923582,0.38120705627501006
1761508067546110000,5.14710986328125,2.2489538157880307,-4.338386931705474,0.9525842177063226
1761508067556081000,5.157080810546875,2.0305887127608058,-4.139273057115077,1.4089610812559723
1761508067566052900,5.167052978515625,1.819773878982663,-3.9769484057396647,1.6381211345419286
1761508067576023800,5.17702392578125,1.5183862093538045,-3.820322258266806,1.616309115706384
1761508067585996000,5.18699609375,1.21548053637743,-3.7423411929637194,1.5004200522914528
1761508067595966700,5.196966796875,0.9524947858572006,-3.598468728601932,1.3625868680939077
1761508067605939000,5.20693896484375,0.7085854917287826,-3.261455034318566,1.191270808750391
1761508067615910000,5.216909912109375,0.5321060582727194,-2.7883681512475014,0.9869532280370592
1761508067625880800,5.226880859375,0.47355625414848324,-2.2822505207121373,0.7368170222178101
1761508067635852800,5.236852783203125,0.4267904113203287,-1.807922113147378,0.4034972140163183
1761508067645824000,5.246823974609375,0.37607320051789284,-1.421617441472411,0.047180853369832035
1761508067655795700,5.256795654296875,0.32742402816116806,-1.097951304540038,-0.193365686327219
1761508067665767000,5.266766845703125,0.33328707497566934,-0.7913730805307626,-0.20698592313975095
1761508067675739000,5.27673876953125,0.282059868824482,-0.5535165105700492,-0.05342763880491257
1761508067685710000,5.2867099609375,0.26286709257662294,-0.3273287510931492,0.2781380192056298
1761508067695681800,5.296681884765625,0.20335458090007305,-0.3328168271154165,0.6927861573114991
1761508067705653000,5.306653076171875,0.06277239025533199,-0.6156061792582274,1.0203647915124892
1761508067715624700,5.316624755859375,0.027104572285711764,-1.103585511034727,1.1979168226361274
1761508067725596000,5.326595947265625,0.02452010875046253,-1.7988748833388088,1.2882853680863975
1761508067735568000,5.33656787109375,0.14726093775629998,-2.4314228450477122,1.3057757243305443
1761508067745539000,5.3465390625,0.5031640414267778,-2.789909535470605,1.14960842654109
1761508067755509800,5.356509765625,1.0261667557895182,-2.8388778567790984,0.9412848250567912
1761508067765482000,5.36648193359375,1.5808324363946913,-2.4823925693064925,0.6479980442970991
1761508067775453000,5.376452880859375,1.874595602494478,-1.762195550239086,0.38782793571949004
1761508067785425000,5.3864248046875,1.621331912304461,-1.0757535012573003,0.3194108175754547
1761508067795395800,5.396395751953125,0.9599486089944839,-0.6410656146854162,0.26558248901516196
1761508067805368000,5.4063681640625,0.27027356944084163,-0.3082049484282732,0.144899761582911
1761508067815338800,5.4163388671875,-0.33692046304196116,0.11421733081042766,-0.030750527572631834
1761508067825311000,5.42631103515625,-0.821039027737081,0.8409270927727222,-0.5762251859843731
1761508067835282000,5.436281982421875,-1.239221769709885,1.918962567487359,-1.2614555210888385
1761508067845254000,5.44625390625,-1.6401391963660716,3.2344472004055973,-1.5924810808733105
1761508067855224800,5.456224853515625,-2.0917156738966702,4.595037633985281,-1.9432348389565943
1761508067865197000,5.466197021484375,-2.524474053710699,6.30778497044444,-2.690536138048768
1761508067875167700,5.476167724609375,-2.8441949601486325,8.36565215075314,-3.5794857957124706
1761508067885140000,5.486139892578125,-3.4025434209197756,10.297411071449517,-4.167202097526192
1761508067895111000,5.49611083984375,-4.244587827284634,11.748102047193049,-4.497945917759836
1761508067905082000,5.50608203125,-4.755198677586018,12.682502373433111,-4.787000175516307
1761508067915053600,5.516053466796875,-4.7712265600621695,13.280758189439773,-5.0210266657948495
1761508067925024500,5.5260244140625,-4.350542356662452,13.821568363171815,-5.10547254319787
1761508067934996500,5.53599658203125,-3.918674203686416,13.951574214744568,-4.7387560768291355
1761508067944967400,5.545967529296875,-4.019664680916071,13.267809860539435,-4.036101144193113
1761508067954939600,5.555939697265625,-4.680558447143436,11.681525003957749,-3.312050664567947
1761508067964910600,5.56591064453125,-5.171165789335966,9.219369166994094,-2.6712533454298972
1761508067974882600,5.575882568359375,-4.984428581237792,5.990736790347099,-1.8761133135810493
1761508067984853500,5.585853515625,-3.8767321277529,2.677503053474426,-0.8611582721576094
1761508067994825700,5.59582568359375,-1.9100678978919983,-0.4732540563315153,0.05254764109998941
1761508068004796400,5.60579638671875,0.08607523217052221,-3.708092301881313,0.9465142501428723
1761508068014768600,5.6157685546875,1.46854285877645,-6.81288553289175,1.7021230665922165
1761508068024739600,5.625739501953125,2.2056746460318566,-9.426173011565208,2.328080836255848
1761508068034710500,5.63571044921875,2.5351895089924334,-11.244898842799662,2.754724240320921
1761508068044682500,5.6456826171875,2.705892697134614,-12.033927406030893,2.779233535416424
1761508068054653400,5.6556533203125,3.1087068973228336,-11.956444353377819,2.645259072473645
1761508068064625400,5.66562548828125,3.7651781709328294,-11.294660360312461,2.71834856634289
1761508068074596400,5.675596435546875,4.546559142020344,-10.459011500203609,2.7905463720694184
1761508068084568600,5.685568603515625,5.042064193126559,-9.58433995873928,2.792874230495095
1761508068094539500,5.69553955078125,5.047719442409277,-8.700204423359036,2.843817359007895
1761508068104511500,5.705511474609375,4.6140439477503294,-7.908391197845339,3.0644518682718274
1761508068114482400,5.715482421875,4.080537959551811,-7.1450488645344965,3.404507122208178
1761508068124454400,5.725454345703125,3.6132638544127342,-6.6890276825547215,3.945660702550411
1761508068134425300,5.73542529296875,3.310286869765818,-6.494339807713032,4.537026174521446
1761508068144397600,5.7453974609375,3.234977654020488,-6.533804972139,4.885611064133048
1761508068154368500,5.755368408203125,3.3420325458556412,-6.737791421201825,4.998872117131948
1761508068164339500,5.76533935546875,3.441192008265853,-7.033852927371859,4.7362645522743465
1761508068174311400,5.7753115234375,3.540587325258553,-7.361227271172404,4.172685789634287
1761508068184282600,5.78528271484375,3.7008816398501394,-7.627854593065381,3.6259248908042907
1761508068194254300,5.79525439453125,3.8720892703831193,-7.807880320826173,3.0560397214964032
1761508068204225500,5.8052255859375,3.9597777829691765,-7.85782888534367,2.5447654388502237
1761508068214197500,5.815197509765625,3.9501264497876165,-7.735991142657399,2.1016139675766228
1761508068224168400,5.82516845703125,3.625715047445893,-7.416023860242962,1.6027862017884849
1761508068234140400,5.835140380859375,2.953536793877184,-6.911175811251997,1.1836679325312376
1761508068244111600,5.845111572265625,2.365746842305362,-6.090291974076628,0.5509568892151117
1761508068254083300,5.855083251953125,1.9665712908804416,-4.572690193098783,-0.6322045550987124
1761508068264054500,5.865054443359375,1.6802900049686431,-2.4483809941112993,-2.0380191550225017
1761508068274026500,5.875026611328125,1.4906021303713322,0.6208750595718622,-3.5618472631692883
1761508068283997400,5.88499755859375,1.0580366427809,4.520734964933991,-4.751542785426974
1761508068293969400,5.894969482421875,-0.48416123479306694,8.284266829964517,-5.130777664846182
1761508068303940600,5.904940673828125,-2.8446552711367605,12.155340785825253,-4.748392212441563
1761508068313911600,5.91491162109375,-5.761538743138313,15.929607979881762,-3.7029774430856106
1761508068323883500,5.924883544921875,-8.195747419512271,17.851466853332518,-2.5124121522560716
1761508068333854500,5.9348544921875,-8.999125995135307,16.885322312307355,-1.6955226454138754
1761508068343826400,5.944826416015625,-8.05721806974411,14.196363798838853,-1.8909841349765657
1761508068353797400,5.95479736328125,-6.04659136403799,11.434819357109069,-2.3971882747516036
1761508068363769600,5.96476953125,-4.0764597503274675,9.335470411854981,-2.9416078711524603
1761508068373740500,5.974740478515625,-2.695166720458865,7.5957432985335585,-3.343017757500708
1761508068383712500,5.98471240234375,-1.7777584455519913,6.203972129270434,-3.2624934374555945
1761508068393683500,5.994683349609375,-1.0270856242001056,5.223220970743895,-2.7168989520564675
1761508068403655400,6.004655517578125,-0.47506081349253654,4.102890661135316,-1.7210583609476684
1761508068413626400,6.01462646484375,-0.001177227085828781,2.7415017706543208,-0.9842635505616665
1761508068423598600,6.0245986328125,0.43599107812494037,1.1863356904357671,-0.6584013648897409
1761508068433569500,6.034569580078125,0.6825377350196242,-0.3752589615255594,-0.428451622530818
1761508068443540500,6.04454052734375,0.7469751358777285,-1.6944202371299266,-0.37529900127500293
1761508068453512400,6.054512451171875,0.7103034015625714,-2.9289158551007506,-0.2536106039315462
1761508068463483600,6.064483642578125,0.8496721247643232,-3.7858775523513555,-0.03200987998396158
1761508068473455400,6.074455322265625,1.1463044165596366,-4.205792232683301,0.2657368027940392
1761508068483426600,6.084426513671875,1.5212877760142087,-4.370553171294928,0.774322577008605
1761508068493398500,6.0943984375,1.7486626994490622,-4.320137573787569,1.3828174629569052
1761508068503369500,6.104369384765625,1.704606115579605,-4.28658543279767,1.8973519164428114
1761508068513341400,6.114341552734375,1.5230597541227935,-4.2695887052893635,2.1466472875237463
1761508068523312600,6.124312744140625,1.24252285708189,-4.231253421676159,2.2572829604551194
1761508068533284400,6.134284423828125,0.9108674749612807,-4.095753648862242,2.2907687582105396
1761508068543255600,6.144255615234375,0.632205431881547,-4.032607164597511,2.1596093526884914
1761508068553227500,6.1542275390625,0.5249497567772865,-3.9813615460067986,1.8765663180455565
1761508068563198500,6.164198486328125,0.5860983452230691,-3.830422211998701,1.4544851073294878
1761508068573169400,6.17416943359375,0.6983993210181594,-3.5436329765647647,1.0220467532500623
1761508068583141600,6.1841416015625,0.7654062801033258,-3.1577193500339984,0.6120093238100409
1761508068593112600,6.194112548828125,0.9090358756199478,-2.765041051673889,0.3227539905235171
1761508068603084500,6.20408447265625,1.0195786095708608,-2.2846610889852044,0.22942601074576377
1761508068613055500,6.214055419921875,0.9763619836568832,-1.6482985374242067,0.1726227580279112
1761508068623027500,6.22402734375,0.7347188808947801,-1.0077385341733693,0.13810674044191837
1761508068632998400,6.233998291015625,0.39211072760522364,-0.40503216849863527,0.12842793473154307
1761508068642970600,6.243970703125,0.024328970092535016,0.1490238557755947,0.2596814482778311
1761508068652941600,6.253941650390625,-0.2688093421071768,0.6529857695817947,0.5107254165917635
1761508068662913500,6.26391357421875,-0.4362704795882106,0.8557932379931211,0.8181096962869167
1761508068672884500,6.273884521484375,-0.4827256490319967,0.7081739883184432,0.990489585469663
1761508068682856400,6.2838564453125,-0.4357318426668644,0.2104097601085901,1.0440431887418031
1761508068692827400,6.293827392578125,-0.3528101060912013,-0.6286772577553987,1.081330132345855
1761508068702798600,6.303798583984375,-0.14253449375629423,-1.4537842655837534,1.015331765781343
1761508068712770600,6.3137705078125,0.2486217096030712,-2.0746096407949923,0.7711570987150073
1761508068722741500,6.323741455078125,0.624605478271842,-2.495245036616921,0.42758536109030243
1761508068732713500,6.33371337890625,0.9410895947456359,-2.7447809384554622,0.24295272405594587
1761508068742684700,6.3436845703125,1.107574872931838,-2.7270249170124528,0.1828261721342802
1761508068752656400,6.353656494140625,1.075799093964696,-2.5386247441381213,0.305387260659039
1761508068762627600,6.363627685546875,0.9782055656969547,-2.180786873012781,0.4366495420336723
1761508068772599600,6.373599609375,0.9324088601619005,-1.442473767018318,0.34145810647159813
1761508068782570500,6.383570556640625,0.7181330722749233,-0.32295068213939665,0.00869885476231575
1761508068792542500,6.39354248046875,0.4168687367647886,1.0021931750059128,-0.5774518051698804
1761508068802513700,6.403513671875,-0.001355214001238346,2.4155337865203617,-1.3731345655933023
1761508068812485400,6.4134853515625,-0.5244146269872785,4.282919896027446,-2.183821710664034
1761508068822456600,6.42345654296875,-0.9076695557028055,6.787084736680984,-3.214643306522071
1761508068832427500,6.433427490234375,-1.0313976421803235,9.939293214339017,-4.640063647408783
1761508068842399500,6.4433994140625,-1.1154717636615037,13.468559227377176,-6.198231539791822
1761508068852370400,6.453370361328125,-1.6042217875495552,16.209589288866518,-7.266149525117874
1761508068862342700,6.4633427734375,-2.989259556904435,17.680615781152248,-7.681561048811673
1761508068872313600,6.473313720703125,-4.148962676480412,18.05448767223358,-7.7114517446845765
1761508068882285600,6.48328564453125,-3.9376743799716234,17.1461593603611,-6.855628111553192
1761508068892256500,6.493256591796875,-2.6470146839693185,15.249610284733771,-5.176521178889274
1761508068902228500,6.503228515625,-1.170343171533942,12.854455853897333,-3.531890224061906
1761508068912199400,6.513199462890625,-0.5162859733283519,10.124702388703822,-2.287023141941428
1761508068922171400,6.52317138671875,-1.1058256911769508,6.659884590178728,-1.7413044456407427
1761508068932142600,6.533142578125,-2.498274321310222,2.9581805280297995,-1.6799474751412868
1761508068942114300,6.5431142578125,-3.8849946369245645,-0.29983342592418194,-1.1130614876493812
1761508068952085500,6.55308544921875,-5.239674092894792,-3.2339848435908554,0.0327343948662281
1761508068962057500,6.563057373046875,-5.7692047477215525,-6.008903146156668,1.5704519121557474
1761508068972028400,6.5730283203125,-5.06768787920475,-8.37898684862256,2.989839694879949
1761508068981999400,6.582999267578125,-3.142594553877413,-9.918009603291749,3.954825128997862
1761508068991971600,6.5929716796875,-0.740627520416677,-10.692199493831396,4.2595241151317955
1761508069001942300,6.6029423828125,1.3838003365144134,-11.126939987373351,4.097814965306222
1761508069011914500,6.61291455078125,3.051998044890165,-11.277351498115062,3.561389290268719
1761508069021885400,6.622885498046875,3.9909082497701047,-10.918315941637754,2.837647730462253
1761508069031857400,6.632857421875,4.24809115923047,-10.134484947049618,2.424975860865414
1761508069041828400,6.642828369140625,4.079668775501847,-9.046867989519239,2.5412442789867518
1761508069051800600,6.652800537109375,3.7199417296290394,-7.890338239282369,3.316279388178885
1761508069061771500,6.662771484375,3.424840885184705,-6.9076236717283725,4.101475533640384
1761508069071743500,6.672743408203125,3.1202509123831987,-6.512223839449882,4.861435531036555
1761508069081714400,6.68271435546875,3.0030434598460793,-6.5821098611027,5.435979339805245
1761508069091686400,6.692686279296875,3.1599104303374883,-7.115196162584423,5.6935097475290295
1761508069101657300,6.7026572265625,3.3695819392994046,-7.893688134232163,5.617642313379049
1761508069111628500,6.712628662109375,3.5492084386095404,-8.483535018333793,5.1222436452567575
1761508069121600500,6.7226005859375,3.63218365893811,-8.699650296607613,4.489547214987874
1761508069131571500,6.732571533203125,3.697167587763071,-8.736185252800583,4.036302511984109
1761508069141543400,6.74254345703125,3.5952588266447183,-8.718384223172068,3.702663554830849
1761508069151514600,6.7525146484375,3.403540615263581,-8.601120364272594,3.264500393363833
1761508069161486300,6.762486328125,3.1015058799028394,-8.463543200662732,2.797585476925969
1761508069171457500,6.77245751953125,2.655977158103883,-8.246352986633777,2.450968087995052
1761508069181429500,6.782429443359375,2.1272288858264683,-7.844625120377541,2.194453579315543
1761508069191400400,6.792400390625,1.5289724852979183,-7.193877485111355,1.8003551850244401
1761508069201372400,6.802372314453125,0.8582210496619344,-5.96848462652862,0.9245052474305033
1761508069211343600,6.812343505859375,0.2932522939682007,-3.5851451366484164,-0.6243211083725094
1761508069221315300,6.8223154296875,-0.23944676176160573,-0.1553817003697157,-2.237934409123659
1761508069231286500,6.83228662109375,-0.786262313388288,3.904167831689119,-3.4836902567774057
1761508069241257500,6.842257568359375,-1.6777017420411109,7.411307353115081,-3.9924169007673855
1761508069251229400,6.8522294921875,-2.5310972712427375,9.937464829868077,-3.925962314867973
1761508069261200400,6.862200439453125,-2.9358947542026637,11.461419779264926,-3.367368647164106
1761508069271172600,6.872172607421875,-3.681295480370521,11.383824498409032,-1.9426552855029702
1761508069281143600,6.8821435546875,-4.021284683333337,10.529514192450046,-1.0692428041890263
1761508069291115500,6.892115478515625,-3.619194998027384,9.806467629170417,-1.5605799219608305
1761508069301086500,6.90208642578125,-3.2359763096690175,9.514585454511641,-2.818891299805045
1761508069311058400,6.912058349609375,-2.902045968353748,9.800203308078647,-3.974573785562813
1761508069321029400,6.922029296875,-2.654974410802126,10.13332291753292,-4.884511286197602
1761508069331001600,6.932001708984375,-2.9459508687928317,10.340533589339255,-5.1521512922644614
1761508069340972500,6.94197265625,-3.7056542610794305,10.325462276935577,-4.953305713221431
1761508069350944500,6.951944580078125,-4.61971264103651,9.739580204811691,-4.260312927421928
1761508069360915500,6.96191552734375,-5.4496437080204485,8.373573591402172,-2.9206603601917625
1761508069370886400,6.971886474609375,-5.4120408303350205,6.531308479148149,-1.758432106052339
1761508069380858400,6.9818583984375,-4.29704779010117,4.240647857487201,-1.0108952446386217
1761508069390829300,6.991829345703125,-2.530871061271429,1.912947837242484,-0.436185723914206
1761508069400801500,7.001801513671875,-0.5862655184835195,-0.5859440314441919,-0.1184396246805787
1761508069410772200,7.011772216796875,1.1625298674345015,-2.9402637630671262,0.10651859300136565
1761508069420744400,7.021744384765625,2.4179583833187817,-4.801035422870516,0.39977585540562866
1761508069430715400,7.03171533203125,3.093076781992614,-5.999448504590988,0.7634516389042139
1761508069440687400,7.041687255859375,3.4349212574332952,-6.26155221157968,1.0564993502110243
1761508069450658300,7.051658203125,3.3494466215044256,-5.868917167839408,1.3971920252680778
1761508069460630500,7.061630615234375,2.7938363535255193,-5.11116169475019,1.7390502369731664
1761508069470601200,7.071601318359375,1.9267758715867995,-4.276849636203051,1.756861495734751
1761508069480573400,7.081573486328125,1.1062401171967386,-3.7293788355380295,1.6986001531630754
1761508069490544400,7.09154443359375,0.6962304525464773,-3.5413305448412893,1.4165756479129195
1761508069500516400,7.101516357421875,0.7689113656148314,-3.693464057070017,0.9415978365287184
1761508069510487300,7.1114873046875,1.1385828823968767,-3.6790363032668827,0.7269128833189606
1761508069520458500,7.12145849609375,1.431509305411577,-3.4616590422332285,0.6829638514772057
1761508069530430200,7.13143017578125,1.4679448928833008,-3.170126411664486,0.8482637192711233
1761508069540401400,7.1414013671875,1.4398951487019658,-2.5659423746526238,1.0606523782372475
1761508069550373400,7.151373291015625,1.2423951390489936,-1.6090145747840403,1.1201719041764735
1761508069560344600,7.161344482421875,0.736319301828742,-0.29865970596969127,0.8440595455795527
1761508069570316300,7.17131640625,-0.01081160913258791,1.1813964804679156,0.609114771412313
1761508069580287500,7.18128759765625,-0.7177554711341857,2.2754010932087896,0.8182315691009163
1761508069590259200,7.19125927734375,-1.101245085388422,2.8049603896081448,1.232246670000255
1761508069600230400,7.20123046875,-1.1764561014562844,2.8330992733776568,1.7325360327735542
1761508069610202400,7.211202392578125,-1.080278285205364,2.3976678749620914,2.126300665065646
1761508069620173600,7.221173583984375,-0.7493821970194577,1.4753846874952314,2.2012325719311834
1761508069630145300,7.231145263671875,-0.1763581451639533,0.19578969860374926,2.0959619331642982
1761508069640116500,7.241116455078125,0.6967226199775933,-1.0728694702535868,2.1240373963087795
1761508069650087400,7.25108740234375,1.584507325515151,-2.222182713240385,1.9769687662541866
1761508069660059400,7.261059326171875,2.2777134618043897,-3.0576947952270506,1.645910473243892
1761508069670030300,7.2710302734375,2.8163386927127836,-3.656836161896586,1.2652929072946308
1761508069680002600,7.28100244140625,2.979825958126783,-3.955362596875429,0.7986158912658691
1761508069689973200,7.29097314453125,2.8187989453464746,-3.9085201816797253,0.44332916592806576
1761508069699945500,7.300945556640625,2.3795167167216538,-3.6742104905456303,0.21572774026095867
1761508069709916400,7.31091650390625,1.7027368145763873,-3.3125381558239457,0.00895195274055004
1761508069719888400,7.320888427734375,0.7983201231896877,-2.8195880498975514,-0.1314060737594962
1761508069729859300,7.330859375,-0.2008370451211929,-2.0839193209320306,-0.1934799603566527
1761508069739831600,7.34083154296875,-0.9959159944325685,-1.2398358099550009,-0.18975772496312857
1761508069749802200,7.35080224609375,-1.54530636498332,-0.5202572150468826,-0.21538725626021624
1761508069759774500,7.3607744140625,-1.965600400021672,0.02825578814744949,-0.45828415847569703
1761508069769745400,7.370745361328125,-2.149037397530675,0.620019319525361,-0.7939204269260167
1761508069779717400,7.38071728515625,-2.1016180592298506,1.2852753726154564,-1.0362170251607894
1761508069789688300,7.390688232421875,-2.0955624124526975,2.026229933029413,-1.3704650541231036
1761508069799659500,7.400659423828125,-2.035164934635162,3.019772768589854,-1.8515794685661793
1761508069809631200,7.41063134765625,-2.0579414145886896,4.405597012147307,-2.5713302051708102
1761508069819602400,7.4206025390625,-2.2969687818944453,5.990602934834361,-3.237926566953957
1761508069829574400,7.430574462890625,-2.8667145427316427,7.670296142953633,-3.835698398835957
1761508069839545600,7.440545654296875,-3.513831128019094,9.407020567327738,-4.2440927372440695
1761508069849517300,7.450517333984375,-4.173779137828946,10.635642324829101,-4.236543052516877
1761508069859488500,7.460488525390625,-4.641604154849052,11.390884353792666,-4.259051236923039
1761508069869460200,7.470460205078125,-4.754052722421288,11.709640506851672,-4.435387462516129
1761508069879431400,7.480431396484375,-4.458960938066244,11.225802512663602,-4.302665629982948
1761508069889403400,7.4904033203125,-3.814755856311321,9.95812650962472,-3.7211005442753433
1761508069899374600,7.50037451171875,-3.206980516809225,8.01258923894465,-2.986973199532926
1761508069909345300,7.51034521484375,-2.664651755207777,5.5692170129060745,-2.1549460370525715
1761508069919317800,7.52031787109375,-2.0164216557204724,3.169047384256124,-1.319739660014212
1761508069929288700,7.530288818359375,-1.1771516825050115,1.131914948940277,-0.7842287617340683
1761508069939260700,7.5402607421875,-0.16625322299599646,-0.2723071210950613,-0.5239598689571022
1761508069949231600,7.550231689453125,1.0424977128654718,-1.2754624191313981,-0.28974516263008115
1761508069959203800,7.560203857421875,2.2122674684256314,-2.218814698112011,0.16681933244615793
1761508069969174500,7.570174560546875,3.143158325240016,-2.889292285242677,0.8276265894338488
1761508069979146800,7.580146728515625,3.598088789373636,-3.545478312170505,1.7393778614923356
1761508069989117700,7.59011767578125,3.4341485194951296,-4.4492268950372935,2.7189409792780874
1761508069999089700,7.600089599609375,3.0031197399526834,-5.473098233366012,3.701721597805619
1761508070009060600,7.610060546875,2.5798598408460616,-6.608527327907085,4.267423051688075
1761508070019032800,7.62003271484375,2.4695652364373206,-7.575958986133337,4.114685143825412
1761508070029003500,7.63000341796875,2.681882291471958,-8.405221360075473,3.7247742643520234
1761508070038975700,7.639975830078125,3.1112130349248646,-9.039485478052496,3.3014810474976897
1761508070048946700,7.64994677734375,3.7333302035123106,-9.348699895784259,2.903001077121496
1761508070058917600,7.659917724609375,4.32030650061369,-9.386528983440995,2.634268891903758
1761508070068889600,7.6698896484375,4.707822301644087,-9.08435104021728,2.350778113493323
1761508070078860500,7.679860595703125,4.669849421602487,-8.634943723419308,2.1177090700700876
1761508070088832500,7.68983251953125,4.237593730613589,-8.058759453967212,1.721326071973145
1761508070098803500,7.699803466796875,3.4130946255505084,-7.349030637422204,1.3657248738586902
1761508070108775700,7.709775634765625,2.560875154390931,-6.564497047522663,1.2061606271073222
1761508070118746600,7.71974658203125,1.7836743915975093,-5.862717144155502,1.2739143129065633
1761508070128718600,7.729718505859375,0.9971867450207471,-5.343920064789057,1.5147507754608989
1761508070138689500,7.739689453125,0.49241409935355185,-5.168247271540761,1.7776333578675985
1761508070148661500,7.74966162109375,0.28512217900454995,-5.3694128179639575,1.8075643857508896
1761508070158632400,7.759632568359375,0.5132528892427682,-5.292786674401164,1.3851356767714023
1761508070168604700,7.769604736328125,1.575616747573018,-4.405894533789158,0.3753425481557846
1761508070178575600,7.77957568359375,2.9444758278042076,-2.7843109848111864,-0.5884320488676429
1761508070188546600,7.789546630859375,3.71593074042201,-0.6587608458518982,-0.8852253764435648
1761508070198518500,7.7995185546875,3.2304145838886495,1.2990934700876473,-0.6996332467272878
1761508070208489700,7.80948974609375,1.6991513573050498,2.994188830000162,-0.27734920691549775
1761508070218461400,7.81946142578125,0.21003332801163196,5.40448822299838,-0.6059121759787202
1761508070228432600,7.8294326171875,-1.347683021211624,7.913363725560903,-1.1547609869986772
1761508070238404600,7.839404541015625,-3.0606057142376897,8.9749314650774,-1.2391837757870554
1761508070248375600,7.84937548828125,-4.03803561938703,8.699894626757501,-1.440312205070257
1761508070258347500,7.859347412109375,-3.5096938820838925,7.808942981621622,-1.9261983639597893
1761508070268318700,7.869318603515625,-1.6508499754726886,6.928666459757089,-2.168986837364733
1761508070278290400,7.87929052734375,0.3292699482887983,6.494730268335342,-2.0076906522542237
1761508070288261600,7.88926171875,1.1246627858549356,5.709806802335381,-1.5050962274089454
1761508070298233600,7.899233642578125,0.9611790275722741,4.70688297496736,-1.2957228246107697
1761508070308204500,7.90920458984375,-0.035253099688887596,3.850616274243593,-1.5514470596954226
1761508070318175500,7.919175537109375,-1.2107774732530117,3.238211521375179,-1.636128791680932
1761508070328147700,7.929147705078125,-1.9111504324316977,2.940897969317436,-1.4936717470750212
1761508070338118700,7.93911865234375,-2.339970888274908,2.5806325787842272,-1.3642264519944787
1761508070348090600,7.949090576171875,-2.5472037719130514,2.0083347953766584,-1.342985218784213
1761508070358061600,7.9590615234375,-2.47049871789515,1.2561322802394628,-1.3202008477851748
1761508070368033500,7.969033447265625,-2.146612800732255,0.4242909957200289,-1.1843538689687847
1761508070378004500,7.97900439453125,-1.696476585137844,-0.3012234189778566,-0.9337915466919541
1761508070387976700,7.988976806640625,-1.305427933806181,-0.9335533540219068,-0.5470139968082308
1761508070397947600,7.99894775390625,-0.9191548263132572,-1.4497364514976738,-0.03480301783382892
1761508070407919600,8.008919677734376,-0.6369663626730442,-1.890765231528878,0.4894394674569368
1761508070417890600,8.018890625,-0.49714697309434414,-2.2000182277053595,0.7864058135122061
1761508070427862500,8.028862548828124,-0.6131956109851598,-2.313227258256078,0.892845496058464
1761508070437833500,8.03883349609375,-0.905320362228155,-2.2706734801650046,0.8044634482502937
1761508070447805700,8.0488056640625,-1.1435679773330687,-2.184316800704598,0.6328241483017801
1761508070457776600,8.058776611328126,-1.1562509332954882,-2.087493087765574,0.4407648683980107
1761508070467747600,8.06874755859375,-1.1285182922393082,-1.8352829982817171,0.23239479742348193
1761508070477719600,8.078719482421874,-1.2083341717541216,-1.569723013359308,0.15901128904372452
1761508070487690800,8.088690673828125,-1.2507312979787588,-1.374132636719942,0.221074069724977
1761508070497662500,8.098662353515625,-1.2001298225104808,-1.14820966565907,0.31960429432094095
1761508070507633700,8.108633544921876,-1.263539926147461,-0.8247159626841545,0.42078269533812995
1761508070517605600,8.118605712890625,-1.295444299930334,-0.45211891384422775,0.4782321370050311
1761508070527576600,8.12857666015625,-1.0260323157548903,-0.23155600851178168,0.454746339738369
1761508070537548500,8.138548583984376,-0.5316320110201835,-0.15769348444342612,0.5051259891495108
1761508070547519700,8.148519775390625,-0.09113397686481475,-0.09494915123879909,0.500845535351336
1761508070557491500,8.158491455078124,0.17924539103806017,-0.06528291177153588,0.5251859036207199
1761508070567462700,8.168462646484375,0.28389468303620813,0.010293430477380752,0.6021317806571722
1761508070577433600,8.17843359375,0.2340904954254627,0.13808978930711746,0.706253541649878
1761508070587405600,8.188405517578126,0.12661270200312136,0.2561462598890066,0.7110811079367995
1761508070597376500,8.19837646484375,0.10576339071989059,0.3074608520627022,0.6423629610195756
1761508070607348700,8.2083486328125,0.13846271427273749,0.33391865087747574,0.6182189921051263
1761508070617319700,8.218319580078125,0.21020810005664825,0.3486258061438799,0.6152440679475665
1761508070627291600,8.228291748046875,0.2695715586513281,0.33195231924057006,0.5449652475848794
1761508070637262600,8.2382626953125,0.31415421222150325,0.3429313938945532,0.45657297064363955
1761508070647234600,8.248234619140625,0.2962660888314247,0.3477361638277769,0.39550796882808203
1761508070657205500,8.25820556640625,0.26498832251429555,0.29663726023137565,0.35168256336599585
1761508070667177700,8.268177734375,0.21675182261168954,0.24198913972079752,0.30410744998157024
1761508070677148700,8.278148681640625,0.13781974019408225,0.1546621539235115,0.20374299569576979
1761508070687120600,8.28812060546875,0.03861059342324733,0.04053308591842651,0.02328881338983774
1761508070697091600,8.298091552734375,-0.0912538038522005,-0.049525370669364924,-0.0688178078994155
1761508070707062800,8.308062744140624,-0.1730348459601402,-0.0905395181030035,-0.06199877553433179
1761508070717034500,8.318034423828125,-0.06007365269064903,-0.09486381104290485,-0.04305822048187256
1761508070727005700,8.328005615234375,0.1590022289544344,-0.10274024350643157,0.01319704296439886
1761508070736977700,8.337977783203126,0.3766664902359247,-0.16383622498214243,0.0710261315986514
1761508070746948600,8.347948486328125,0.5656523540437222,-0.2565022337198257,0.11909925763309001
1761508070756920600,8.357920654296874,0.5922504381120205,-0.26556816822886464,0.15755466049462555
1761508070766891800,8.367891845703125,0.4785089081197977,-0.16511925053000448,0.1703483833551407
1761508070776863500,8.377863525390625,0.2969815436244011,-0.08214870637655258,0.10908376731425523
1761508070786834700,8.387834716796876,0.10325170015990734,-0.06407645859122275,0.01866816785186529
1761508070796806700,8.397806640625,-0.010268880558013916,-0.07050035415887833,-0.10373948367685079
1761508070806777600,8.407777587890624,0.045837622067332266,-0.11954174070358276,-0.18470979392379522
1761508070816749600,8.41774951171875,0.17213059059679509,-0.25345687467455863,-0.27050299428254365
1761508070826721800,8.4277216796875,0.3796913910150528,-0.3960983359366655,-0.3371118939608335
1761508070836692500,8.4376923828125,0.5117746333837508,-0.4903565823018551,-0.3766609372779727
1761508070846663700,8.44766357421875,0.5179471845388413,-0.5104425079971552,-0.3995575364798307
1761508070856635600,8.4576357421875,0.47949967272281646,-0.43246027365028855,-0.33380934528410433
1761508070866606600,8.467606689453126,0.3737748604476452,-0.29403321521282194,-0.2278039625018835
1761508070876578600,8.47757861328125,0.24465163692831993,-0.1351765322089195,-0.11032120015472173
1761508070886549800,8.4875498046875,0.15303952115774153,0.021366613155603408,0.02227700599879026
1761508070896521500,8.497521484375,0.1148164657473564,0.0784054281949997,0.11234715302437544
1761508070906492700,8.50749267578125,0.16454525003433226,0.03304652955532074,0.039542905837297436
1761508070916464600,8.517464599609376,0.32375732234716414,-0.10305763889253139,-0.04223346009552478
1761508070926435300,8.527435302734375,0.4218354192614555,-0.2509592126399279,-0.10059241782277822
1761508070936407300,8.5374072265625,0.46702071489989755,-0.29344343262612815,-0.1553203255712986
1761508070946378200,8.547378173828125,0.41444881614148615,-0.24301672920286654,-0.1094333114042878
1761508070956350200,8.55735009765625,0.3067775459736585,-0.11267945371866225,0.05946136601120233
1761508070966321200,8.567321044921876,0.14487433488070964,0.037677696487307545,0.26401158643662925
1761508070976292400,8.577292236328125,-0.04513678032159805,0.15590134032964706,0.38643735814392566
1761508070986264300,8.587264404296874,-0.173057642313838,0.19634090274572372,0.4048395685359835
1761508070996235300,8.5972353515625,-0.1751660127699375,0.20829086825847626,0.341439694032073
1761508071006207200,8.607207275390625,-0.05278408020436764,0.16687106263339518,0.2556988083824515
1761508071016178400,8.617178466796876,0.08756430168449879,0.07033259637653827,0.17088292862325904
1761508071026150100,8.627150146484375,0.2567570852637291,-0.030351883643865582,0.10953969438821076
1761508071036121300,8.637121337890624,0.323489026799798,-0.13742811052799225,0.041613866892457003
1761508071046093300,8.64709326171875,0.3166214791178703,-0.21632161450088022,-0.01918313163667917
1761508071056064300,8.657064208984375,0.22246435503959655,-0.2372580195456743,-0.0025754034459590913
1761508071066036200,8.6670361328125,0.3855927240133285,-0.1960878047674894,0.10180500848293304
1761508071076007400,8.67700732421875,0.5234615640461444,-0.10972177295684814,0.241171393597126
1761508071085979100,8.686979248046875,0.21429741519689557,-0.11937281387746333,0.22843670744746922
1761508071095950300,8.696950439453126,-0.24918518870472905,-0.05257306780219078,-0.0018844985723495483
1761508071105922300,8.70692236328125,-0.42346214368045326,-0.16282441759109495,-0.15635989775210618
1761508071115893200,8.716893310546874,-0.3335626770466566,-0.18324585885107517,-0.23846388820409772
1761508071125864200,8.7268642578125,-0.18398177191019058,-0.16951427061855792,-0.19647884991168973
1761508071135836400,8.73683642578125,-0.027004326781630516,-0.12422609912753105,-0.16999767022132872
1761508071145807400,8.746807373046876,-0.04025602254271507,-0.11890636540949344,-0.24274404974132774
1761508071155779300,8.756779296875,-0.07346212657392025,-0.09531681550741194,-0.33260727601796386
1761508071165750300,8.766750244140624,-0.10770283434987067,-0.0352133522003889,-0.2968006340995431
1761508071175722200,8.77672216796875,-0.08925356994569301,0.06396189230084419,-0.1853881315767765
1761508071185693200,8.786693115234375,-0.09160393246412277,0.11503156980276107,-0.06498918952196836
1761508071195665400,8.79666552734375,-0.08756839333772659,0.1413461607545614,0.009110065911710262
1761508071205636400,8.80663623046875,-0.05863572884202003,0.15811258663833141,0.0663707070082426
1761508071215608300,8.8166083984375,-0.0581926612496376,0.12595160774588585,0.10155074146091937
1761508071225579300,8.826579345703125,-0.029736966615915298,0.06777882024049758,0.13264467564374208
1761508071235551200,8.83655126953125,-0.03398234910070896,-0.0008387889117002486,0.15088205086290835
1761508071245522200,8.846522216796876,-0.040890228793025014,-0.041593993148207664,0.12896306452155112
1761508071255493400,8.856493408203125,-0.05706687209010124,-0.10461305164098739,0.0815595083117485
1761508071265465300,8.86646533203125,-0.049148938572406764,-0.14392390228807925,0.005136778366565704
1761508071275436300,8.876436279296875,-0.06359247446656227,-0.16823182959258556,-0.06799597012251615
1761508071285408300,8.886408203125,-0.09770458742678165,-0.1673328349262476,-0.11422902124822139
1761508071295379500,8.89637939453125,-0.15159692113399506,-0.12857611103057862,-0.1348848557859659
1761508071305351200,8.90635107421875,-0.25111703355014325,-0.07814473143219948,-0.14902736290693283
1761508071315322400,8.916322265625,-0.395271237462759,0.0055693245649337765,-0.1318590782240033
1761508071325294300,8.92629443359375,-0.6428630194962024,0.08602291746139526,-0.08041764480024576
1761508071335265300,8.936265380859375,-0.8283242163091897,0.11512450878322124,-0.027587679627537727
1761508071345237200,8.9462373046875,-1.0595914710074663,0.1411246269583702,-0.07332505619078875
1761508071355208400,8.95620849609375,-1.3024497947782276,0.16592296812832355,-0.14111819721758365
1761508071365180200,8.96618017578125,-1.4283341825067997,0.1756622718542814,-0.2220642498061061
1761508071375151400,8.9761513671875,-1.4746668946146964,0.158051796361804,-0.2829316832229495
1761508071385122300,8.986122314453125,-1.4085562998473644,0.24329379257857797,-0.25984569892883297
1761508071395094300,8.99609423828125,-1.3180530221015214,0.3465986842304468,-0.20125059435814618
1761508071405065200,9.006065185546875,-1.1066875687032938,0.4063210392653942,-0.1310650052368641
1761508071415037400,9.016037353515625,-0.9055243603676557,0.4130570695221424,-0.07143938857465983
1761508071425008400,9.02600830078125,-0.7512585122853517,0.4050684088557958,-0.016195055736601353
1761508071434980400,9.03598046875,-0.5975643266111612,0.3308399740844965,0.010945172384381294
1761508071444951300,9.045951416015624,-0.4731488423913717,0.2686632116347551,0.013332359781861305
1761508071454923300,9.05592333984375,-0.29695699370503426,0.19247136783599852,0.04646335275024176
1761508071464894200,9.065894287109375,-0.1391588798433542,0.08422785073816776,0.16934826640188694
1761508071474866400,9.075866455078126,-0.07324643799662589,0.04258475775122642,0.2590133397579193
1761508071484837400,9.08583740234375,-0.17782617188990116,0.07748772882819176,0.3312923940271139
1761508071494809300,9.095809326171874,-0.4168301583200693,0.21971476407051085,0.37143706514984365
1761508071504780300,9.1057802734375,-0.5821124904572963,0.3929752354800701,0.49328094531595706
1761508071514752500,9.11575244140625,-0.5902075341075659,0.4449591052174568,0.649467824588716
1761508071524723200,9.12572314453125,-0.4554109411269426,0.3747808226197958,0.7412941676318645
1761508071534694100,9.135694091796875,-0.2730646614640951,0.24984920557141302,0.7900693044558167
1761508071544666400,9.145666259765624,-0.15702479140162467,0.208860192579031,0.8274059324204921
1761508071554637300,9.15563720703125,-0.10358195502758026,0.20213409919440745,0.8329065756633878
1761508071564609300,9.165609375,-0.040999534386396405,0.13362754920125006,0.7467486336454748
1761508071574580200,9.175580322265626,0.03550035244822502,0.06839899796545505,0.6341732248231768
1761508071584552200,9.18555224609375,0.11505787328779697,0.07037409743070602,0.6073360713019966
1761508071594523100,9.195523193359374,0.16660744326114654,0.057502340897917746,0.5899158576846122
1761508071604495400,9.205495361328126,0.21344868941307066,0.06334463718533516,0.5136813437879085
1761508071614466300,9.21546630859375,0.19855682522952556,0.1149216796875,0.49558805321454996
1761508071624438300,9.225438232421874,0.0706453155875206,0.1880102967739105,0.5224503411769866
1761508071634409200,9.2354091796875,-0.0840735369592905,0.26922785978019237,0.5382303863719106
1761508071644381200,9.245381103515625,-0.11920622513890265,0.32713352078199387,0.5413026334241032
1761508071654352100,9.25535205078125,-0.09964461557865142,0.2964449525296688,0.4919412211447954
1761508071664323300,9.2653232421875,0.07206219664812087,0.28285072694122787,0.48610272424966094
1761508071674295300,9.27529541015625,0.2053559838503599,0.23061609731316565,0.4480126475691795
1761508071684266200,9.285266357421875,0.367557301107049,0.19577625460028647,0.4163967353388667
1761508071694238200,9.29523828125,0.47747430437505245,0.16325521022379397,0.37918957897275685
1761508071704209400,9.30520947265625,0.6115566116064787,0.14551730895936488,0.2899810172125697
1761508071714181000,9.31518115234375,0.7986474554479122,0.11304887155294417,0.2264659918963909
1761508071724152300,9.32515234375,0.8784569052219391,0.1103857898235321,0.13923077603578568
1761508071734124300,9.335124267578125,0.9403671256899833,0.10724164657890796,0.07523425081297755
1761508071744095200,9.34509521484375,1.0427309370994566,0.08822714950740337,0.061386488854885096
1761508071754067200,9.355067138671876,1.1541671127587556,0.07934241678416729,0.0558845304377377
1761508071764038400,9.365038330078125,1.2614742257893086,0.00675122782588005,-0.016120090804249046
1761508071774010000,9.375010009765624,1.4535346747368574,-0.06223696820437908,-0.09923968803957105
1761508071783981300,9.384981201171875,1.5963760424852371,-0.11484919897317886,-0.12415215710848569
1761508071793953300,9.394953369140625,1.6024498094409703,-0.14832418307363987,-0.1820958120331168
1761508071803924200,9.40492431640625,1.506340966773033,-0.11397826135754585,-0.2109786460377276
1761508071813895200,9.414895263671875,1.3213070554614066,-0.028106150543689725,-0.2346431608721614
1761508071823867400,9.424867431640624,1.0351111097455024,0.027623919984698295,-0.3238273188434541
1761508071833838300,9.43483837890625,0.868499574831128,0.059466334447264665,-0.41642596143335103
1761508071843810300,9.444810302734375,0.7620289126247167,0.038925650721788406,-0.5115514921523631
1761508071853781200,9.45478125,0.6712216834962368,0.047292497050762175,-0.6005611703395843
1761508071863753200,9.464753173828125,0.6158662914991379,0.02606558462679386,-0.7092975855208933
1761508071873724200,9.47472412109375,0.6145072781056166,0.04128770367801189,-0.8110340588122605
1761508071883696400,9.4846962890625,0.4009820163249969,-0.09009118981361389,-0.8706425782091916
1761508071893667300,9.494667236328125,1.5200269622981548,-0.08565759128034114,-1.2937830887198447
1761508071903639300,9.504639404296874,2.6793688473463058,0.12768880680203437,-1.2079719143129886
1761508071913610200,9.5146103515625,2.442096214753389,-0.3612158231258392,-0.6856118817679584
1761508071923582000,9.52458203125,2.2366671656668187,0.0671335080742836,-0.7973726132065058
1761508071933553200,9.53455322265625,1.0520675052434205,0.07808043402433396,-0.23721871044859288
1761508071943524000,9.544524169921875,-0.032440964877605435,0.12773615307509897,0.035228403639048333
1761508071953496300,9.554496337890624,-0.6566489682644605,0.3124596832633018,-0.23734189843684433
1761508071963467000,9.564467041015625,-1.0899433546513317,0.5158996043592691,-0.40773090606331824
1761508071973439200,9.574439208984375,-1.334035019609332,0.5211141241371632,-0.2062543939948082
1761508071983410200,9.58441015625,-0.9943582435965538,0.5987538286566734,-0.024998539917171
1761508071993382100,9.594382080078125,-0.6309340967714786,0.4929179572224617,0.1255152621552348
1761508072003353000,9.60435302734375,-0.4404115249156952,0.3323819428294897,0.11373802286088466
1761508072013325300,9.6143251953125,-0.5566372729390859,0.22498189081847667,-0.012744476891309022
1761508072023296000,9.6242958984375,-0.7121142503768205,0.1565127502262592,-0.057294104974716896
1761508072033268200,9.634268310546876,-0.7586626510620117,0.1396603996247053,0.003575082007795572
1761508072043239200,9.6442392578125,-0.7521031464159488,0.14429974986314772,0.12889657515659927
1761508072053211100,9.654211181640624,-0.6673439652800559,0.09552724338769912,0.21118337482959032
1761508072063182000,9.66418212890625,-0.5561830994307995,0.015652327162027357,0.24604572163522243
1761508072073153000,9.674153076171875,-0.41108372362256046,-0.06858604497015476,0.2797605058409273
1761508072083125000,9.684125,-0.36333296141028404,-0.16106383765935897,0.28619959897771474
1761508072093096000,9.694095947265625,-0.34670974338948723,-0.15827566824555397,0.32335429450422526
1761508072103068200,9.704068115234374,-0.4572773195207119,-0.18015519935935734,0.2904049417130649
1761508072113039000,9.7140390625,-0.6098743576079607,-0.16900252170413732,0.26247604743242264
1761508072123011000,9.724010986328125,-0.6788608000725508,-0.1579214479804039,0.26256591767296195
1761508072132982000,9.73398193359375,-0.7418114695042372,-0.15170651898831128,0.24800489287897942
1761508072142954000,9.7439541015625,-0.8683347396582365,-0.13201251522004603,0.1939408558666706
1761508072152925000,9.753925048828124,-1.0903110189199448,-0.08939151711165905,0.14587050631120801
1761508072162897200,9.763897216796876,-1.3268383861035107,-0.007702829462289809,0.12312442149594426
1761508072172868000,9.7738681640625,-1.4703952086448668,0.11078209566473961,0.08719897550344467
1761508072182840000,9.783840087890624,-1.5338935750871896,0.18760814571380613,0.09397051546499133
1761508072192811000,9.79381103515625,-1.5501742632806301,0.2245353160947561,0.13303119074329733
1761508072202783200,9.803783203125,-1.492539820435643,0.2723512524977326,0.16094064967110752
1761508072212754000,9.81375390625,-1.4243728776603937,0.29764789857864377,0.19782953386828303
1761508072222725000,9.82372509765625,-1.3303303198724985,0.3146738521814346,0.2627051800131798
1761508072232697000,9.833697021484374,-1.1823884141147136,0.2939128037035465,0.3079479049272835
1761508072242668000,9.84366796875,-1.0058213023751974,0.25760347295999525,0.30436697770059107
1761508072252640000,9.853639892578125,-0.8349865968078375,0.21876696182638405,0.26210034598782656
1761508072262611200,9.863611083984376,-0.7045897000908852,0.17945874152779578,0.16144421527907252
1761508072272583000,9.8735830078125,-0.5715490108668804,0.14707944370955228,0.0882813639126718
1761508072282554000,9.88355419921875,-0.4054161993801594,0.11988865444511175,0.0433515043400228
1761508072292526000,9.893526123046875,-0.14792086296975612,0.04281272128820419,-0.0011992927871644495
1761508072302497000,9.9034970703125,0.13349836986362934,-0.06904051073938608,-0.07532689753249287
1761508072312469000,9.913468994140626,0.40132805328369137,-0.17638854030221698,-0.15528364682272075
1761508072322440200,9.923440185546875,0.6243681623846292,-0.27466917405128477,-0.26440964584350585
1761508072332412000,9.933411865234374,0.7313800918608904,-0.29692309143543244,-0.3245625012502074
1761508072342383000,9.943383056640625,0.7423942378282546,-0.25680764640718695,-0.33822672333493825
1761508072352354000,9.95335400390625,0.7743412817090749,-0.22417437382787464,-0.3494192946091294
1761508072362326300,9.963326171875,0.88783614346385,-0.22858079209327697,-0.33904403106719255
1761508072372297000,9.973296875,0.992623382627964,-0.22530367011874913,-0.2871092611685395
1761508072382269200,9.983269287109374,1.0297270786195993,-0.17714111223518847,-0.2084149330295622
1761508072392240000,9.993240234375,0.9856208103895187,-0.1122200195133686,-0.16331906924024223
1761508072402212000,10.003212158203125,0.8530810564249753,-0.016360183170437814,-0.18781857359409332
1761508072412183000,10.01318310546875,1.1664005713880061,-0.014386837270855903,-0.4596186219498515
1761508072422155300,10.0231552734375,2.3667495896071196,0.45496845805644986,-0.6073578447423875
1761508072432126000,10.0331259765625,1.4314970304518937,-0.14232172778844832,0.13038155301734805
1761508072442098200,10.04309814453125,1.3757190291285515,-0.21052052700668572,-0.24117197811901567
1761508072452069000,10.053069091796875,1.0623936689466238,-0.19708090745806692,-0.7178843582108616
