time,seconds_elapsed,z,y,x
1761508062480604200,0.081604248046875,-0.029332511126995087,0.020642701536417007,-0.02245049551129341
1761508062490576400,0.091576416015625,-0.04170316085219383,0.022204644978046417,-0.02233225107192993
1761508062500547000,0.101547119140625,-0.0496462918817997,0.028006158769130707,-0.04374953731894493
1761508062510519300,0.111519287109375,-0.05373397842049599,0.04500112310051918,-0.07341554760932922
1761508062520490200,0.121490234375,-0.05751659348607063,0.07062462717294693,-0.1030891016125679
1761508062530461200,0.131461181640625,-0.06867310404777527,0.09612546116113663,-0.13800127804279327
1761508062540433200,0.14143310546875,-0.08698458969593048,0.11591490358114243,-0.17011192440986633
1761508062550404000,0.151404052734375,-0.10631567984819412,0.12469534575939178,-0.18511244654655457
1761508062560376000,0.1613759765625,-0.11724583059549332,0.12341104447841644,-0.1869228184223175
1761508062570347000,0.171346923828125,-0.12689606845378876,0.13681712746620178,-0.16968151926994324
1761508062580319200,0.1813193359375,-0.11928153783082962,0.14810799062252045,-0.14847080409526825
1761508062590290200,0.191290283203125,-0.10277234017848969,0.1594243049621582,-0.12747684121131897
1761508062600262100,0.20126220703125,-0.09125014394521713,0.15850044786930084,-0.1159243956208229
1761508062610233000,0.211233154296875,-0.09860526025295258,0.14858897030353546,-0.10731732845306396
1761508062620205000,0.221205078125,-0.11197257041931152,0.14190508425235748,-0.1079317182302475
1761508062630176000,0.231176025390625,-0.1244545429944992,0.14482364058494568,-0.11000765115022659
1761508062640148200,0.241148193359375,-0.13878335058689117,0.16350392997264862,-0.11054378747940063
1761508062650119200,0.251119140625,-0.1437070071697235,0.1789337545633316,-0.10404594242572784
1761508062660091100,0.261091064453125,-0.14915694296360016,0.19880950450897217,-0.0912153571844101
1761508062670062000,0.27106201171875,-0.15300893783569336,0.2264222353696823,-0.08241388201713562
1761508062680033300,0.281033203125,-0.14830763638019562,0.24018386006355286,-0.08909954875707626
1761508062690005000,0.2910048828125,-0.1443701535463333,0.25825127959251404,-0.11386348307132721
1761508062699976200,0.30097607421875,-0.1463119238615036,0.2711970806121826,-0.1409701704978943
1761508062709948200,0.3109482421875,-0.14500245451927185,0.279316782951355,-0.1664249300956726
1761508062719919000,0.320919189453125,-0.15428242087364197,0.2953406572341919,-0.1800200194120407
1761508062729891000,0.33089111328125,-0.15857729315757751,0.33521243929862976,-0.19095389544963837
1761508062739862300,0.3408623046875,-0.16444046795368195,0.41708749532699585,-0.20881237089633942
1761508062749834000,0.350833984375,-0.17694321274757385,0.5083239078521729,-0.22695356607437134
1761508062759805200,0.36080517578125,-0.1960149109363556,0.5740405917167664,-0.25470420718193054
1761508062769777200,0.370777099609375,-0.2093285769224167,0.5892443060874939,-0.2829555571079254
1761508062779748000,0.380748046875,-0.21634364128112793,0.5509291887283325,-0.3132808208465576
1761508062789720000,0.390719970703125,-0.2290319949388504,0.48160606622695923,-0.32954341173171997
1761508062799691300,0.400691162109375,-0.23211103677749634,0.39353474974632263,-0.3378105163574219
1761508062809663000,0.4106630859375,-0.22653304040431976,0.3264521360397339,-0.3316807150840759
1761508062819634200,0.42063427734375,-0.22042827308177948,0.27274948358535767,-0.3165057599544525
1761508062829605000,0.430605224609375,-0.20788691937923431,0.23160631954669952,-0.2823243737220764
1761508062839577000,0.4405771484375,-0.18499097228050232,0.19464236497879028,-0.2407199740409851
1761508062849548000,0.450548095703125,-0.15612603724002838,0.1541745662689209,-0.1910317838191986
1761508062859520300,0.460520263671875,-0.12746748328208923,0.11901524662971497,-0.14269967377185822
1761508062869491200,0.4704912109375,-0.11601988971233368,0.10017311573028564,-0.11043041199445724
1761508062879463200,0.480463134765625,-0.11437849700450897,0.10845736414194107,-0.08869536221027374
1761508062889434000,0.49043408203125,-0.12246944010257721,0.150068998336792,-0.09094999730587006
1761508062899406000,0.500406005859375,-0.12277767062187195,0.21672096848487854,-0.08971885591745377
1761508062909377000,0.510376953125,-0.11464729905128479,0.2836347818374634,-0.0695832222700119
1761508062919349800,0.520349853515625,-0.10725383460521698,0.32268524169921875,-0.021532341837882996
1761508062929320400,0.530320556640625,-0.10080578923225403,0.334550142288208,0.049235038459300995
1761508062939292700,0.540292724609375,-0.08265281468629837,0.32892194390296936,0.10737884044647217
1761508062949263600,0.550263671875,-0.059137098491191864,0.31600987911224365,0.15196335315704346
1761508062959235600,0.560235595703125,-0.04176158457994461,0.2891283929347992,0.18066918849945068
1761508062969206500,0.57020654296875,-0.04285747557878494,0.235849991440773,0.1891942322254181
1761508062979178800,0.5801787109375,-0.06677986681461334,0.1697016805410385,0.18406037986278534
1761508062989149700,0.590149658203125,-0.10289152711629868,0.07542604207992554,0.1567011922597885
1761508062999121700,0.60012158203125,-0.14088492095470428,-0.04992275685071945,0.10386244207620621
1761508063009092600,0.610092529296875,-0.15200094878673553,-0.15592509508132935,0.046185024082660675
1761508063019063800,0.620063720703125,-0.12208524346351624,-0.21792709827423096,-0.007244104519486427
1761508063029035500,0.630035400390625,-0.03991740196943283,-0.21737556159496307,-0.029304932802915573
1761508063039006700,0.6400068359375,0.08145656436681747,-0.1428859680891037,0.0264288280159235
1761508063048978700,0.649978759765625,0.18890713155269623,-0.023738542571663857,0.11942800879478455
1761508063058949600,0.65994970703125,0.27539607882499695,0.05501602590084076,0.19586612284183502
1761508063068921600,0.669921630859375,0.32817140221595764,0.07908886671066284,0.24456149339675903
1761508063078892800,0.679892822265625,0.2763529419898987,0.08044441789388657,0.2700820565223694
1761508063088864500,0.689864501953125,0.14568547904491425,0.006016523577272892,0.24176117777824402
1761508063098835700,0.699835693359375,-0.04521016776561737,-0.1085052639245987,0.2061198353767395
1761508063108807700,0.7098076171875,-0.27761971950531006,-0.16624686121940613,0.193681001663208
1761508063118778600,0.719778564453125,-0.5075997710227966,-0.07013460248708725,0.18055276572704315
1761508063128750600,0.72975048828125,-0.6955204010009766,0.19527070224285126,0.13621805608272552
1761508063138721800,0.7397216796875,-0.798315167427063,0.6528941988945007,0.08927329629659653
1761508063148693500,0.749693603515625,-0.7713596820831299,1.1354725360870361,0.026978768408298492
1761508063158664700,0.759664794921875,-0.6391754746437073,1.468505620956421,-0.013249686919152737
1761508063168635600,0.7696357421875,-0.4723593592643738,1.5550825595855713,-0.022818690165877342
1761508063178607600,0.779607666015625,-0.3226699233055115,1.3261528015136719,-0.08847595751285553
1761508063188578600,0.78957861328125,-0.22014832496643066,0.8836789131164551,-0.1758100688457489
1761508063198550800,0.79955078125,-0.1690864861011505,0.3307311236858368,-0.2732027471065521
1761508063208521700,0.809521728515625,-0.1168842762708664,-0.14921364188194275,-0.35164162516593933
1761508063218493700,0.81949365234375,-0.03254013881087303,-0.44597750902175903,-0.3859482407569885
1761508063228464600,0.829464599609375,0.10302647948265076,-0.545071005821228,-0.3981204628944397
1761508063238436600,0.8394365234375,0.2762647271156311,-0.49299541115760803,-0.3817349970340729
1761508063248407600,0.849407470703125,0.44486308097839355,-0.3724338412284851,-0.3394506573677063
1761508063258379800,0.8593798828125,0.5831977128982544,-0.21038426458835602,-0.246956005692482
1761508063268350700,0.869350830078125,0.6999038457870483,-0.06378469616174698,-0.10075643658638
1761508063278322700,0.87932275390625,0.8007314801216125,0.03583041951060295,0.1320018768310547
1761508063288293600,0.889293701171875,0.823345959186554,0.045056674629449844,0.38613107800483704
1761508063298265600,0.899265625,0.7438854575157166,-0.024414777755737305,0.6084765195846558
1761508063308236500,0.909236572265625,0.5805388689041138,-0.1766280084848404,0.7680984139442444
1761508063318208800,0.919208740234375,0.39082059264183044,-0.31775376200675964,0.8277168869972229
1761508063328179700,0.9291796875,0.2060539275407791,-0.40198370814323425,0.7145701050758362
1761508063338150700,0.939150634765625,0.0638669952750206,-0.37222903966903687,0.45151832699775696
1761508063348122600,0.94912255859375,-0.04084477201104164,-0.20043732225894928,0.1147163063287735
1761508063358093800,0.95909375,-0.08787880092859268,0.005788290873169899,-0.16796214878559113
1761508063368065500,0.9690654296875,-0.08033566176891327,0.15409760177135468,-0.3088633418083191
1761508063378036700,0.97903662109375,-0.05335883051156998,0.17661239206790924,-0.29174792766571045
1761508063388008700,0.9890087890625,-0.0011725900694727898,0.06132308021187782,-0.1583765596151352
1761508063397979600,0.998979736328125,0.07920393347740173,-0.1261921226978302,0.04286779835820198
1761508063407951600,1.00895166015625,0.1761224865913391,-0.33980265259742737,0.24757379293441772
1761508063417922800,1.0189228515625,0.26519298553466797,-0.4958536922931671,0.40164658427238464
1761508063427894500,1.02889453125,0.31737762689590454,-0.5825907588005066,0.4832839071750641
1761508063437865700,1.03886572265625,0.34549617767333984,-0.6036840081214905,0.5210501551628113
1761508063447837700,1.048837646484375,0.3511583209037781,-0.597973108291626,0.5113626718521118
1761508063457808600,1.05880859375,0.3334014117717743,-0.5796788930892944,0.4602416455745697
1761508063467780600,1.068780517578125,0.29955556988716125,-0.5574886202812195,0.3649127185344696
1761508063477751800,1.078751708984375,0.23522420227527618,-0.5418077111244202,0.21008075773715973
1761508063487722800,1.08872265625,0.10396125912666321,-0.5477471351623535,-0.00645314808934927
1761508063497694700,1.09869482421875,-0.07613389194011688,-0.5956366658210754,-0.24098095297813416
1761508063507665700,1.108665771484375,-0.2692743241786957,-0.6238102316856384,-0.3849429190158844
1761508063517637600,1.1186376953125,-0.4141799509525299,-0.5958795547485352,-0.3511089086532593
1761508063527608600,1.128608642578125,-0.521496593952179,-0.4782804250717163,-0.14362816512584686
1761508063537580800,1.138580810546875,-0.731265127658844,-0.3999008536338806,0.12735140323638916
1761508063547551700,1.1485517578125,-0.9607731103897095,-0.6337383985519409,0.3018784523010254
1761508063557523700,1.158523681640625,-0.9352900981903076,-0.965700089931488,0.3375309705734253
1761508063567494700,1.16849462890625,-0.44340163469314575,-0.9719399213790894,0.3219629228115082
1761508063577466600,1.178466552734375,0.3245909512042999,-0.5118467211723328,0.3090718984603882
1761508063587437600,1.1884375,1.0442495346069336,0.24779418110847473,0.29894760251045227
1761508063597409800,1.198409912109375,1.4751248359680176,1.0088505744934082,0.31089040637016296
1761508063607380700,1.208380615234375,1.5620232820510864,1.4059579372406006,0.30349212884902954
1761508063617352700,1.218352783203125,1.2699311971664429,1.3153152465820312,0.36468982696533203
1761508063627323600,1.22832373046875,0.7127591967582703,0.8835552930831909,0.5317185521125793
1761508063637294600,1.238294677734375,0.04430093616247177,0.3806115388870239,0.6565789580345154
1761508063647266600,1.2482666015625,-0.5164592862129211,0.11725739389657974,0.6079720258712769
1761508063657237500,1.258237548828125,-0.846671998500824,0.18162097036838531,0.38441213965415955
1761508063667209700,1.268209716796875,-0.948880136013031,0.4786606431007385,0.045759234577417374
1761508063677180400,1.278180419921875,-0.864409863948822,0.8165035843849182,-0.31785261631011963
1761508063687152600,1.288152587890625,-0.6522323489189148,1.0561050176620483,-0.6001143455505371
1761508063697123600,1.29812353515625,-0.39587152004241943,1.135777235031128,-0.7360013723373413
1761508063707095600,1.308095458984375,-0.17493486404418945,0.9925198554992676,-0.6496241688728333
1761508063717066500,1.31806640625,-0.052570801228284836,0.6471162438392639,-0.36381199955940247
1761508063727038700,1.328038818359375,-0.015630891546607018,0.16808122396469116,-0.02137662284076214
1761508063737009400,1.338009521484375,-0.024803727865219116,-0.3224457800388336,0.24589475989341736
1761508063746981600,1.347981689453125,-0.05882960557937622,-0.6939203143119812,0.36226847767829895
1761508063756952600,1.35795263671875,-0.10632935166358948,-0.9692851901054382,0.298577219247818
1761508063766924500,1.367924560546875,-0.17449162900447845,-1.1599462032318115,0.1349715143442154
1761508063776895500,1.3778955078125,-0.28026095032691956,-1.2341058254241943,-0.07673628628253937
1761508063786867700,1.38786767578125,-0.38109248876571655,-1.1607381105422974,-0.29597222805023193
1761508063796838400,1.39783837890625,-0.40415605902671814,-0.8550819158554077,-0.4508371353149414
1761508063806809600,1.4078095703125,-0.3220990300178528,-0.3847338557243347,-0.4895765483379364
1761508063816781600,1.417781494140625,-0.1599879264831543,0.0992770865559578,-0.3996807336807251
1761508063826752800,1.427752685546875,0.01310715638101101,0.3939100503921509,-0.18964415788650513
1761508063836724500,1.437724365234375,0.13301296532154083,0.4868661165237427,0.08285988122224808
1761508063846695700,1.44769580078125,0.21609880030155182,0.3612171411514282,0.30115970969200134
1761508063856667400,1.45766748046875,0.26040586829185486,0.06043694540858269,0.44120532274246216
1761508063866638600,1.467638671875,0.2500919997692108,-0.31161436438560486,0.5075811743736267
1761508063876610600,1.477610595703125,0.2177724540233612,-0.6627458930015564,0.5037972331047058
1761508063886581800,1.487581787109375,0.1737874299287796,-0.8739617466926575,0.4254254698753357
1761508063896553500,1.497553466796875,0.12831690907478333,-0.9079973697662354,0.2881304919719696
1761508063906524700,1.507524658203125,0.07831180095672607,-0.8228976726531982,0.1314854770898819
1761508063916497000,1.517496826171875,0.011460166424512863,-0.663197934627533,-0.016856441274285316
1761508063926467800,1.5274677734375,-0.06664395332336426,-0.45744290947914124,-0.12745699286460876
1761508063936440000,1.537440185546875,-0.14509478211402893,-0.22954913973808289,-0.21382340788841248
1761508063946411000,1.547410888671875,-0.214075967669487,0.002197528723627329,-0.26309242844581604
1761508063956381700,1.557381591796875,-0.27192968130111694,0.1819792091846466,-0.2760363221168518
1761508063966354000,1.56735400390625,-0.28899574279785156,0.26733431220054626,-0.26702576875686646
1761508063976324900,1.577324951171875,-0.27973341941833496,0.2793932557106018,-0.2596787214279175
1761508063986296800,1.587296875,-0.2613637447357178,0.20648153126239777,-0.2400011420249939
1761508063996267800,1.597267822265625,-0.24693334102630615,0.03607631102204323,-0.21024774014949799
1761508064006240000,1.607239990234375,-0.21730542182922363,-0.19420774281024933,-0.19123969972133636
1761508064016210700,1.617210693359375,-0.1529698371887207,-0.40652453899383545,-0.17579123377799988
1761508064026183000,1.627182861328125,-0.06986255198717117,-0.5043666362762451,-0.17852534353733063
1761508064036154000,1.637154052734375,-0.004917461890727282,-0.4746241569519043,-0.24253861606121063
1761508064046125800,1.647125732421875,0.004790026694536209,-0.38249078392982483,-0.3328924775123596
1761508064056097000,1.657096923828125,-0.09122893214225769,-0.31266048550605774,-0.45681503415107727
1761508064066069000,1.667069091796875,-0.2702554166316986,-0.26524317264556885,-0.6226769089698792
1761508064076040000,1.6770400390625,-0.4838246703147888,-0.23335249722003937,-0.798337459564209
1761508064086012000,1.687011962890625,-0.6409543752670288,-0.10106981545686722,-0.9586922526359558
1761508064095983000,1.696983154296875,-0.6323317885398865,0.10864022374153137,-1.086628794670105
1761508064105954000,1.7069541015625,-0.41419464349746704,0.4754946529865265,-1.1101032495498657
1761508064115926000,1.716926025390625,-0.04651874676346779,0.9331516623497009,-1.0271739959716797
1761508064125897000,1.72689697265625,0.3216848373413086,1.3163055181503296,-0.8743183612823486
1761508064135869000,1.736868896484375,0.5212027430534363,1.536453366279602,-0.7079963684082031
1761508064145839900,1.74683984375,0.6292312145233154,1.5496858358383179,-0.5715717077255249
1761508064155812000,1.75681201171875,0.670177161693573,1.4182772636413574,-0.3956153690814972
1761508064165783000,1.766782958984375,0.6610568761825562,1.2112585306167603,-0.12800046801567078
1761508064175755000,1.776755126953125,0.5932174324989319,1.0095316171646118,0.20899049937725067
1761508064185726000,1.786725830078125,0.4362747073173523,0.8465284109115601,0.5496444702148438
1761508064195698000,1.796697998046875,0.26095956563949585,0.703701913356781,0.8103563785552979
1761508064205668900,1.8066689453125,0.1411554217338562,0.5412432551383972,0.9348389506340027
1761508064215641000,1.81664111328125,0.13080182671546936,0.4043634235858917,0.9387727975845337
1761508064225612000,1.826612060546875,0.22009016573429108,0.23729108273983002,0.821301281452179
1761508064235584000,1.836583984375,0.3523939251899719,0.021335890516638756,0.6410304307937622
1761508064245555000,1.846554931640625,0.42211946845054626,-0.23509642481803894,0.43218904733657837
1761508064255526000,1.85652587890625,0.36495161056518555,-0.4819585978984833,0.295648992061615
1761508064265497900,1.866497802734375,0.23321619629859924,-0.662765622138977,0.2535625398159027
1761508064275468800,1.87646875,0.07904946804046631,-0.7784357666969299,0.2586985230445862
1761508064285441000,1.88644091796875,-0.08320468664169312,-0.7893957495689392,0.260768860578537
1761508064295411700,1.89641162109375,-0.2170388400554657,-0.673609733581543,0.2487187683582306
1761508064305384000,1.906384033203125,-0.3182024657726288,-0.43108341097831726,0.20974794030189514
1761508064315355000,1.91635498046875,-0.38334667682647705,-0.11087767034769058,0.171579048037529
1761508064325326800,1.926326904296875,-0.39905744791030884,0.14746598899364471,0.14277642965316772
1761508064335297800,1.9362978515625,-0.3900264501571655,0.2747299373149872,0.13739585876464844
1761508064345270000,1.94627001953125,-0.3524430990219116,0.3045288324356079,0.16132809221744537
1761508064355240700,1.95624072265625,-0.3100634813308716,0.26027047634124756,0.20480602979660034
1761508064365213000,1.966212890625,-0.262063205242157,0.18687376379966736,0.2735089063644409
1761508064375184000,1.976183837890625,-0.20468731224536896,0.11260997503995895,0.3764035999774933
1761508064385155000,1.986155029296875,-0.11856387555599213,0.07546474039554596,0.504287838935852
1761508064395126800,1.996126708984375,-0.031033635139465332,0.09709949046373367,0.6387582421302795
1761508064405098000,2.006097900390625,0.07336626946926117,0.14351385831832886,0.742510199546814
1761508064415069700,2.016069580078125,0.18596765398979187,0.2080598920583725,0.8187786936759949
1761508064425041000,2.026041015625,0.2749268412590027,0.2177141308784485,0.8471924662590027
1761508064435012900,2.036012939453125,0.2976354658603668,0.1442035287618637,0.8115967512130737
1761508064444984000,2.045984130859375,0.221149742603302,-0.09733106940984726,0.6396092772483826
1761508064454955800,2.055955810546875,0.05955469235777855,-0.4650947153568268,0.35302820801734924
1761508064464927000,2.065927001953125,-0.19106315076351166,-0.8447538614273071,-0.025553179904818535
1761508064474898700,2.075898681640625,-0.41609543561935425,-1.1453455686569214,-0.40802907943725586
1761508064484870000,2.085869873046875,-0.6067884564399719,-1.3119003772735596,-0.6974195837974548
1761508064494841900,2.095841796875,-0.7403795123100281,-1.2660377025604248,-0.7725101113319397
1761508064504813000,2.10581298828125,-0.7720305919647217,-0.995536744594574,-0.6664776802062988
1761508064514784800,2.11578466796875,-0.6160262823104858,-0.5631932020187378,-0.4684903919696808
1761508064524756000,2.125755859375,-0.2324698120355606,-0.08279277384281158,-0.23867984116077423
1761508064534728000,2.13572802734375,0.2659086585044861,0.31297820806503296,-0.09449078142642975
1761508064544699000,2.145698974609375,0.6948474645614624,0.44963112473487854,-0.10669498145580292
1761508064554669800,2.155669921875,0.9626712203025818,0.3381897211074829,-0.171956405043602
1761508064564642000,2.16564208984375,1.0595043897628784,0.0051305266097188,-0.2297091782093048
1761508064574612700,2.17561279296875,0.9869434237480164,-0.3799239695072174,-0.23111839592456818
1761508064584585000,2.1855849609375,0.8030276894569397,-0.6950898766517639,-0.09740321338176727
1761508064594556000,2.195555908203125,0.5886616110801697,-0.8241339921951294,0.16757811605930328
1761508064604527900,2.20552783203125,0.42895084619522095,-0.7837852835655212,0.45189371705055237
1761508064614498800,2.215498779296875,0.36747628450393677,-0.5303953289985657,0.6209059357643127
1761508064624471000,2.225470947265625,0.3459683358669281,-0.07012469321489334,0.6034896969795227
1761508064634441700,2.235441650390625,0.2738926410675049,0.4902317225933075,0.4461737871170044
1761508064644414000,2.2454140625,0.15751676261425018,0.9951537251472473,0.2014806866645813
1761508064654385000,2.255385009765625,0.02459247224032879,1.2888401746749878,-0.04417579248547554
1761508064664356900,2.26535693359375,-0.10889048874378204,1.3288360834121704,-0.24613448977470398
1761508064674327800,2.275327880859375,-0.2185450941324234,1.1271724700927734,-0.3638015687465668
1761508064684300000,2.285300048828125,-0.2881854176521301,0.7749315500259399,-0.4025686979293823
1761508064694271000,2.29527099609375,-0.2954674959182739,0.3485696017742157,-0.38679200410842896
1761508064704242000,2.305241943359375,-0.24566426873207092,-0.06331010907888412,-0.34291163086891174
1761508064714214000,2.3152138671875,-0.1304057091474533,-0.41363367438316345,-0.25871118903160095
1761508064724185000,2.32518505859375,0.0208439901471138,-0.6737150549888611,-0.14825870096683502
1761508064734156800,2.33515673828125,0.16359098255634308,-0.8059064149856567,-0.0323965921998024
1761508064744128000,2.3451279296875,0.2472137063741684,-0.8568620085716248,0.07942288368940353
1761508064754100000,2.355099853515625,0.26827922463417053,-0.8566086888313293,0.15773020684719086
1761508064764071000,2.36507080078125,0.24268728494644165,-0.8434585332870483,0.15916724503040314
1761508064774043000,2.37504296875,0.18466560542583466,-0.8062252998352051,0.08486714214086533
1761508064784014000,2.38501416015625,0.09780367463827133,-0.7430567145347595,-0.046258654445409775
1761508064793985800,2.39498583984375,-0.0050826044753193855,-0.6551936268806458,-0.20129363238811493
1761508064803957000,2.40495703125,-0.10044268518686295,-0.562224268913269,-0.34823328256607056
1761508064813929000,2.414928955078125,-0.15837432444095612,-0.4753665626049042,-0.44415003061294556
1761508064823900000,2.42489990234375,-0.19271151721477509,-0.37924960255622864,-0.4714897871017456
1761508064833870800,2.434870849609375,-0.1908130794763565,-0.255172997713089,-0.44316092133522034
1761508064843843000,2.444843017578125,-0.15109843015670776,-0.11595170199871063,-0.36472684144973755
1761508064853813800,2.454813720703125,-0.07975253462791443,0.02883114293217659,-0.232270285487175
1761508064863786000,2.464785888671875,0.016422998160123825,0.14609624445438385,-0.059035129845142365
1761508064873757000,2.4747568359375,0.13139331340789795,0.1966368705034256,0.1461835354566574
1761508064883729000,2.48472900390625,0.2592460811138153,0.17208892107009888,0.33086898922920227
1761508064893699800,2.494699951171875,0.3282390534877777,0.05268708989024162,0.4399949312210083
1761508064903672000,2.504672119140625,0.2863248884677887,-0.10360318422317505,0.4866311252117157
1761508064913643000,2.51464306640625,0.15868695080280304,-0.2333417534828186,0.4523037374019623
1761508064923615200,2.524615234375,-0.0036971685476601124,-0.31840577721595764,0.35849255323410034
1761508064933586200,2.534586181640625,-0.1233050599694252,-0.35871759057044983,0.26242902874946594
1761508064943558100,2.54455810546875,-0.19809727370738983,-0.34660446643829346,0.2035721093416214
1761508064953529000,2.554529052734375,-0.2523520588874817,-0.2488625943660736,0.21202455461025238
1761508064963501300,2.564501220703125,-0.3079809546470642,-0.13265398144721985,0.24583259224891663
1761508064973472000,2.574471923828125,-0.3735160231590271,-0.02122391201555729,0.2790333032608032
1761508064983443000,2.58444287109375,-0.4513559639453888,0.05750684812664986,0.2589552104473114
1761508064993415200,2.594415283203125,-0.5595188140869141,0.1115606501698494,0.16032369434833527
1761508065003386000,2.60438623046875,-0.6789794564247131,0.17192651331424713,0.007130155339837074
1761508065013358000,2.614358154296875,-0.7707751393318176,0.25994813442230225,-0.1835651844739914
1761508065023329000,2.6243291015625,-0.8501487970352173,0.3634556233882904,-0.3656201958656311
1761508065033301000,2.634301025390625,-0.896644651889801,0.43572139739990234,-0.5070076584815979
1761508065043272000,2.64427197265625,-0.8714886903762817,0.5087149143218994,-0.584779679775238
1761508065053244200,2.654244140625,-0.7354806065559387,0.597679078578949,-0.5712329149246216
1761508065063215000,2.664215087890625,-0.4171479344367981,0.7474046349525452,-0.5075730085372925
1761508065073187000,2.67418701171875,0.0639074370265007,0.9442296624183655,-0.40238574147224426
1761508065083158000,2.684157958984375,0.521799623966217,1.1521786451339722,-0.25122523307800293
1761508065093130000,2.6941298828125,0.7968893647193909,1.3378058671951294,-0.03227435424923897
1761508065103101000,2.704100830078125,0.9417940974235535,1.3917263746261597,0.24141336977481842
1761508065113073200,2.7140732421875,0.9571018815040588,1.2872875928878784,0.593719482421875
1761508065123044000,2.724044189453125,0.8905545473098755,1.098663091659546,0.9780994057655334
1761508065133015000,2.73401513671875,0.7922062873840332,0.901911735534668,1.280800461769104
1761508065142987000,2.743987060546875,0.6545834541320801,0.7759495377540588,1.4390758275985718
1761508065152958200,2.753958251953125,0.5049378871917725,0.7493353486061096,1.4284838438034058
1761508065162930000,2.763929931640625,0.38738277554512024,0.8257318139076233,1.2416452169418335
1761508065172901000,2.773901123046875,0.33448341488838196,0.9802920818328857,0.9618774056434631
1761508065182873000,2.783873046875,0.33842357993125916,1.158998966217041,0.6317011117935181
1761508065192844000,2.793843994140625,0.33569520711898804,1.2510957717895508,0.28735819458961487
1761508065202816000,2.80381591796875,0.31526824831962585,1.1873359680175781,-0.015501538291573524
1761508065212787200,2.813787109375,0.2676583230495453,0.9957476258277893,-0.23319536447525024
1761508065222759000,2.823759033203125,0.18597757816314697,0.7039607763290405,-0.33750712871551514
1761508065232730000,2.833730224609375,0.09283669292926788,0.38255852460861206,-0.35480281710624695
1761508065242702000,2.8437021484375,0.010219842195510864,0.09135973453521729,-0.32331493496894836
1761508065252673000,2.853673095703125,-0.021633397787809372,-0.11549969762563705,-0.2626756429672241
1761508065262645000,2.86364501953125,-0.0022469162940979004,-0.2774830162525177,-0.2038610577583313
1761508065272616200,2.8736162109375,0.040825072675943375,-0.39842402935028076,-0.1434665471315384
1761508065282587100,2.883587158203125,0.11315732449293137,-0.463668555021286,-0.08795348554849625
1761508065292559000,2.89355908203125,0.20336616039276123,-0.49639078974723816,-0.033385880291461945
1761508065302530000,2.903530029296875,0.26612117886543274,-0.5076508522033691,0.04834120720624924
1761508065312502300,2.913502197265625,0.2891264259815216,-0.5385177135467529,0.14899495244026184
1761508065322473000,2.923472900390625,0.29018449783325195,-0.5949200391769409,0.2603515684604645
1761508065332445200,2.933445068359375,0.28713005781173706,-0.6428182721138,0.3649897277355194
1761508065342416100,2.943416015625,0.2888123691082001,-0.6478074193000793,0.4541952311992645
1761508065352388000,2.95338818359375,0.3121008276939392,-0.5894321799278259,0.5170385241508484
1761508065362359000,2.963359130859375,0.3340713679790497,-0.5154376029968262,0.575339138507843
1761508065372331300,2.973331298828125,0.3252567648887634,-0.47609561681747437,0.6051110625267029
1761508065382302000,2.983302001953125,0.21659578382968903,-0.5441937446594238,0.5790730714797974
1761508065392274200,2.993274169921875,-0.015756189823150635,-0.6361527442932129,0.4160376787185669
1761508065402245000,3.0032451171875,-0.31573784351348877,-0.6996089816093445,0.1026989072561264
1761508065412216000,3.013216064453125,-0.5773921012878418,-0.8072183132171631,-0.3204200565814972
1761508065422188000,3.02318798828125,-0.699377179145813,-0.9091984629631042,-0.7084532380104065
1761508065432159200,3.0331591796875,-0.6948364973068237,-0.9703388214111328,-1.0103850364685059
1761508065442131000,3.043130859375,-0.5171061754226685,-0.9523795247077942,-1.1570725440979004
1761508065452102100,3.05310205078125,-0.17914670705795288,-0.7920725345611572,-1.0601990222930908
1761508065462074000,3.06307421875,0.27770501375198364,-0.5310282111167908,-0.7352121472358704
1761508065472045000,3.073045166015625,0.707954466342926,-0.3333510160446167,-0.28245270252227783
1761508065482017000,3.08301708984375,0.958623468875885,-0.2968715727329254,0.1482611447572708
1761508065491988200,3.09298828125,1.0121607780456543,-0.5431301593780518,0.40548330545425415
1761508065501960000,3.1029599609375,0.8675472736358643,-0.9722349047660828,0.4676574468612671
1761508065511931100,3.11293115234375,0.5997337102890015,-1.3688727617263794,0.32373347878456116
1761508065521903000,3.122903076171875,0.31304067373275757,-1.5840429067611694,0.0530356727540493
1761508065531874300,3.132874267578125,0.1174776703119278,-1.4564356803894043,-0.24784477055072784
1761508065541845000,3.142844970703125,0.027822621166706085,-0.9511914253234863,-0.547810435295105
1761508065551817200,3.152817138671875,0.03318930044770241,-0.19021393358707428,-0.7634415030479431
1761508065561788200,3.1627880859375,0.12397272884845734,0.5980566740036011,-0.7950761318206787
1761508065571760000,3.172760009765625,0.22177790105342865,1.1777920722961426,-0.6252681612968445
1761508065581731000,3.18273095703125,0.2553185522556305,1.4567712545394897,-0.32046908140182495
1761508065591703300,3.192703369140625,0.20902667939662933,1.4333330392837524,-0.008952370844781399
1761508065601674000,3.202674072265625,0.10918823629617691,1.2197879552841187,0.2170940786600113
1761508065611646200,3.212646240234375,-0.013652870431542397,0.9122064709663391,0.30230987071990967
1761508065621617200,3.2226171875,-0.14404842257499695,0.63874751329422,0.26793909072875977
1761508065631589000,3.232589111328125,-0.23937679827213287,0.4607240855693817,0.1485702246427536
1761508065641560000,3.24256005859375,-0.2606898248195648,0.34433144330978394,-0.016307678073644638
1761508065651532300,3.2525322265625,-0.2331373691558838,0.2600238621234894,-0.14730757474899292
1761508065661503000,3.2625029296875,-0.17957186698913574,0.16628646850585938,-0.20348908007144928
1761508065671475200,3.27247509765625,-0.09029117226600647,0.02593008615076542,-0.18934831023216248
1761508065681446100,3.282446044921875,0.01795566827058792,-0.13012875616550446,-0.11228709667921066
1761508065691417300,3.292417236328125,0.09205316752195358,-0.28497838973999023,-0.02598746493458748
1761508065701389000,3.30238916015625,0.1298394352197647,-0.44629165530204773,0.05533748120069504
1761508065711360300,3.3123603515625,0.11248604208230972,-0.6037153005599976,0.09936633706092834
1761508065721332000,3.32233203125,0.04181986302137375,-0.7548997402191162,0.0736636370420456
1761508065731303200,3.33230322265625,-0.06881176680326462,-0.8571298122406006,-0.05017434060573578
1761508065741275100,3.342275146484375,-0.19709783792495728,-0.9011220335960388,-0.25636720657348633
1761508065751246300,3.352246337890625,-0.34590038657188416,-0.854773223400116,-0.4984441101551056
1761508065761218000,3.362218017578125,-0.4449657201766968,-0.6965427994728088,-0.7074617743492126
1761508065771189200,3.372189208984375,-0.42818349599838257,-0.42219239473342896,-0.8086813688278198
1761508065781161000,3.382160888671875,-0.2705131769180298,-0.06949398666620255,-0.7313469052314758
1761508065791132200,3.392132080078125,-0.03969284147024155,0.24701742827892303,-0.4738963842391968
1761508065801104100,3.402104248046875,0.16718870401382446,0.4056225121021271,-0.08046787232160568
1761508065811075300,3.412075439453125,0.31585755944252014,0.4214080274105072,0.3489167392253876
1761508065821047000,3.422047119140625,0.39950400590896606,0.27191784977912903,0.6601417660713196
1761508065831018200,3.432018310546875,0.3982655107975006,0.051461514085531235,0.8324176073074341
1761508065840989200,3.4419892578125,0.30212005972862244,-0.140334814786911,0.8564406633377075
1761508065850961200,3.451961181640625,0.1425965130329132,-0.2925209403038025,0.7381595969200134
1761508065860932000,3.46193212890625,-0.06494016945362091,-0.39160969853401184,0.5263567566871643
1761508065870904300,3.471904296875,-0.27700090408325195,-0.45303159952163696,0.2637968957424164
1761508065880875000,3.481875,-0.43287307024002075,-0.5142067670822144,0.009745188057422638
1761508065890847200,3.49184716796875,-0.558799147605896,-0.6182328462600708,-0.19680653512477875
1761508065900818200,3.501818115234375,-0.6358121633529663,-0.7211446166038513,-0.3684137165546417
1761508065910790100,3.5117900390625,-0.6067810654640198,-0.7670232057571411,-0.5117829442024231
1761508065920760000,3.521760009765625,-0.5122460722923279,-0.6681627035140991,-0.5873826146125793
1761508065930732300,3.531732177734375,-0.43856650590896606,-0.497038334608078,-0.6213661432266235
1761508065940703200,3.541703125,-0.4113524556159973,-0.3108503520488739,-0.6823746562004089
1761508065950675200,3.55167529296875,-0.42503267526626587,-0.12993240356445312,-0.7769184112548828
1761508065960646100,3.561646240234375,-0.4284955859184265,0.05337589979171753,-0.8775619268417358
1761508065970617000,3.5716171875,-0.3903968632221222,0.21845021843910217,-0.9038947820663452
1761508065980589000,3.581589111328125,-0.33966150879859924,0.29028579592704773,-0.8697029948234558
1761508065990560000,3.59156005859375,-0.2800828814506531,0.24267414212226868,-0.796602725982666
1761508066000532200,3.6015322265625,-0.14407683908939362,0.15434055030345917,-0.704038679599762
1761508066010503200,3.611503173828125,0.055705390870571136,0.10113780945539474,-0.5723156929016113
1761508066020475100,3.62147509765625,0.2600175142288208,0.20831087231636047,-0.4012640416622162
1761508066030446000,3.631446044921875,0.4001166820526123,0.40188542008399963,-0.2501860558986664
1761508066040418000,3.64141796875,0.4674765467643738,0.5602486729621887,-0.1863114833831787
1761508066050389000,3.651388916015625,0.42956382036209106,0.6234078407287598,-0.24007895588874817
1761508066060361200,3.661361328125,0.325155109167099,0.6067633628845215,-0.3600604832172394
1761508066070332200,3.671332275390625,0.22650232911109924,0.6211382746696472,-0.44918495416641235
1761508066080304000,3.68130419921875,0.19898627698421478,0.7226566076278687,-0.47854870557785034
1761508066090275000,3.691275146484375,0.24426031112670898,0.8800892233848572,-0.4779239594936371
1761508066100246300,3.701246337890625,0.35615965723991394,1.0139732360839844,-0.41833600401878357
1761508066110218000,3.711218017578125,0.4766896665096283,1.0414739847183228,-0.28681185841560364
1761508066120189200,3.721189208984375,0.4629107415676117,0.9528859257698059,-0.06310820579528809
1761508066130161200,3.7311611328125,0.3108792304992676,0.7100175619125366,0.1653553545475006
1761508066140132000,3.741132080078125,0.11101964861154556,0.39569613337516785,0.31681013107299805
1761508066150104000,3.75110400390625,-0.08607035875320435,0.11726273596286774,0.33911755681037903
1761508066160075300,3.7610751953125,-0.22694838047027588,-0.059175945818424225,0.24505072832107544
1761508066170047000,3.771046875,-0.2741463780403137,-0.10444998741149902,0.09287801384925842
1761508066180018200,3.78101806640625,-0.28226450085639954,0.04137645661830902,-0.006913566961884499
1761508066189990400,3.790990478515625,-0.2297709584236145,0.25661328434944153,-0.044819023460149765
1761508066199961000,3.800961181640625,-0.12793567776679993,0.37207141518592834,-0.026809662580490112
1761508066209933300,3.810933349609375,-0.028040561825037003,0.35543444752693176,0.05245187133550644
1761508066219904300,3.820904296875,0.025328122079372406,0.24159549176692963,0.14650993049144745
1761508066229876200,3.830876220703125,0.06143786385655403,0.09100304543972015,0.20638273656368256
1761508066239847200,3.84084716796875,0.08023019134998322,-0.03381558880209923,0.20495927333831787
1761508066249818000,3.850818115234375,0.06880323588848114,-0.09374959766864777,0.14237038791179657
1761508066259790000,3.8607900390625,0.021828804165124893,-0.08806455135345459,0.07085226476192474
1761508066269761000,3.870760986328125,-0.049093469977378845,-0.043283142149448395,0.022782888263463974
1761508066279733200,3.880733154296875,-0.12572380900382996,0.002819637767970562,0.021515754982829094
1761508066289704200,3.8907041015625,-0.1668604612350464,0.06477785110473633,0.07803039252758026
1761508066299676200,3.90067626953125,-0.17659378051757812,0.18042242527008057,0.16635040938854218
1761508066309647000,3.910647216796875,-0.1996946781873703,0.3171283006668091,0.2144331932067871
1761508066319619000,3.920619140625,-0.31655603647232056,0.35256004333496094,0.14998416602611542
1761508066329590000,3.930590087890625,-0.5594735741615295,0.26896020770072937,-0.026013223454356194
1761508066339562200,3.940562255859375,-0.7996361255645752,0.0961356982588768,-0.2518159747123718
1761508066349533200,3.950533203125,-0.9618670344352722,-0.031750891357660294,-0.4004623293876648
1761508066359505200,3.960505126953125,-0.9427876472473145,0.008058571256697178,-0.4204408526420593
1761508066369476000,3.97047607421875,-0.7508271336555481,0.22154317796230316,-0.30713343620300293
1761508066379448000,3.980447998046875,-0.3546816408634186,0.5022997260093689,-0.02380824275314808
1761508066389419000,3.9904189453125,0.1613132506608963,0.6815266013145447,0.34555932879447937
1761508066399390200,4.00039013671875,0.4954099953174591,0.6503763794898987,0.6538391709327698
1761508066409362200,4.010362060546875,0.5996754765510559,0.33788949251174927,0.7730619311332703
1761508066419333000,4.0203330078125,0.5748806595802307,-0.1716698855161667,0.7167832255363464
1761508066429305000,4.03030517578125,0.48187825083732605,-0.6616100072860718,0.5221506357192993
1761508066439276300,4.0402763671875,0.342011421918869,-0.9399252533912659,0.27061930298805237
1761508066449248000,4.050248046875,0.19867540895938873,-0.9771309494972229,0.10499071329832077
1761508066459219200,4.06021923828125,0.10653349757194519,-0.807593047618866,-0.024953437969088554
1761508066469191200,4.070191162109375,0.07995105534791946,-0.4974339008331299,-0.1804589182138443
1761508066479162000,4.080162109375,0.10501512885093689,-0.07440273463726044,-0.3242296576499939
1761508066489134000,4.090134033203125,0.14483261108398438,0.3437352180480957,-0.35863572359085083
1761508066499105300,4.100105224609375,0.16703484952449799,0.6618402004241943,-0.2567639648914337
1761508066509076200,4.110076171875,0.14767324924468994,0.817205548286438,-0.09416640549898148
1761508066519048200,4.120048095703125,0.08559522032737732,0.8106443285942078,0.04877956211566925
1761508066529019100,4.13001904296875,-0.0044509414583444595,0.6897132396697998,0.11812401562929153
1761508066538991000,4.1399912109375,-0.102203868329525,0.4971485733985901,0.08993072062730789
1761508066548962000,4.149962158203125,-0.17765608429908752,0.31977152824401855,0.017513439059257507
1761508066558934300,4.159934326171875,-0.2158476859331131,0.18324217200279236,-0.06111505627632141
1761508066568905200,4.1699052734375,-0.20609386265277863,0.07215692847967148,-0.13381697237491608
1761508066578877200,4.179877197265625,-0.1654263436794281,-0.012910690158605576,-0.17970451712608337
1761508066588848000,4.18984814453125,-0.11049646884202957,-0.08723943680524826,-0.1737493872642517
1761508066598820000,4.199820068359375,-0.03551117703318596,-0.1558334082365036,-0.12025712430477142
1761508066608791000,4.209791015625,0.04742388054728508,-0.22681818902492523,-0.022955115884542465
1761508066618763300,4.21976318359375,0.11646313965320587,-0.27452149987220764,0.09985016286373138
1761508066628734200,4.229734130859375,0.14701105654239655,-0.3002829849720001,0.18452277779579163
1761508066638706200,4.2397060546875,0.14760573208332062,-0.28196948766708374,0.22969718277454376
1761508066648677000,4.249677001953125,0.1021876186132431,-0.20165474712848663,0.2427048236131668
1761508066658648300,4.2596484375,0.0357460156083107,-0.07426777482032776,0.24442043900489807
1761508066668620000,4.2696201171875,-0.03114304319024086,0.04265157878398895,0.25721609592437744
1761508066678591200,4.27959130859375,-0.06105540320277214,0.1140139102935791,0.2849004566669464
1761508066688563200,4.289563232421875,-0.06363048404455185,0.19168414175510406,0.2983161509037018
1761508066698534100,4.2995341796875,-0.07736466825008392,0.2886218726634979,0.2322434037923813
1761508066708506000,4.309506103515625,-0.12415389716625214,0.32860279083251953,0.07000080496072769
1761508066718477300,4.319477294921875,-0.15562181174755096,0.25509366393089294,-0.12909498810768127
1761508066728449000,4.329448974609375,-0.1759268343448639,0.14716681838035583,-0.2594524323940277
1761508066738420200,4.339420166015625,-0.19165466725826263,0.11139923334121704,-0.26965364813804626
1761508066748392200,4.34939208984375,-0.1534029245376587,0.16383013129234314,-0.21202687919139862
1761508066758363100,4.359363037109375,-0.0030629467219114304,0.26897040009498596,-0.11532830446958542
1761508066768335000,4.369335205078125,0.17695081233978271,0.3607960641384125,0.03042345680296421
1761508066778306300,4.379306396484375,0.35736560821533203,0.39886248111724854,0.18586790561676025
1761508066788277200,4.38927734375,0.48317307233810425,0.3314451575279236,0.32206234335899353
1761508066798249200,4.399249267578125,0.5033526420593262,0.1580480933189392,0.42333704233169556
1761508066808220200,4.40922021484375,0.4212893545627594,-0.09449044615030289,0.4478633999824524
1761508066818192100,4.419192138671875,0.28552380204200745,-0.3581670820713043,0.40057095885276794
1761508066828163000,4.4291630859375,0.13740654289722443,-0.573472797870636,0.2804904580116272
1761508066838135300,4.43913525390625,0.019780566915869713,-0.7055312395095825,0.09080439805984497
1761508066848106200,4.449106201171875,-0.050810884684324265,-0.7629435658454895,-0.11939278244972229
1761508066858078200,4.459078125,-0.0857773870229721,-0.7876158952713013,-0.319691002368927
1761508066868049200,4.469049072265625,-0.11542397737503052,-0.8097404837608337,-0.4472411870956421
1761508066878021000,4.479021240234375,-0.1068723052740097,-0.8138662576675415,-0.47419053316116333
1761508066887992000,4.488991943359375,-0.09168641269207001,-0.7660139203071594,-0.4004513621330261
1761508066897964300,4.49896435546875,-0.10779614001512527,-0.6354596614837646,-0.28776928782463074
1761508066907935200,4.508935302734375,-0.16636967658996582,-0.4898289740085602,-0.22912080585956573
1761508066917908000,4.518907958984375,-0.27656090259552,-0.39120200276374817,-0.2893092930316925
1761508066927879000,4.52887890625,-0.43832728266716003,-0.3845979571342468,-0.4529932737350464
1761508066937849900,4.538849853515625,-0.6234571933746338,-0.3868637681007385,-0.6226786971092224
1761508066947821800,4.54882177734375,-0.7446611523628235,-0.22966268658638,-0.6745613217353821
1761508066957792800,4.558792724609375,-0.7093172669410706,0.10999447852373123,-0.5941932201385498
1761508066967764700,4.5687646484375,-0.4886397421360016,0.4657804071903229,-0.48625823855400085
1761508066977735700,4.578735595703125,-0.15224893391132355,0.7632270455360413,-0.4409850537776947
1761508066987708000,4.5887080078125,0.20274288952350616,0.9009835720062256,-0.48359233140945435
1761508066997678800,4.598678955078125,0.48566484451293945,0.8106294274330139,-0.5407152771949768
1761508067007650800,4.60865087890625,0.6702889800071716,0.4710015654563904,-0.5255840420722961
1761508067017621800,4.618621826171875,0.7039358615875244,0.057892560958862305,-0.35222238302230835
1761508067027593700,4.62859375,0.6021624207496643,-0.1872425526380539,-0.0913449376821518
1761508067037564700,4.638564697265625,0.4229433834552765,-0.19695642590522766,0.13504931330680847
1761508067047537000,4.648536865234375,0.2568778693675995,0.05131731554865837,0.2704203426837921
1761508067057507800,4.6585078125,0.18668732047080994,0.4664500653743744,0.2728970944881439
1761508067067478800,4.668478759765625,0.21474874019622803,0.9384941458702087,0.24576012790203094
1761508067077451000,4.678450927734375,0.3053007423877716,1.3207640647888184,0.2879858613014221
1761508067087422000,4.688421875,0.399623841047287,1.4625524282455444,0.40338334441185
1761508067097394000,4.698393798828125,0.3575163185596466,1.2861976623535156,0.4844837784767151
1761508067107364900,4.70836474609375,0.15507017076015472,0.8471887707710266,0.4758915901184082
1761508067117337000,4.718337158203125,-0.11613256484270096,0.3101605176925659,0.3395521342754364
1761508067127307800,4.728307861328125,-0.2998831570148468,-0.08558239787817001,0.08895433694124222
1761508067137280000,4.738280029296875,-0.36519691348075867,-0.26652979850769043,-0.19350852072238922
1761508067147251000,4.7482509765625,-0.34108224511146545,-0.20344725251197815,-0.3654579222202301
1761508067157223000,4.758222900390625,-0.25253745913505554,0.03550460934638977,-0.3441307842731476
1761508067167193900,4.76819384765625,-0.10518310964107513,0.2881285548210144,-0.16496874392032623
1761508067177166000,4.778166015625,0.052635010331869125,0.413615345954895,0.09829644113779068
1761508067187136800,4.78813671875,0.1636335253715515,0.3552311658859253,0.33924147486686707
1761508067197109000,4.79810888671875,0.20306828618049622,0.23955437541007996,0.5196685194969177
1761508067207080000,4.808079833984375,0.22444505989551544,0.11839933693408966,0.5998234748840332
1761508067217051000,4.81805078125,0.22380855679512024,0.03769969567656517,0.6257424354553223
1761508067227022800,4.82802294921875,0.1760377287864685,-0.00554246362298727,0.6022810935974121
1761508067236993800,4.837993896484375,0.1155988872051239,-0.0025895508006215096,0.5344628691673279
1761508067246965800,4.8479658203125,0.03966120257973671,0.03883737698197365,0.44295650720596313
1761508067256936700,4.857936767578125,-0.025011533871293068,0.05370074510574341,0.33929720520973206
1761508067266909000,4.867908935546875,-0.07233582437038422,0.03568068519234657,0.24177245795726776
1761508067276880000,4.8778798828125,-0.10314752906560898,-0.011729970574378967,0.15492305159568787
1761508067286851800,4.887851806640625,-0.13488085567951202,-0.09809966385364532,0.06789667904376984
1761508067296822800,4.89782275390625,-0.19589202105998993,-0.25441259145736694,-0.015924179926514626
1761508067306795000,4.907794921875,-0.33291342854499817,-0.5005903840065002,-0.11531863361597061
1761508067316765700,4.917765625,-0.5157306790351868,-0.8006860017776489,-0.19799354672431946
1761508067326738000,4.927738037109375,-0.6524496674537659,-0.9777332544326782,-0.16140848398208618
1761508067336708900,4.937708984375,-0.6407266855239868,-0.7933378219604492,0.04769492894411087
1761508067346679800,4.9476796875,-0.5475285053253174,-0.3045344948768616,0.2680024802684784
1761508067356651800,4.95765185546875,-0.3577074408531189,0.25353994965553284,0.37274035811424255
1761508067366623000,4.967623046875,-0.03258047625422478,0.7182166576385498,0.41724279522895813
1761508067376594700,4.9775947265625,0.29029718041419983,1.0437694787979126,0.48601973056793213
1761508067386566000,4.98756591796875,0.46439021825790405,1.0829488039016724,0.5963945984840393
1761508067396537900,4.997537841796875,0.5207490921020508,0.7900612950325012,0.6861055493354797
1761508067406508800,5.0075087890625,0.4705416262149811,0.28490760922431946,0.6998838186264038
1761508067416480800,5.017480712890625,0.3228307366371155,-0.15285959839820862,0.6034570932388306
1761508067426452000,5.027451904296875,0.15437784790992737,-0.35956263542175293,0.37815532088279724
1761508067436423700,5.037423583984375,0.08909764885902405,-0.33512893319129944,0.13557730615139008
1761508067446395000,5.047394775390625,0.13093392550945282,-0.17147111892700195,-0.05649447441101074
1761508067456366800,5.057366943359375,0.23388081789016724,0.01183878444135189,-0.11513834446668625
1761508067466337800,5.067337890625,0.32192015647888184,0.12579165399074554,-0.0479462593793869
1761508067476309800,5.077309814453125,0.37028077244758606,0.1936335563659668,0.07057639211416245
1761508067486281000,5.087281005859375,0.3899969756603241,0.2376500368118286,0.13642378151416779
1761508067496252000,5.097251953125,0.348268985748291,0.28019455075263977,0.15448826551437378
1761508067506223900,5.107223876953125,0.25170519948005676,0.23291029036045074,0.09310867637395859
1761508067516194800,5.11719482421875,0.1381314992904663,0.11887319386005402,-0.004392846021801233
1761508067526167000,5.1271669921875,0.035974640399217606,-0.029072226956486702,-0.10380963981151581
1761508067536137700,5.1371376953125,-0.010597653687000275,-0.1401207149028778,-0.17532244324684143
1761508067546110000,5.14710986328125,0.006502808071672916,-0.2381574660539627,-0.19729799032211304
1761508067556081000,5.157080810546875,0.06147684529423714,-0.36552393436431885,-0.18613748252391815
1761508067566052900,5.167052978515625,0.11284937709569931,-0.48909804224967957,-0.15053115785121918
1761508067576023800,5.17702392578125,0.14746859669685364,-0.6150591373443604,-0.10136546194553375
1761508067585996000,5.18699609375,0.15890859067440033,-0.7210352420806885,-0.04802048206329346
1761508067595966700,5.196966796875,0.15441876649856567,-0.771663248538971,-0.006704733707010746
1761508067605939000,5.20693896484375,0.14281481504440308,-0.7590672373771667,0.02276732586324215
1761508067615910000,5.216909912109375,0.12229355424642563,-0.7053584456443787,0.04497116431593895
1761508067625880800,5.226880859375,0.10402052104473114,-0.6040387153625488,0.04377559944987297
1761508067635852800,5.236852783203125,0.07096270471811295,-0.4497886896133423,0.03409340977668762
1761508067645824000,5.246823974609375,0.017834579572081566,-0.2505393624305725,0.008683462627232075
1761508067655795700,5.256795654296875,-0.03591546788811684,-0.04031315818428993,-0.027157092466950417
1761508067665767000,5.266766845703125,-0.09103807806968689,0.12556104362010956,-0.051326684653759
1761508067675739000,5.27673876953125,-0.11321768164634705,0.221613809466362,-0.05672970786690712
1761508067685710000,5.2867099609375,-0.09525910764932632,0.2611965835094452,-0.04348454996943474
1761508067695681800,5.296681884765625,-0.0462484173476696,0.2506195902824402,0.006353314034640789
1761508067705653000,5.306653076171875,0.013131840154528618,0.17478230595588684,0.09812379628419876
1761508067715624700,5.316624755859375,0.06178592890501022,0.07063885033130646,0.21322321891784668
1761508067725596000,5.326595947265625,0.08971365541219711,-0.03759245201945305,0.323153555393219
1761508067735568000,5.33656787109375,0.07978644967079163,-0.09489782154560089,0.39705413579940796
1761508067745539000,5.3465390625,0.04283735528588295,-0.1287829875946045,0.4076458811759949
1761508067755509800,5.356509765625,-0.00397808663547039,-0.16909259557724,0.33764711022377014
1761508067765482000,5.36648193359375,-0.039610110223293304,-0.2441643327474594,0.21729761362075806
1761508067775453000,5.376452880859375,-0.04029001668095589,-0.31328535079956055,0.08221091330051422
1761508067785425000,5.3864248046875,-0.028798101469874382,-0.3318842053413391,-0.015130824409425259
1761508067795395800,5.396395751953125,-0.009539715945720673,-0.2974441945552826,-0.07033442705869675
1761508067805368000,5.4063681640625,0.01931077055633068,-0.26640433073043823,-0.10098470747470856
1761508067815338800,5.4163388671875,0.011857647448778152,-0.2956991195678711,-0.10112745314836502
1761508067825311000,5.42631103515625,-0.040986206382513046,-0.3912156820297241,-0.07926378399133682
1761508067835282000,5.436281982421875,-0.10473668575286865,-0.5035486221313477,-0.095771923661232
1761508067845254000,5.44625390625,-0.15725620090961456,-0.582638144493103,-0.1430395245552063
1761508067855224800,5.456224853515625,-0.22760413587093353,-0.5776231288909912,-0.23408128321170807
1761508067865197000,5.466197021484375,-0.28608494997024536,-0.5297507047653198,-0.3605620861053467
1761508067875167700,5.476167724609375,-0.2931239604949951,-0.4625530242919922,-0.4783070981502533
1761508067885140000,5.486139892578125,-0.24809010326862335,-0.3536728620529175,-0.5057931542396545
1761508067895111000,5.49611083984375,-0.20918050408363342,-0.22219154238700867,-0.4654012620449066
1761508067905082000,5.50608203125,-0.2117341160774231,-0.030073756352066994,-0.4148677587509155
1761508067915053600,5.516053466796875,-0.22225840389728546,0.14676466584205627,-0.4294205904006958
1761508067925024500,5.5260244140625,-0.1605035364627838,0.1991313248872757,-0.4946739077568054
1761508067934996500,5.53599658203125,-0.01251167617738247,0.1477205902338028,-0.5453873872756958
1761508067944967400,5.545967529296875,0.16565999388694763,0.13583044707775116,-0.4713742136955261
1761508067954939600,5.555939697265625,0.32170018553733826,0.21085888147354126,-0.24511019885540009
1761508067964910600,5.56591064453125,0.4310625493526459,0.29260632395744324,0.09742692112922668
1761508067974882600,5.575882568359375,0.5303600430488586,0.36910563707351685,0.45206302404403687
1761508067984853500,5.585853515625,0.6091356873512268,0.3110140562057495,0.6772135496139526
1761508067994825700,5.59582568359375,0.6635355353355408,0.08398117125034332,0.7256947755813599
1761508068004796400,5.60579638671875,0.6672677993774414,-0.1735585331916809,0.6743983626365662
1761508068014768600,5.6157685546875,0.6129462718963623,-0.38856378197669983,0.5929154753684998
1761508068024739600,5.625739501953125,0.5277217626571655,-0.5742764472961426,0.5547006130218506
1761508068034710500,5.63571044921875,0.4135698676109314,-0.7039694786071777,0.5863125920295715
1761508068044682500,5.6456826171875,0.2600202262401581,-0.7483999133110046,0.6429509520530701
1761508068054653400,5.6556533203125,0.1258419007062912,-0.6696323752403259,0.645270049571991
1761508068064625400,5.66562548828125,0.03894693776965141,-0.5318660736083984,0.5277305245399475
1761508068074596400,5.675596435546875,-0.025626730173826218,-0.3604716956615448,0.31003305315971375
1761508068084568600,5.685568603515625,-0.09787318110466003,-0.23081767559051514,0.09026144444942474
1761508068094539500,5.69553955078125,-0.15983641147613525,-0.16261732578277588,-0.06729542464017868
1761508068104511500,5.705511474609375,-0.19302701950073242,-0.14329831302165985,-0.11920654773712158
1761508068114482400,5.715482421875,-0.17295503616333008,-0.16595622897148132,-0.07376369833946228
1761508068124454400,5.725454345703125,-0.08205857127904892,-0.20859026908874512,0.03790062665939331
1761508068134425300,5.73542529296875,0.043894294649362564,-0.25548478960990906,0.18034912645816803
1761508068144397600,5.7453974609375,0.1911771148443222,-0.31985118985176086,0.3155495524406433
1761508068154368500,5.755368408203125,0.3101698160171509,-0.3879964351654053,0.4351859390735626
1761508068164339500,5.76533935546875,0.38049429655075073,-0.4484971761703491,0.5334616303443909
1761508068174311400,5.7753115234375,0.41283759474754333,-0.48391616344451904,0.5918940901756287
1761508068184282600,5.78528271484375,0.4102188050746918,-0.4899834394454956,0.6084566712379456
1761508068194254300,5.79525439453125,0.38197916746139526,-0.46684324741363525,0.5910923480987549
1761508068204225500,5.8052255859375,0.34741127490997314,-0.4316994547843933,0.5338351726531982
1761508068214197500,5.815197509765625,0.2943509817123413,-0.39738729596138,0.4586557447910309
1761508068224168400,5.82516845703125,0.2563285529613495,-0.3544290363788605,0.4224715232849121
1761508068234140400,5.835140380859375,0.21766798198223114,-0.34878313541412354,0.40945160388946533
1761508068244111600,5.845111572265625,0.11804894357919693,-0.4101969599723816,0.37315547466278076
1761508068254083300,5.855083251953125,-0.06559838354587555,-0.5214483737945557,0.27224668860435486
1761508068264054500,5.865054443359375,-0.3409089148044586,-0.6601263284683228,0.038799479603767395
1761508068274026500,5.875026611328125,-0.6886990666389465,-0.8495982885360718,-0.3333445191383362
1761508068283997400,5.88499755859375,-0.9959348440170288,-0.962205171585083,-0.7079001665115356
1761508068293969400,5.894969482421875,-1.1365971565246582,-0.8667716383934021,-0.9837064146995544
1761508068303940600,5.904940673828125,-0.9406760931015015,-0.530368983745575,-1.0043113231658936
1761508068313911600,5.91491162109375,-0.4436999261379242,0.023175688460469246,-0.6945303678512573
1761508068323883500,5.924883544921875,0.1140877828001976,0.4923146963119507,-0.17440713942050934
1761508068333854500,5.9348544921875,0.4657864272594452,0.6715587377548218,0.35662129521369934
1761508068343826400,5.944826416015625,0.6028294563293457,0.5126674771308899,0.7224100232124329
1761508068353797400,5.95479736328125,0.5967867970466614,0.08969515562057495,0.9168506264686584
1761508068363769600,5.96476953125,0.4880678355693817,-0.3571944534778595,0.9773375391960144
1761508068373740500,5.974740478515625,0.3307562470436096,-0.6065281629562378,0.9475769400596619
1761508068383712500,5.98471240234375,0.20867322385311127,-0.6127493381500244,0.8343158960342407
1761508068393683500,5.994683349609375,0.20307791233062744,-0.4300423860549927,0.6592676043510437
1761508068403655400,6.004655517578125,0.2782815098762512,-0.10894408077001572,0.44867026805877686
1761508068413626400,6.01462646484375,0.35113680362701416,0.18864472210407257,0.2203662246465683
1761508068423598600,6.0245986328125,0.39570119976997375,0.39713695645332336,0.029334452003240585
1761508068433569500,6.034569580078125,0.3764100670814514,0.4772288501262665,-0.11323308199644089
1761508068443540500,6.04454052734375,0.28393206000328064,0.47648531198501587,-0.1732114553451538
1761508068453512400,6.054512451171875,0.15397940576076508,0.4101640582084656,-0.19913306832313538
1761508068463483600,6.064483642578125,0.022825870662927628,0.3269742429256439,-0.21395106613636017
1761508068473455400,6.074455322265625,-0.07435713708400726,0.2393522411584854,-0.24807201325893402
1761508068483426600,6.084426513671875,-0.10727487504482269,0.16766341030597687,-0.3076695501804352
1761508068493398500,6.0943984375,-0.0842992514371872,0.09891550242900848,-0.3617309331893921
1761508068503369500,6.104369384765625,-0.042006656527519226,0.0026558157987892628,-0.38150754570961
1761508068513341400,6.114341552734375,0.012471765279769897,-0.12490986287593842,-0.3551616966724396
1761508068523312600,6.124312744140625,0.08355619758367538,-0.23822374641895294,-0.28316429257392883
1761508068533284400,6.134284423828125,0.14850591123104095,-0.31405726075172424,-0.18768064677715302
1761508068543255600,6.144255615234375,0.18684466183185577,-0.34609973430633545,-0.09621943533420563
1761508068553227500,6.1542275390625,0.1920090615749359,-0.34471064805984497,-0.02523500844836235
1761508068563198500,6.164198486328125,0.16661697626113892,-0.30658915638923645,0.013164235278964043
1761508068573169400,6.17416943359375,0.11189514398574829,-0.25053972005844116,0.046520594507455826
1761508068583141600,6.1841416015625,0.03771879896521568,-0.20720261335372925,0.03764602541923523
1761508068593112600,6.194112548828125,-0.03210901841521263,-0.16375340521335602,-0.008616011589765549
1761508068603084500,6.20408447265625,-0.08983108401298523,-0.11113391071557999,-0.08545733988285065
1761508068613055500,6.214055419921875,-0.1373775601387024,-0.060085639357566833,-0.1529705971479416
1761508068623027500,6.22402734375,-0.17910149693489075,-0.02240760810673237,-0.1871652454137802
1761508068632998400,6.233998291015625,-0.2035953849554062,0.003126514842733741,-0.18118537962436676
1761508068642970600,6.243970703125,-0.18267779052257538,0.037737887352705,-0.1433870643377304
1761508068652941600,6.253941650390625,-0.11924075335264206,0.07218454778194427,-0.08517596125602722
1761508068662913500,6.26391357421875,-0.037389542907476425,0.09402268379926682,-0.007150053977966309
1761508068672884500,6.273884521484375,0.03424150124192238,0.08994964510202408,0.07479008287191391
1761508068682856400,6.2838564453125,0.07608069479465485,0.05288073793053627,0.17209897935390472
1761508068692827400,6.293827392578125,0.09406103193759918,0.018739013001322746,0.26493170857429504
1761508068702798600,6.303798583984375,0.08632537722587585,0.0030658578034490347,0.3151773512363434
1761508068712770600,6.3137705078125,0.03282514214515686,0.02985033392906189,0.31301912665367126
1761508068722741500,6.323741455078125,-0.04073091223835945,0.0797189325094223,0.256055623292923
1761508068732713500,6.33371337890625,-0.12506656348705292,0.14398713409900665,0.17622284591197968
1761508068742684700,6.3436845703125,-0.18627482652664185,0.2395210564136505,0.10093418508768082
1761508068752656400,6.353656494140625,-0.23147372901439667,0.32988452911376953,0.033713340759277344
1761508068762627600,6.363627685546875,-0.2618410587310791,0.33006930351257324,-0.03267424926161766
1761508068772599600,6.373599609375,-0.2988419532775879,0.23765812814235687,-0.08654201030731201
1761508068782570500,6.383570556640625,-0.34312617778778076,0.0622573159635067,-0.14832551777362823
1761508068792542500,6.39354248046875,-0.43964076042175293,-0.12477196007966995,-0.22742140293121338
1761508068802513700,6.403513671875,-0.5548614263534546,-0.21480946242809296,-0.32050850987434387
1761508068812485400,6.4134853515625,-0.6683251261711121,-0.17664529383182526,-0.4539802670478821
1761508068822456600,6.42345654296875,-0.7764995098114014,-0.03635820746421814,-0.6695612668991089
1761508068832427500,6.433427490234375,-0.8511111736297607,0.18323300778865814,-0.9908375144004822
1761508068842399500,6.4433994140625,-0.8698894381523132,0.33273252844810486,-1.3723880052566528
1761508068852370400,6.453370361328125,-0.8605542778968811,0.5334392189979553,-1.5853490829467773
1761508068862342700,6.4633427734375,-0.9120066165924072,0.7896557450294495,-1.541893482208252
1761508068872313600,6.473313720703125,-0.9924425482749939,0.9579712748527527,-1.3503762483596802
1761508068882285600,6.48328564453125,-0.9307082891464233,0.8742373585700989,-1.179323434829712
1761508068892256500,6.493256591796875,-0.6734394431114197,0.504673182964325,-1.1316595077514648
1761508068902228500,6.503228515625,-0.22543039917945862,-0.06505582481622696,-1.2238761186599731
1761508068912199400,6.513199462890625,0.19863006472587585,-0.5454498529434204,-1.3394373655319214
1761508068922171400,6.52317138671875,0.4348708987236023,-0.8357040882110596,-1.3331828117370605
1761508068932142600,6.533142578125,0.5047802329063416,-0.9549777507781982,-1.1611361503601074
1761508068942114300,6.5431142578125,0.4857742190361023,-0.956606924533844,-0.724348783493042
1761508068952085500,6.55308544921875,0.4375497102737427,-0.8350101709365845,-0.11798351258039474
1761508068962057500,6.563057373046875,0.40637752413749695,-0.6220805644989014,0.5300853848457336
1761508068972028400,6.5730283203125,0.40945640206336975,-0.31116101145744324,0.9870297908782959
1761508068981999400,6.582999267578125,0.4073494076728821,0.04243314266204834,1.1531226634979248
1761508068991971600,6.5929716796875,0.37867993116378784,0.36827248334884644,1.0569276809692383
1761508069001942300,6.6029423828125,0.292950838804245,0.5895339250564575,0.799561619758606
1761508069011914500,6.61291455078125,0.12161289155483246,0.689170777797699,0.48532649874687195
1761508069021885400,6.622885498046875,-0.10074688494205475,0.7233803272247314,0.20230036973953247
1761508069031857400,6.632857421875,-0.3174227476119995,0.7410855889320374,0.009731189347803593
1761508069041828400,6.642828369140625,-0.40356752276420593,0.7567446231842041,-0.07116875797510147
1761508069051800600,6.652800537109375,-0.3719094693660736,0.7549914121627808,-0.06208551302552223
1761508069061771500,6.662771484375,-0.26075854897499084,0.7189251184463501,0.0387784019112587
1761508069071743500,6.672743408203125,-0.091579370200634,0.6002925038337708,0.2012522667646408
1761508069081714400,6.68271435546875,0.08186158537864685,0.39028456807136536,0.3388696610927582
1761508069091686400,6.692686279296875,0.2297258824110031,0.11383701860904694,0.44685232639312744
1761508069101657300,6.7026572265625,0.3035252094268799,-0.16679005324840546,0.511886715888977
1761508069111628500,6.712628662109375,0.31795793771743774,-0.3645835816860199,0.5517875552177429
1761508069121600500,6.7226005859375,0.3135634660720825,-0.49540072679519653,0.5576097369194031
1761508069131571500,6.732571533203125,0.3166881501674652,-0.5201801657676697,0.5350539684295654
1761508069141543400,6.74254345703125,0.3127472996711731,-0.45068585872650146,0.48587799072265625
1761508069151514600,6.7525146484375,0.2755146920681,-0.3050557076931,0.409352570772171
1761508069161486300,6.762486328125,0.21776962280273438,-0.1295081228017807,0.3376595675945282
1761508069171457500,6.77245751953125,0.16970515251159668,0.026504380628466606,0.2828730046749115
1761508069181429500,6.782429443359375,0.13315178453922272,0.11413653939962387,0.2477211207151413
1761508069191400400,6.792400390625,0.037639111280441284,0.11949481815099716,0.24654027819633484
1761508069201372400,6.802372314453125,-0.17144320905208588,0.027477074414491653,0.23371630907058716
1761508069211343600,6.812343505859375,-0.450373113155365,-0.10718247294425964,0.17960727214813232
1761508069221315300,6.8223154296875,-0.712725043296814,-0.25452905893325806,0.05870154872536659
1761508069231286500,6.83228662109375,-0.8834165930747986,-0.2644519805908203,-0.0646669864654541
1761508069241257500,6.842257568359375,-0.8960359692573547,-0.06418276578187943,-0.13076448440551758
1761508069251229400,6.8522294921875,-0.805976390838623,0.17146171629428864,-0.19827881455421448
1761508069261200400,6.862200439453125,-0.5321305990219116,0.41276437044143677,-0.17058776319026947
1761508069271172600,6.872172607421875,-0.17827479541301727,0.5676122903823853,-0.06810265779495239
1761508069281143600,6.8821435546875,0.04768485575914383,0.5267665386199951,0.033167582005262375
1761508069291115500,6.892115478515625,0.10979510098695755,0.2739201486110687,0.110113225877285
1761508069301086500,6.90208642578125,0.07719001173973083,-0.12060461193323135,0.13625788688659668
1761508069311058400,6.912058349609375,-0.030452564358711243,-0.528504490852356,0.07022134959697723
1761508069321029400,6.922029296875,-0.14346331357955933,-0.8105863332748413,-0.05338328704237938
1761508069331001600,6.932001708984375,-0.22591878473758698,-0.7962010502815247,-0.16101840138435364
1761508069340972500,6.94197265625,-0.24500428140163422,-0.40540623664855957,-0.2019481211900711
1761508069350944500,6.951944580078125,-0.1426137238740921,0.2689703106880188,-0.09559451043605804
1761508069360915500,6.96191552734375,0.04774107411503792,0.9409732222557068,0.15235422551631927
1761508069370886400,6.971886474609375,0.23376181721687317,1.3843810558319092,0.4646170735359192
1761508069380858400,6.9818583984375,0.40251266956329346,1.4810798168182373,0.732544481754303
1761508069390829300,6.991829345703125,0.48615801334381104,1.2298941612243652,0.91104656457901
1761508069400801500,7.001801513671875,0.46237874031066895,0.7336131930351257,0.979217529296875
1761508069410772200,7.011772216796875,0.3674951195716858,0.1599568873643875,0.9585399031639099
1761508069420744400,7.021744384765625,0.2302645444869995,-0.31564539670944214,0.8680335879325867
1761508069430715400,7.03171533203125,0.08972182124853134,-0.6165740489959717,0.6820527911186218
1761508069440687400,7.041687255859375,-0.016280924901366234,-0.7153424024581909,0.4482802450656891
1761508069450658300,7.051658203125,-0.03194723650813103,-0.6539672017097473,0.24976661801338196
1761508069460630500,7.061630615234375,-0.0015517650172114372,-0.4854491949081421,0.14562445878982544
1761508069470601200,7.071601318359375,0.07915346324443817,-0.26562735438346863,0.16520002484321594
1761508069480573400,7.081573486328125,0.15541276335716248,-0.11307049542665482,0.26442381739616394
1761508069490544400,7.09154443359375,0.14142824709415436,-0.052902497351169586,0.37764039635658264
1761508069500516400,7.101516357421875,0.05898365378379822,-0.022572431713342667,0.42307615280151367
1761508069510487300,7.1114873046875,-0.0558055154979229,0.02355058863759041,0.37635260820388794
1761508069520458500,7.12145849609375,-0.17258942127227783,0.10354521125555038,0.2812931537628174
1761508069530430200,7.13143017578125,-0.2516877055168152,0.1698155701160431,0.14524076879024506
1761508069540401400,7.1414013671875,-0.3095123767852783,0.1957864612340927,0.0019459315808489919
1761508069550373400,7.151373291015625,-0.37400510907173157,0.1677769273519516,-0.09384158253669739
1761508069560344600,7.161344482421875,-0.43461278080940247,0.13257746398448944,-0.09157244861125946
1761508069570316300,7.17131640625,-0.427996963262558,0.14882460236549377,-0.0034662983380258083
1761508069580287500,7.18128759765625,-0.34173789620399475,0.24709226191043854,0.12466423958539963
1761508069590259200,7.19125927734375,-0.1794014573097229,0.3790827691555023,0.2519012987613678
1761508069600230400,7.20123046875,0.016522258520126343,0.5205418467521667,0.40057578682899475
1761508069610202400,7.211202392578125,0.18981868028640747,0.5792722702026367,0.5822334885597229
1761508069620173600,7.221173583984375,0.2967163920402527,0.519267201423645,0.7832722067832947
1761508069630145300,7.231145263671875,0.38630884885787964,0.36180776357650757,0.9313849806785583
1761508069640116500,7.241116455078125,0.43287065625190735,0.1364939659833908,1.0037025213241577
1761508069650087400,7.25108740234375,0.44277042150497437,-0.09105981886386871,0.9915904402732849
1761508069660059400,7.261059326171875,0.4146959185600281,-0.3025652766227722,0.9009017944335938
1761508069670030300,7.2710302734375,0.35432976484298706,-0.45505282282829285,0.749737560749054
1761508069680002600,7.28100244140625,0.27236565947532654,-0.49221137166023254,0.5581116676330566
1761508069689973200,7.29097314453125,0.1846829503774643,-0.43042150139808655,0.35062137246131897
1761508069699945500,7.300945556640625,0.07750887423753738,-0.3084731698036194,0.1700447052717209
1761508069709916400,7.31091650390625,-0.03426240384578705,-0.17467302083969116,0.06828664988279343
1761508069719888400,7.320888427734375,-0.1313275843858719,-0.07452747225761414,0.057583894580602646
1761508069729859300,7.330859375,-0.1769786924123764,-0.01648813672363758,0.11802540719509125
1761508069739831600,7.34083154296875,-0.17955438792705536,0.020799729973077774,0.214433953166008
1761508069749802200,7.35080224609375,-0.18264952301979065,0.07042134553194046,0.3275054097175598
1761508069759774500,7.3607744140625,-0.21183505654335022,0.14031662046909332,0.4375336766242981
1761508069769745400,7.370745361328125,-0.22343365848064423,0.17208494246006012,0.4929361939430237
1761508069779717400,7.38071728515625,-0.24125710129737854,0.1414797008037567,0.5094881057739258
1761508069789688300,7.390688232421875,-0.26124516129493713,0.08979946374893188,0.4445742964744568
1761508069799659500,7.400659423828125,-0.3102201223373413,0.045491281896829605,0.3065131604671478
1761508069809631200,7.41063134765625,-0.37895336747169495,0.028887804597616196,0.10405727475881577
1761508069819602400,7.4206025390625,-0.44194668531417847,0.07615211606025696,-0.09907270967960358
1761508069829574400,7.430574462890625,-0.46304798126220703,0.21657128632068634,-0.2716072201728821
1761508069839545600,7.440545654296875,-0.4047209322452545,0.42695897817611694,-0.3824043869972229
1761508069849517300,7.450517333984375,-0.29517820477485657,0.6589202880859375,-0.41191035509109497
1761508069859488500,7.460488525390625,-0.19747117161750793,0.8340842723846436,-0.3697284460067749
1761508069869460200,7.470460205078125,-0.12806013226509094,0.9330662488937378,-0.2892756760120392
1761508069879431400,7.480431396484375,-0.044451773166656494,0.9158491492271423,-0.21776226162910461
1761508069889403400,7.4904033203125,0.04223252087831497,0.8100560903549194,-0.13965654373168945
1761508069899374600,7.50037451171875,0.10768267512321472,0.7101711630821228,-0.04345834255218506
1761508069909345300,7.51034521484375,0.15304455161094666,0.6662366986274719,0.056281570345163345
1761508069919317800,7.52031787109375,0.15367823839187622,0.6831080913543701,0.1245877742767334
1761508069929288700,7.530288818359375,0.10234155505895615,0.7228690981864929,0.16265445947647095
1761508069939260700,7.5402607421875,0.0013125734403729439,0.725806713104248,0.14889590442180634
1761508069949231600,7.550231689453125,-0.11299429088830948,0.6938903331756592,0.06128321960568428
1761508069959203800,7.560203857421875,-0.20548754930496216,0.6273434162139893,-0.10838274657726288
1761508069969174500,7.570174560546875,-0.2180137187242508,0.5580527782440186,-0.31227755546569824
1761508069979146800,7.580146728515625,-0.15780258178710938,0.5121347308158875,-0.4520409107208252
1761508069989117700,7.59011767578125,0.00428778026252985,0.507603645324707,-0.46840283274650574
1761508069999089700,7.600089599609375,0.2158358097076416,0.46692076325416565,-0.3493817150592804
1761508070009060600,7.610060546875,0.39061641693115234,0.3516479730606079,-0.13382282853126526
1761508070019032800,7.62003271484375,0.5005216598510742,0.1345755159854889,0.1222524493932724
1761508070029003500,7.63000341796875,0.5266680121421814,-0.10216379165649414,0.3376569151878357
1761508070038975700,7.639975830078125,0.5048229694366455,-0.3423563838005066,0.4737856388092041
1761508070048946700,7.64994677734375,0.46115240454673767,-0.5600211024284363,0.5046879053115845
1761508070058917600,7.659917724609375,0.4081477224826813,-0.7267885804176331,0.44085755944252014
1761508070068889600,7.6698896484375,0.3593223989009857,-0.7893848419189453,0.3170059323310852
1761508070078860500,7.679860595703125,0.2783902883529663,-0.7442875504493713,0.19387002289295197
1761508070088832500,7.68983251953125,0.1779872626066208,-0.5972278118133545,0.1332665979862213
1761508070098803500,7.699803466796875,0.07770025730133057,-0.3975668251514435,0.13949793577194214
1761508070108775700,7.709775634765625,-0.0040502650663256645,-0.20796626806259155,0.20056049525737762
1761508070118746600,7.71974658203125,-0.03400110825896263,-0.010987600311636925,0.3202110528945923
1761508070128718600,7.729718505859375,-0.013103285804390907,0.18326283991336823,0.47629573941230774
1761508070138689500,7.739689453125,0.014830670319497585,0.3429257273674011,0.6677135229110718
1761508070148661500,7.74966162109375,-0.00819129217416048,0.46775341033935547,0.8563217520713806
1761508070158632400,7.759632568359375,-0.13381540775299072,0.4281775653362274,0.9188469052314758
1761508070168604700,7.769604736328125,-0.3783271312713623,0.21372544765472412,0.7609102725982666
1761508070178575600,7.77957568359375,-0.5921445488929749,-0.08713790774345398,0.37701162695884705
1761508070188546600,7.789546630859375,-0.7291767001152039,-0.35473713278770447,-0.10118132084608078
1761508070198518500,7.7995185546875,-0.7131297588348389,-0.412483811378479,-0.5016776919364929
1761508070208489700,7.80948974609375,-0.6161009669303894,-0.36830782890319824,-0.7811729907989502
1761508070218461400,7.81946142578125,-0.4582791328430176,-0.2522225081920624,-0.8759815096855164
1761508070228432600,7.8294326171875,-0.22786667943000793,-0.028904203325510025,-0.7080758810043335
1761508070238404600,7.839404541015625,-0.016543250530958176,0.18826378881931305,-0.32201284170150757
1761508070248375600,7.84937548828125,0.059258833527565,0.23294417560100555,0.10510652512311935
1761508070258347500,7.859347412109375,0.06185896694660187,0.06532697379589081,0.3674015700817108
1761508070268318700,7.869318603515625,0.08289821445941925,-0.2456577867269516,0.33316317200660706
1761508070278290400,7.87929052734375,0.18815040588378906,-0.530920684337616,0.11612303555011749
1761508070288261600,7.88926171875,0.3084232807159424,-0.6927964091300964,-0.16670387983322144
1761508070298233600,7.899233642578125,0.33494988083839417,-0.7382895350456238,-0.37397894263267517
1761508070308204500,7.90920458984375,0.30431100726127625,-0.7073537111282349,-0.4322584867477417
1761508070318175500,7.919175537109375,0.2898198366165161,-0.640925407409668,-0.4092821180820465
1761508070328147700,7.929147705078125,0.29448649287223816,-0.5492130517959595,-0.3365781009197235
1761508070338118700,7.93911865234375,0.2897396981716156,-0.40846723318099976,-0.2382601648569107
1761508070348090600,7.949090576171875,0.26076823472976685,-0.22877950966358185,-0.15735547244548798
1761508070358061600,7.9590615234375,0.2087189108133316,-0.04524689540266991,-0.12221493571996689
1761508070368033500,7.969033447265625,0.13226088881492615,0.12248538434505463,-0.13946610689163208
1761508070378004500,7.97900439453125,0.047898270189762115,0.2653293311595917,-0.1722116321325302
1761508070387976700,7.988976806640625,-0.012515541166067123,0.3557060956954956,-0.217467799782753
1761508070397947600,7.99894775390625,-0.025316063314676285,0.37823453545570374,-0.27894026041030884
1761508070407919600,8.008919677734376,-0.01542135514318943,0.31407710909843445,-0.32302674651145935
1761508070417890600,8.018890625,0.0060271210968494415,0.18583495914936066,-0.3390457034111023
1761508070427862500,8.028862548828124,0.014598239213228226,0.046629395335912704,-0.30956050753593445
1761508070437833500,8.03883349609375,0.013244615867733955,-0.05592893436551094,-0.255936861038208
1761508070447805700,8.0488056640625,0.0018574711866676807,-0.11420982331037521,-0.2080628126859665
1761508070457776600,8.058776611328126,-0.02521343156695366,-0.11769925057888031,-0.18228253722190857
1761508070467747600,8.06874755859375,-0.060338929295539856,-0.07260873913764954,-0.1536295861005783
1761508070477719600,8.078719482421874,-0.0966922864317894,0.003100170288234949,-0.12457027286291122
1761508070487690800,8.088690673828125,-0.13410250842571259,0.08055394887924194,-0.10137839615345001
1761508070497662500,8.098662353515625,-0.16443473100662231,0.16437794268131256,-0.05728166922926903
1761508070507633700,8.108633544921876,-0.17708449065685272,0.2755100727081299,0.00534895621240139
1761508070517605600,8.118605712890625,-0.1861957460641861,0.38060617446899414,0.07961653172969818
1761508070527576600,8.12857666015625,-0.18633902072906494,0.42957133054733276,0.12216345965862274
1761508070537548500,8.138548583984376,-0.18616601824760437,0.42573410272598267,0.13570936024188995
1761508070547519700,8.148519775390625,-0.18310338258743286,0.41133439540863037,0.1293976753950119
1761508070557491500,8.158491455078124,-0.17466656863689423,0.4152866303920746,0.10431408137083054
1761508070567462700,8.168462646484375,-0.14691109955310822,0.4170632064342499,0.09192505478858948
1761508070577433600,8.17843359375,-0.12024853378534317,0.4209318161010742,0.10088175535202026
1761508070587405600,8.188405517578126,-0.10171080380678177,0.3960416615009308,0.11863306164741516
1761508070597376500,8.19837646484375,-0.08857445418834686,0.3724256157875061,0.14367453753948212
1761508070607348700,8.2083486328125,-0.06485448032617569,0.34939539432525635,0.15460973978042603
1761508070617319700,8.218319580078125,-0.04412303864955902,0.32157284021377563,0.15621094405651093
1761508070627291600,8.228291748046875,-0.02306622453033924,0.2893318235874176,0.14857326447963715
1761508070637262600,8.2382626953125,-0.007192856166511774,0.2551901936531067,0.14357778429985046
1761508070647234600,8.248234619140625,0.0025202250108122826,0.21876053512096405,0.1412493884563446
1761508070657205500,8.25820556640625,0.013250420801341534,0.2076556384563446,0.13252432644367218
1761508070667177700,8.268177734375,0.02270251139998436,0.2160070389509201,0.1251969188451767
1761508070677148700,8.278148681640625,0.01711859181523323,0.25208452343940735,0.11364948749542236
1761508070687120600,8.28812060546875,0.005229974631220102,0.30312132835388184,0.11483193188905716
1761508070697091600,8.298091552734375,0.00559654925018549,0.3610246181488037,0.13441064953804016
1761508070707062800,8.308062744140624,0.006271128077059984,0.38875213265419006,0.15418274700641632
1761508070717034500,8.318034423828125,0.00882052630186081,0.37657761573791504,0.1655263453722
1761508070727005700,8.328005615234375,-0.0006760396063327789,0.312106192111969,0.1596122533082962
1761508070736977700,8.337977783203126,-0.0036424053832888603,0.21387800574302673,0.13847056031227112
1761508070746948600,8.347948486328125,-0.005348692648112774,0.12054991722106934,0.10843782871961594
1761508070756920600,8.357920654296874,0.006428946740925312,0.0642564445734024,0.07930905371904373
1761508070766891800,8.367891845703125,0.02665538899600506,0.04069679602980614,0.0673471987247467
1761508070776863500,8.377863525390625,0.048777561634778976,0.0379396453499794,0.08051097393035889
1761508070786834700,8.387834716796876,0.06748546659946442,0.06241649016737938,0.10337714105844498
1761508070796806700,8.397806640625,0.07734666764736176,0.09212686121463776,0.11924920231103897
1761508070806777600,8.407777587890624,0.07208053022623062,0.0941854789853096,0.12555557489395142
1761508070816749600,8.41774951171875,0.05171037092804909,0.07865901291370392,0.11763216555118561
1761508070826721800,8.4277216796875,0.026433508843183517,0.05403329059481621,0.08232397586107254
1761508070836692500,8.4376923828125,-0.0033560707233846188,0.055795833468437195,0.050448451191186905
1761508070846663700,8.44766357421875,-0.025871500372886658,0.0730467289686203,0.009477848187088966
1761508070856635600,8.4576357421875,-0.03470085933804512,0.0941823273897171,-0.01205308549106121
1761508070866606600,8.467606689453126,-0.03213224187493324,0.09788704663515091,-0.013826485723257065
1761508070876578600,8.47757861328125,-0.022833144292235374,0.08793418109416962,0.0019140520598739386
1761508070886549800,8.4875498046875,-0.0015731295570731163,0.07038954645395279,0.024426018819212914
1761508070896521500,8.497521484375,0.013440616428852081,0.05518713593482971,0.047810666263103485
1761508070906492700,8.50749267578125,0.00510012824088335,0.03290606662631035,0.04683142155408859
1761508070916464600,8.517464599609376,-0.017472777515649796,0.03160152584314346,0.024667147547006607
1761508070926435300,8.527435302734375,-0.04391077533364296,0.05783259868621826,-0.012757187709212303
1761508070936407300,8.5374072265625,-0.07125376164913177,0.0926346480846405,-0.04639306291937828
1761508070946378200,8.547378173828125,-0.08207844942808151,0.12712736427783966,-0.07953263819217682
1761508070956350200,8.55735009765625,-0.06332317739725113,0.14523859322071075,-0.08925706148147583
1761508070966321200,8.567321044921876,-0.032681386917829514,0.14228515326976776,-0.07078511267900467
1761508070976292400,8.577292236328125,-0.0029001235961914062,0.11773496121168137,-0.023743528872728348
1761508070986264300,8.587264404296874,0.018359623849391937,0.06548747420310974,0.028339911252260208
1761508070996235300,8.5972353515625,0.03219606354832649,0.01750064268708229,0.06297382712364197
1761508071006207200,8.607207275390625,0.03657856211066246,-0.007974356412887573,0.07404965162277222
1761508071016178400,8.617178466796876,0.03519667685031891,-0.012721157632768154,0.05288064107298851
1761508071026150100,8.627150146484375,0.030307115986943245,-0.011372799053788185,0.02755078300833702
1761508071036121300,8.637121337890624,0.01860862970352173,-0.008444009348750114,0.0009415765525773168
1761508071046093300,8.64709326171875,-0.004029570147395134,-0.010686657391488552,0.02600352093577385
1761508071056064300,8.657064208984375,-0.010244801640510559,-0.08712446689605713,0.02318297140300274
1761508071066036200,8.6670361328125,0.02566899172961712,-0.05234891176223755,-0.038341108709573746
1761508071076007400,8.67700732421875,0.07056741416454315,0.018225492909550667,-0.099125437438488
1761508071085979100,8.686979248046875,0.09538168460130692,0.07836472988128662,-0.08460375666618347
1761508071095950300,8.696950439453126,0.06919663399457932,0.057410769164562225,-0.02074381709098816
1761508071105922300,8.70692236328125,0.031352847814559937,0.0080389603972435,0.038684356957674026
1761508071115893200,8.716893310546874,0.00798914022743702,-0.0035138647072017193,0.07197242230176926
1761508071125864200,8.7268642578125,0.0016534794121980667,0.025019243359565735,0.05636283755302429
1761508071135836400,8.73683642578125,-0.010026047937572002,0.0810878574848175,0.022134751081466675
1761508071145807400,8.746807373046876,-0.036255255341529846,0.13318301737308502,0.008388310670852661
1761508071155779300,8.756779296875,-0.054733943194150925,0.156655415892601,0.008418592624366283
1761508071165750300,8.766750244140624,-0.06275112181901932,0.16444116830825806,0.020177248865365982
1761508071175722200,8.77672216796875,-0.05683360993862152,0.15971647202968597,0.03843143582344055
1761508071185693200,8.786693115234375,-0.04286159947514534,0.154521182179451,0.05646316334605217
1761508071195665400,8.79666552734375,-0.026430245488882065,0.1501224786043167,0.06932870298624039
1761508071205636400,8.80663623046875,-0.0088893361389637,0.14245736598968506,0.08187352120876312
1761508071215608300,8.8166083984375,0.009011741727590561,0.12405639886856079,0.09459144622087479
1761508071225579300,8.826579345703125,0.02496381103992462,0.09599707275629044,0.10544915497303009
1761508071235551200,8.83655126953125,0.03422093018889427,0.07314587384462357,0.11825008690357208
1761508071245522200,8.846522216796876,0.04366157203912735,0.04524712264537811,0.12840738892555237
1761508071255493400,8.856493408203125,0.03571736440062523,0.015986202284693718,0.13166071474552155
1761508071265465300,8.86646533203125,0.022027118131518364,-0.0010484419763088226,0.13313743472099304
1761508071275436300,8.876436279296875,0.004541114903986454,0.003447117516770959,0.1289987713098526
1761508071285408300,8.886408203125,-0.011620012111961842,0.02689545229077339,0.12098105251789093
1761508071295379500,8.89637939453125,-0.028642915189266205,0.049469660967588425,0.10526927560567856
1761508071305351200,8.90635107421875,-0.03916453197598457,0.07155365496873856,0.10067426413297653
1761508071315322400,8.916322265625,-0.0426650270819664,0.08615462481975555,0.11114151030778885
1761508071325294300,8.92629443359375,-0.030489854514598846,0.11902229487895966,0.12409752607345581
1761508071335265300,8.936265380859375,-0.030034935101866722,0.15538530051708221,0.15264153480529785
1761508071345237200,8.9462373046875,-0.03208663687109947,0.17658460140228271,0.22256629168987274
1761508071355208400,8.95620849609375,-0.04736040160059929,0.18029005825519562,0.31146305799484253
1761508071365180200,8.96618017578125,-0.07450520247220993,0.19035200774669647,0.40667426586151123
1761508071375151400,8.9761513671875,-0.08968302607536316,0.22083385288715363,0.49445438385009766
1761508071385122300,8.986122314453125,-0.08829978108406067,0.2736102342605591,0.5705502033233643
1761508071395094300,8.99609423828125,-0.07376144826412201,0.3214375376701355,0.6231690645217896
1761508071405065200,9.006065185546875,-0.06673096865415573,0.3445127606391907,0.6592567563056946
1761508071415037400,9.016037353515625,-0.05944797024130821,0.33800819516181946,0.6922357082366943
1761508071425008400,9.02600830078125,-0.06400623917579651,0.32072293758392334,0.7126997113227844
1761508071434980400,9.03598046875,-0.07500091940164566,0.296640545129776,0.7387290000915527
1761508071444951300,9.045951416015624,-0.08640696853399277,0.28544995188713074,0.7472966909408569
1761508071454923300,9.05592333984375,-0.09801898151636124,0.27814561128616333,0.72687828540802
1761508071464894200,9.065894287109375,-0.10655760765075684,0.2815256714820862,0.6937118172645569
1761508071474866400,9.075866455078126,-0.10860899835824966,0.2910170555114746,0.652944028377533
1761508071484837400,9.08583740234375,-0.11369483917951584,0.3201057016849518,0.647785484790802
1761508071494809300,9.095809326171874,-0.10080944746732712,0.35355645418167114,0.6677271127700806
1761508071504780300,9.1057802734375,-0.07694166153669357,0.3878907263278961,0.6974216103553772
1761508071514752500,9.11575244140625,-0.05660827085375786,0.3986113965511322,0.7185985445976257
1761508071524723200,9.12572314453125,-0.03975525125861168,0.3922094404697418,0.725437581539154
1761508071534694100,9.135694091796875,-0.022210482507944107,0.36049339175224304,0.7269500494003296
1761508071544666400,9.145666259765624,-0.0012881569564342499,0.31434881687164307,0.7286826968193054
1761508071554637300,9.15563720703125,0.01254650205373764,0.25895941257476807,0.7363658547401428
1761508071564609300,9.165609375,0.008895307779312134,0.23804214596748352,0.7298698425292969
1761508071574580200,9.175580322265626,0.006160840392112732,0.25450748205184937,0.700351357460022
1761508071584552200,9.18555224609375,0.010565442033112049,0.29579979181289673,0.6484048366546631
1761508071594523100,9.195523193359374,-0.0012479121796786785,0.35734236240386963,0.5858376026153564
1761508071604495400,9.205495361328126,-0.00673136068508029,0.4249008893966675,0.5226386189460754
1761508071614466300,9.21546630859375,-0.0050948550924658775,0.4793262481689453,0.4771341383457184
1761508071624438300,9.225438232421874,-0.0005903849378228188,0.5041669011116028,0.4753274619579315
1761508071634409200,9.2354091796875,0.011386345140635967,0.4883974492549896,0.497982919216156
1761508071644381200,9.245381103515625,0.016587231308221817,0.4631860852241516,0.5314836502075195
1761508071654352100,9.25535205078125,0.023101666942238808,0.4410764276981354,0.5436328053474426
1761508071664323300,9.2653232421875,0.035604942589998245,0.43531733751296997,0.5509940385818481
1761508071674295300,9.27529541015625,0.04254778474569321,0.42533087730407715,0.5439297556877136
1761508071684266200,9.285266357421875,0.058844469487667084,0.4205470383167267,0.5365909337997437
1761508071694238200,9.29523828125,0.07035624235868454,0.4282192587852478,0.5185617208480835
1761508071704209400,9.30520947265625,0.0828978642821312,0.4264538586139679,0.48940834403038025
1761508071714181000,9.31518115234375,0.08713237196207047,0.411602646112442,0.4709380865097046
1761508071724152300,9.32515234375,0.09146160632371902,0.3814487159252167,0.4583056569099426
1761508071734124300,9.335124267578125,0.09972022473812103,0.345138281583786,0.44124844670295715
1761508071744095200,9.34509521484375,0.11237716674804688,0.2995825409889221,0.42684289813041687
1761508071754067200,9.355067138671876,0.1220838725566864,0.2453758865594864,0.414109468460083
1761508071764038400,9.365038330078125,0.12545304000377655,0.19653883576393127,0.3823438286781311
1761508071774010000,9.375010009765624,0.12914356589317322,0.1457713097333908,0.3254089951515198
1761508071783981300,9.384981201171875,0.12586309015750885,0.11228419095277786,0.2553550601005554
1761508071793953300,9.394953369140625,0.13120821118354797,0.09320249408483505,0.18318046629428864
1761508071803924200,9.40492431640625,0.14441029727458954,0.07326420396566391,0.12891191244125366
1761508071813895200,9.414895263671875,0.14655061066150665,0.05090467259287834,0.11526472866535187
1761508071823867400,9.424867431640624,0.1395299881696701,0.023917529731988907,0.10933360457420349
1761508071833838300,9.43483837890625,0.12408462166786194,0.02297528274357319,0.10312547534704208
1761508071843810300,9.444810302734375,0.1076827421784401,0.03237783908843994,0.09239187091588974
1761508071853781200,9.45478125,0.08975489437580109,0.05513101443648338,0.08509407937526703
1761508071863753200,9.464753173828125,0.05951070785522461,0.06832245737314224,0.07597701251506805
1761508071873724200,9.47472412109375,0.023399781435728073,0.07123354077339172,0.23946063220500946
1761508071883696400,9.4846962890625,-0.05863996222615242,-0.21549676358699799,0.33302947878837585
1761508071893667300,9.494667236328125,-0.11059358716011047,-0.25146350264549255,0.187556654214859
1761508071903639300,9.504639404296874,-0.08088815212249756,-0.13614597916603088,0.0004634670913219452
1761508071913610200,9.5146103515625,-0.11782209575176239,-0.029128823429346085,-0.25093600153923035
1761508071923582000,9.52458203125,-0.11891505122184753,0.11509333550930023,-0.4056376814842224
1761508071933553200,9.53455322265625,-0.07930956035852432,0.24779945611953735,-0.45346149802207947
1761508071943524000,9.544524169921875,-0.059524405747652054,0.2828432023525238,-0.3799196183681488
1761508071953496300,9.554496337890624,-0.10350686311721802,0.15995188057422638,-0.21582020819187164
1761508071963467000,9.564467041015625,-0.12279534339904785,0.01098849531263113,0.0060778288170695305
1761508071973439200,9.574439208984375,-0.11471015214920044,-0.09369735419750214,0.14943566918373108
1761508071983410200,9.58441015625,-0.07808369398117065,-0.10919056087732315,0.19896939396858215
1761508071993382100,9.594382080078125,-0.04793403297662735,-0.05015790835022926,0.1746060848236084
1761508072003353000,9.60435302734375,-0.04698488116264343,0.03155932202935219,0.1548060178756714
1761508072013325300,9.6143251953125,-0.06258540600538254,0.10258642584085464,0.16156123578548431
1761508072023296000,9.6242958984375,-0.0779595673084259,0.14982184767723083,0.19345659017562866
1761508072033268200,9.634268310546876,-0.07733842730522156,0.17236898839473724,0.2361883670091629
1761508072043239200,9.6442392578125,-0.06865918636322021,0.17179374396800995,0.27703964710235596
1761508072053211100,9.654211181640624,-0.06351424008607864,0.1593177765607834,0.30662181973457336
1761508072063182000,9.66418212890625,-0.05258942022919655,0.13674376904964447,0.3133186101913452
1761508072073153000,9.674153076171875,-0.04731123894453049,0.10720451176166534,0.3224296569824219
1761508072083125000,9.684125,-0.036410123109817505,0.09636065363883972,0.3069457709789276
1761508072093096000,9.694095947265625,-0.035907644778490067,0.09508789330720901,0.30551421642303467
1761508072103068200,9.704068115234374,-0.036087144166231155,0.08613461256027222,0.320063054561615
1761508072113039000,9.7140390625,-0.04078444838523865,0.08277644217014313,0.33263710141181946
1761508072123011000,9.724010986328125,-0.03849652409553528,0.07573238015174866,0.33774399757385254
1761508072132982000,9.73398193359375,-0.04258020222187042,0.06848551332950592,0.3354767858982086
1761508072142954000,9.7439541015625,-0.04841305688023567,0.07274151593446732,0.3507838547229767
1761508072152925000,9.753925048828124,-0.05031759664416313,0.10016706585884094,0.39087018370628357
1761508072162897200,9.763897216796876,-0.05317703261971474,0.1608210802078247,0.4392435848712921
1761508072172868000,9.7738681640625,-0.050411902368068695,0.23062333464622498,0.486272931098938
1761508072182840000,9.783840087890624,-0.04148871451616287,0.2977515161037445,0.5346375703811646
1761508072192811000,9.79381103515625,-0.03014058992266655,0.3353932499885559,0.5795827507972717
1761508072202783200,9.803783203125,-0.018322547897696495,0.33765265345573425,0.6259472966194153
1761508072212754000,9.81375390625,-0.0020748614333570004,0.3079789876937866,0.6720544099807739
1761508072222725000,9.82372509765625,0.016538238152861595,0.259046345949173,0.7242745161056519
1761508072232697000,9.833697021484374,0.027011429890990257,0.20207135379314423,0.7660713791847229
1761508072242668000,9.84366796875,0.043370962142944336,0.16788461804389954,0.7916896343231201
1761508072252640000,9.853639892578125,0.054574910551309586,0.1818116307258606,0.8027869462966919
1761508072262611200,9.863611083984376,0.06292285770177841,0.2243678867816925,0.8091551065444946
1761508072272583000,9.8735830078125,0.07495012879371643,0.2669382095336914,0.8225992321968079
1761508072282554000,9.88355419921875,0.07549741119146347,0.27954456210136414,0.8344982266426086
1761508072292526000,9.893526123046875,0.07017120718955994,0.2723146378993988,0.8345860838890076
1761508072302497000,9.9034970703125,0.04962678626179695,0.2583868205547333,0.8162097334861755
1761508072312469000,9.913468994140626,0.021028554067015648,0.2646287679672241,0.7656437158584595
1761508072322440200,9.923440185546875,-0.005935418885201216,0.2996000647544861,0.7036277651786804
1761508072332412000,9.933411865234374,-0.02778586372733116,0.3321012258529663,0.6545091271400452
1761508072342383000,9.943383056640625,-0.04924454912543297,0.34752917289733887,0.6196630001068115
1761508072352354000,9.95335400390625,-0.06951683759689331,0.33584603667259216,0.5886614918708801
1761508072362326300,9.963326171875,-0.09030254185199738,0.3125079572200775,0.5503761768341064
1761508072372297000,9.973296875,-0.0947757437825203,0.2990417182445526,0.5086755752563477
1761508072382269200,9.983269287109374,-0.0882834866642952,0.28392454981803894,0.47449415922164917
1761508072392240000,9.993240234375,-0.08278606086969376,0.27584967017173767,0.4844784140586853
1761508072402212000,10.003212158203125,-0.07240745425224304,0.07897736132144928,0.6801480650901794
1761508072412183000,10.01318310546875,-0.13389067351818085,-0.06343130022287369,0.4894918203353882
1761508072422155300,10.0231552734375,-0.048751022666692734,0.11118257790803909,0.3562552034854889
1761508072432126000,10.0331259765625,-0.04074988141655922,0.24668394029140472,0.1666465401649475
1761508072442098200,10.04309814453125,-0.11245708912611008,0.31336233019828796,0.06004366651177406
1761508072452069000,10.053069091796875,-0.1720016896724701,0.2735942602157593,0.04212470352649689
