time,seconds_elapsed,z,y,x
1761506848647413800,0.076413818359375,0.022757190731167793,0.01970240627042949,-0.13495925446273757
1761506848657385700,0.0863857421875,0.1971598179131746,-0.029249475359916684,-0.15805607067812233
1761506848667357700,0.096357666015625,0.2443126142323017,-0.042855537516623736,-0.20344989450071005
1761506848677329700,0.10632958984375,0.19899463212490082,-0.06248159061521291,-0.23698338558906687
1761506848687300600,0.116300537109375,0.10878946054279803,-0.023487258571386335,-0.21757344119288027
1761506848697272800,0.12627294921875,0.05011690682172775,0.030834625659510492,-0.13345990101676433
1761506848707244800,0.136244873046875,0.04425415226817131,0.04979987676180899,-0.028106570668797938
1761506848717205200,0.146205322265625,0.04557166460752487,0.05628741215020418,0.057837217141781
1761506848727176200,0.15617626953125,0.05098199921846389,0.05621208189167082,0.13418476295890286
1761506848737148200,0.166148193359375,0.04420388338565826,0.045807226929068565,0.1652387121912092
1761506848747120000,0.1761201171875,0.020030396115779874,0.0572603488355875,0.1716237735858187
1761506848757092400,0.18609228515625,-0.006650690060853958,0.05331555673256516,0.1651650989657268
1761506848767064300,0.196064208984375,0.0005833528459072112,0.05979965805485844,0.15909304904304444
1761506848777035300,0.20603515625,0.03719838853776455,0.06848389976993202,0.15525885944133624
1761506848787007200,0.21600732421875,0.09984978276193142,0.04952938925735652,0.13768146423455327
1761506848796979200,0.225979248046875,0.1508440569400787,0.021324746775254606,0.11522504654824733
1761506848806951200,0.235951171875,0.15415361987948417,-0.01820296149291098,0.07204862478049472
1761506848816922000,0.245922119140625,0.09387655357122421,-0.02063091929219663,0.045125016818568106
1761506848826894300,0.255894287109375,-0.0070113400667905805,-0.0028658377598971127,0.007062613596301525
1761506848836866300,0.2658662109375,-0.09726385792195796,0.013915055040642619,-0.01201475611096248
1761506848846838300,0.27583837890625,-0.1768085192799568,0.030411212615668773,-0.027556809565238653
1761506848856809500,0.2858095703125,-0.19020342290401457,0.04539404301829636,-0.027980770598351953
1761506848866781200,0.29578125,-0.13791267917454242,0.02542816350609064,-0.01110662829009816
1761506848876753400,0.30575341796875,-0.050125090128183364,-0.011545037973672151,-0.007239285337459296
1761506848886725000,0.31572509765625,0.03671791154444218,-0.03319857831187546,-0.01657559775309637
1761506848896697300,0.325697265625,0.08602057937383652,-0.047026904917135834,-0.006661704645212739
1761506848906668300,0.335668212890625,0.10482231047749518,-0.04925809803530574,-0.004074281967896968
1761506848916640300,0.34564013671875,0.07286182259321212,-0.002355404019728303,-0.00430834645209834
1761506848926612500,0.355612548828125,0.053615854853391647,0.032073081413283945,-0.017802180405985562
1761506848936584200,0.365584228515625,0.10747837794423103,0.020179376132413742,0.0034122378625907
1761506848946555400,0.375555419921875,0.12209902397096156,0.0008707914851605892,-0.002434789398871362
1761506848956527400,0.38552734375,0.07564823844134808,0.0021204992853105066,-0.026987649641465394
1761506848966499300,0.395499267578125,0.063330024138093,0.01010587201602757,-0.04769302240936085
1761506848976471300,0.40547119140625,0.05280395394861698,0.02962181580364704,-0.034117793782334774
1761506848986442200,0.415442138671875,-0.004506079247593879,0.05519231038987636,-0.032239049097336825
1761506848996414200,0.425414306640625,-0.05075052855014801,0.08337284134402871,-0.021835564107913524
1761506849006386200,0.43538623046875,-0.08950549888014793,0.08963672404438257,-0.008707348596025257
1761506849016358400,0.4453583984375,-0.17638006473481654,0.1050276968564838,-0.052137398064974694
1761506849026330000,0.455330078125,-0.24407529834508895,0.11762976960241794,-0.09276375175742432
1761506849036301300,0.46530126953125,-0.23908289688527581,0.1334366297390312,-0.09528892285348847
1761506849046273300,0.475273193359375,-0.14421499418914316,0.11072839271612464,-0.0479357085914351
1761506849056245200,0.485245361328125,-0.03266366771757603,0.08295987662896513,-0.01769435438364744
1761506849066217200,0.49521728515625,0.04701192654371261,0.061451809176057574,-0.022308898974396286
1761506849076188400,0.5051884765625,0.07925298493504523,0.0530714457783848,-0.03927791649186983
1761506849086160100,0.51516015625,0.07349076814651488,0.04943440445028245,-0.07502143004620447
1761506849096132400,0.52513232421875,0.0243646259278059,0.05309584956727922,-0.1146722897700034
1761506849106104300,0.535104248046875,-0.07975684280395508,0.07347352475076914,-0.14374445406794548
1761506849116075300,0.5450751953125,-0.14331483047902582,0.09209778039567172,-0.14175399263678118
1761506849126047500,0.555047607421875,-0.10524082815051078,0.08773914679475128,-0.09367186131197959
1761506849136019200,0.565019287109375,-0.023579613029956818,0.06131459266245365,-0.04591633159304037
1761506849145991400,0.574991455078125,0.041518589824438096,0.01001446740552783,-0.023086130424588916
1761506849155963100,0.584963134765625,0.10601824226379394,-0.03592464227490127,-0.040518892996292556
1761506849165934300,0.594934326171875,0.17165128264725207,-0.08565890645459294,-0.05615605912180617
1761506849175906300,0.60490625,0.23209201508462426,-0.10138795211464166,-0.03711677466891706
1761506849185878300,0.614878173828125,0.26977906392216683,-0.11211612074747682,-0.011053674260154366
1761506849195850500,0.6248505859375,0.25956980459690093,-0.14174261272624133,-0.007982559719122945
1761506849205821200,0.6348212890625,0.15258534764945506,-0.13259301852174102,-0.04162460748218
1761506849215793400,0.64479345703125,-0.03013853315412998,-0.11358129792921244,-0.08367248187772929
1761506849225765000,0.65476513671875,-0.2326619239270687,-0.06346665612980723,-0.11769614936951547
1761506849235737300,0.6647373046875,-0.32981706077754497,-0.04633855732679367,-0.1252286820325069
1761506849245709000,0.674708984375,-0.33038872318565843,-0.037862916861101985,-0.09591419687867164
1761506849255680300,0.68468017578125,-0.2688075885415077,-0.046433396003395314,-0.055724882896617055
1761506849265652200,0.69465234375,-0.16934183666110036,-0.055193917825073,-0.022302213505282997
1761506849275624200,0.704624267578125,-0.1062812771141529,-0.03349412719234824,-0.011592402513045818
1761506849285596400,0.714596435546875,-0.07243979778885841,-0.004756912203505635,-0.014330832767300307
1761506849295567400,0.7245673828125,-0.06816402016580105,0.03270619168505073,-0.008821275565586983
1761506849305539300,0.734539306640625,-0.09746201084256172,0.08814261302910745,0.008311901271343231
1761506849315511300,0.74451123046875,-0.09141220928430557,0.12820917741432786,0.05392197992680594
1761506849325483300,0.754483154296875,-0.020689152285456657,0.14294300149194894,0.12308472880637272
1761506849335454200,0.7644541015625,0.11278583670258521,0.13895911948755382,0.1885978326045908
1761506849345426400,0.774426513671875,0.21842647782564162,0.11670571356005965,0.22643735032379625
1761506849355398100,0.784398193359375,0.297518719241023,0.11037249195054173,0.2345357367086224
1761506849365370400,0.794370361328125,0.3391828550159931,0.10320143127739428,0.23123769981022924
1761506849375342300,0.80434228515625,0.3338730581700802,0.11020517255961894,0.20557947214161976
1761506849385313300,0.814313232421875,0.27901918595433234,0.10532580302022397,0.15986184145845472
1761506849395285200,0.82428515625,0.1807990502208471,0.09132233904376626,0.1065263744490221
1761506849405257200,0.83425732421875,0.07101181081235408,0.09566862461976706,0.07831108270874247
1761506849415229400,0.8442294921875,0.017090835532546044,0.08622852303609252,0.0901699358719401
1761506849425200000,0.8542001953125,0.019315525844693184,0.06614741964638232,0.07635167400296777
1761506849435172400,0.86417236328125,0.04702303245961666,0.032226810670271513,0.04234698520628735
1761506849445144000,0.87414404296875,0.0824526577591896,-0.020890373945981262,-0.021523612081911413
1761506849455116300,0.8841162109375,0.08437515025436877,-0.07209690263532102,-0.09800453848773613
1761506849465087200,0.894087158203125,0.03861000890135765,-0.08571348618604242,-0.1764469376922585
1761506849475059200,0.90405908203125,-0.02392623451054096,-0.06781571818478405,-0.21550017858278006
1761506849485031400,0.914031494140625,-0.11744973686039448,-0.04973404498398304,-0.2526184328227304
1761506849495003100,0.924003173828125,-0.1358873108267784,-0.05915040036588907,-0.2636184406668879
1761506849504975400,0.933975341796875,-0.07730243538916111,-0.0783514329854399,-0.25201516969995574
1761506849514946300,0.9439462890625,0.002206570133566856,-0.1001528573617339,-0.22880411598775535
1761506849524918300,0.953918212890625,0.07514087344110011,-0.12959179087914527,-0.22251405766652896
1761506849534890200,0.96389013671875,0.12055413261651993,-0.13720876868888734,-0.23169634856423363
1761506849544862200,0.9738623046875,0.14598609551489353,-0.1335088912576437,-0.2252411445428617
1761506849554833200,0.983833251953125,0.1875409256964922,-0.11394837767593562,-0.1931748947291635
1761506849564805400,0.993805419921875,0.1744558186739683,-0.08906871489807963,-0.1482245951566845
1761506849574777300,1.00377734375,0.11772563119232654,-0.05230447999387979,-0.10283696361286565
1761506849584749300,1.013749267578125,0.06579378390312195,-0.00750131554082036,-0.053039041346125304
1761506849594720300,1.02372021484375,0.05772971991300582,-0.00773483203575015,-0.00802201494667679
1761506849604692200,1.033692138671875,0.03871346927583218,0.005268514987453818,0.020173238652572034
1761506849614664200,1.043664306640625,-0.001124035593867302,0.0047400341339409345,0.0478368330605328
1761506849624636200,1.05363623046875,-0.09126841689944266,0.029923940555378795,0.077858644499816
1761506849634608400,1.0636083984375,-0.1888695439517498,0.06186068223789334,0.08547262663487344
1761506849644579000,1.0735791015625,-0.23880817159712314,0.08750205010324716,0.10275748690217733
1761506849654551300,1.08355126953125,-0.2501917353987694,0.10109941749684512,0.12153611112488433
1761506849664523300,1.093523193359375,-0.21855215003192424,0.1055204488094896,0.15435882359538228
1761506849674495200,1.1034951171875,-0.10419278040230273,0.07064071247763931,0.19185805824324487
1761506849684466400,1.113466552734375,-0.030187632992863655,0.04088628327026963,0.22768391631878912
1761506849694438100,1.123438232421875,-0.012760697373747824,0.04334865479581058,0.24007556118443607
1761506849704410400,1.133410400390625,-0.020278233397006986,0.05067972833625972,0.22324671932263299
1761506849714382000,1.143382080078125,-0.038488428348302836,0.0548711886767298,0.20204642091095446
1761506849724353300,1.153353271484375,-0.06532441282570361,0.06283347279280424,0.1738916271862574
1761506849734325500,1.163325439453125,-0.06226736334264278,0.08270137182325124,0.17001423776363953
1761506849744297500,1.17329736328125,-0.029336569121479986,0.08280578204579651,0.146761883926671
1761506849754269400,1.18326953125,0.01759293983578682,0.0764869542878121,0.1283981423814781
1761506849764241400,1.193241455078125,0.0668546911329031,0.04662628822699189,0.10620684190476312
1761506849774212400,1.20321240234375,0.08721241950690746,0.03633161564059555,0.08261135545223951
1761506849784184600,1.2131845703125,0.06749766521155834,0.024205489843338725,0.06670549192056059
1761506849794156300,1.22315625,0.028854338562488556,0.03512625843882561,0.05155241951756179
1761506849804128500,1.23312841796875,-0.024827567264437675,0.05524550188183784,0.04685958552621305
1761506849814099200,1.24309912109375,-0.0540881485402584,0.06446633469164371,0.02035155436154455
1761506849824071400,1.253071533203125,-0.048620530784130096,0.049654111615568396,-0.00629709085021168
1761506849834043400,1.26304345703125,-0.05080839621722698,0.049217985220625995,-0.010472513371333479
1761506849844015400,1.273015380859375,-0.0680570526599884,0.05986300561465323,-0.02538096336349845
1761506849853987300,1.2829873046875,-0.0960685106575489,0.05105447993278503,-0.03916205329354852
1761506849863958300,1.292958251953125,-0.09440437683761119,0.057950961448252195,-0.06287044380232691
1761506849873930500,1.302930419921875,-0.06360474942624568,0.05683094444237649,-0.05473722356613725
1761506849883902200,1.312902099609375,-0.009151274704933167,0.03587028173916042,-0.03824270995892584
1761506849893874400,1.32287451171875,0.029319617986679074,0.014349939326569437,-0.03130673668328673
1761506849903845400,1.332845458984375,0.05393909545838833,0.0012485387563705443,-0.03837492150384932
1761506849913817300,1.3428173828125,0.05770809260308742,-0.011498714613914489,-0.061542410068959
1761506849923789600,1.35278955078125,0.06876257058084011,-0.0047212563682347535,-0.06714823071938007
1761506849933761300,1.36276123046875,0.0780827721118927,-0.005386880670115351,-0.06644103229809552
1761506849943732500,1.372732421875,0.08619710498452186,-0.0006782645877450704,-0.07184610621202736
1761506849953704400,1.382704345703125,0.07469312967360019,-0.00458338226750493,-0.08577632228918373
1761506849963676400,1.392676513671875,0.07124561956822872,-0.005151464479044079,-0.0896983911037445
1761506849973648400,1.4026484375,0.08098492329418659,-0.0062295420393347735,-0.08312244677953422
1761506849983620400,1.412620361328125,0.056126376369595526,0.0016262860275804995,-0.09390267439316957
1761506849993591300,1.42259130859375,0.020326164191961288,0.012650076606124638,-0.11239194201417267
1761506850003563500,1.4325634765625,0.032419337567687036,0.003559446047246456,-0.10499616920705884
1761506850013535500,1.442535400390625,0.059335401543974875,-0.004966755561903118,-0.07706241608820855
1761506850023507500,1.452507568359375,0.07283610363006592,-0.0003458177629858255,-0.04445877146217972
1761506850033478400,1.462478515625,0.08463876962661743,0.002208323699235916,-0.01970489048846066
1761506850043450400,1.472450439453125,0.07435995219647884,0.012673895873129367,-0.02613072228487581
1761506850053422300,1.48242236328125,0.058018473726511,0.02229717200398445,-0.035315205139666794
1761506850063394300,1.492394287109375,0.029881928044557568,0.028850100778788326,-0.04495510361175984
1761506850073366500,1.502366455078125,-0.013204934009909628,0.049051907938718796,-0.029949148061871527
1761506850083337200,1.512337158203125,-0.03658054890036583,0.05775010511390864,-0.0043371889540925615
1761506850093309400,1.522309326171875,-0.0832148743033409,0.06189480370320379,0.0026071502910926937
1761506850103281400,1.532281494140625,-0.08697568814158439,0.06847038270123303,0.009775945941917597
1761506850113253400,1.54225341796875,-0.09233984552323818,0.07358662973642349,0.013072612867131829
1761506850123224600,1.552224609375,-0.07844985185861587,0.06766293877586722,0.008982822802849113
1761506850133196300,1.5621962890625,-0.045727731952071186,0.04816569968871772,0.009493585336580871
1761506850143168500,1.57216845703125,0.006176642808318138,0.024803017345070837,-0.005505940472520888
1761506850153140200,1.58214013671875,0.043347558817267415,0.002333192187920213,-0.02541972447130829
1761506850163111400,1.592111328125,0.04604571186006069,-0.014521058109775185,-0.049477439874410625
1761506850173083400,1.60208349609375,0.013160510346293449,-0.01360007080733776,-0.08223674998618662
1761506850183055400,1.612055419921875,-0.03245499340295791,-0.013152034778892993,-0.08473707890193909
1761506850193027600,1.622027587890625,-0.036084874337911604,-0.011226108217611908,-0.07130030889753251
1761506850202999300,1.631999267578125,-0.010698504146933555,-0.022241642424464223,-0.045185880160331725
1761506850212970500,1.641970458984375,0.0139250649780035,-0.038418724112957714,-0.04464085003081709
1761506850222942500,1.6519423828125,0.023301380610466,-0.05104088979884982,-0.04367229725960642
1761506850232914400,1.66191455078125,0.03521276767849922,-0.060593219585344194,-0.04014828785192221
1761506850242886400,1.671886474609375,0.05612403828203678,-0.05455649670436978,-0.03145052906814962
1761506850252857300,1.681857421875,0.05926701248288154,-0.04784392038844525,-0.04468582168370485
1761506850262829300,1.691829345703125,0.02262918043732643,-0.018636019147932528,-0.05121865751855075
1761506850272801300,1.70180126953125,-0.043511224946379656,-0.002986687660589814,-0.058801294667273754
1761506850282773500,1.7117734375,-0.1094096382677555,0.020149273255094885,-0.0729419751573354
1761506850292744400,1.721744384765625,-0.13606500548124312,0.03118153940103948,-0.060957340190000826
1761506850302716400,1.73171630859375,-0.0775906046807766,0.01576097516827285,-0.030617585375346243
1761506850312688400,1.7416884765625,0.052014849397540086,-0.02271722404696047,0.014898513120040296
1761506850322660400,1.751660400390625,0.16572306164205072,-0.04833111938349902,0.036778446092642844
1761506850332632300,1.76163232421875,0.24657763655483722,-0.06670322689823806,0.056452429986186325
1761506850342603500,1.771603515625,0.2735170814067125,-0.06266038124822079,0.05705854265317321
1761506850352575200,1.7815751953125,0.2382037759631872,-0.023578663181886075,0.03192742586489767
1761506850362547500,1.79154736328125,0.1573719974040985,0.010014394340291619,0.014796550582908094
1761506850372519400,1.80151953125,0.042673605078458784,0.04724712353907525,-0.006800400729849934
1761506850382490400,1.811490478515625,-0.09965981314778327,0.07079195751659571,-0.03418265744578093
1761506850392462600,1.821462646484375,-0.18956512500047681,0.0693153821580112,-0.027512312836386263
1761506850402434300,1.831434326171875,-0.24073124861419198,0.0857018688134849,-0.022265023300051687
1761506850412406500,1.841406494140625,-0.25531448523998257,0.07531396498568356,0.011308781532384455
1761506850422377500,1.85137744140625,-0.22196400430202484,0.08799896677471697,0.04000244964044541
1761506850432349400,1.861349365234375,-0.19163842414319515,0.10409268102869391,0.052109688074141736
1761506850442321400,1.8713212890625,-0.1479343069732189,0.09187953453511,0.035302491788566114
1761506850452293400,1.88129345703125,-0.08800678475499153,0.0715573158659041,0.008002981452643871
1761506850462265600,1.891265625,-0.03206570182442665,0.05318615819923579,-0.0033403964690864084
1761506850472236300,1.901236328125,-0.017556114956736563,0.0534272004134953,0.0025357655553147197
1761506850482208500,1.91120849609375,-0.03782674956917763,0.06185374104045331,0.0032773046376183626
1761506850492180200,1.92118017578125,-0.02059270617365837,0.051638125039637085,0.007192724515683949
1761506850502152400,1.93115234375,0.04359714966416359,0.025987989345937965,-0.014963979571685194
1761506850512123400,1.941123291015625,0.09525310262143612,-0.001725947009772062,-0.008811923215351998
1761506850522095400,1.951095458984375,0.14740180753171442,-0.013159852759167551,0.004950535079464316
1761506850532067300,1.9610673828125,0.16945698747336863,-0.01953092216104269,-0.013361184017546475
1761506850542039300,1.971039306640625,0.13911796331107615,-0.030078254334256052,-0.053033890246972436
1761506850552010200,1.98101025390625,0.11324176377654074,-0.0345288040023297,-0.09082746819891035
1761506850561982500,1.990982421875,0.10224398442208767,-0.03945435077100992,-0.11012213391866535
1761506850571954400,2.000954345703125,0.11069324833750724,-0.03325264658667147,-0.08532682495601475
1761506850581926400,2.010926513671875,0.11016834768056868,-0.02586852768473327,-0.06095668260287493
1761506850591898400,2.0208984375,0.07457213364243508,-0.036190672799944874,-0.06821304693929851
1761506850601869300,2.030869384765625,-0.027221768924593923,-0.015843611950427293,-0.10062595476619898
1761506850611841500,2.040841552734375,-0.10456278275847435,-0.0020655542276799676,-0.11804715476427227
1761506850621813200,2.050813232421875,-0.11823825688958167,0.0005706394948065281,-0.09758625827673822
1761506850631785500,2.060785400390625,-0.08852993184626103,-0.005469079060852527,-0.06320000455025583
1761506850641756400,2.07075634765625,-0.03277121974527836,-0.0203485221542418,-0.0259409718664363
1761506850651728400,2.080728271484375,0.01929506757855415,-0.022952786368504164,-0.020979148207977413
1761506850661700600,2.09070068359375,0.030693244427442548,-0.042302872069925064,-0.02870802542697638
1761506850671672300,2.10067236328125,-0.00042377837002277374,-0.030129180803894994,-0.05607972421627491
1761506850681643500,2.1106435546875,-0.05853226846754551,-0.023275880843028424,-0.09233513281550258
1761506850691615200,2.120615234375,-0.09814940858483313,-0.015389000050723552,-0.11858717992510646
1761506850701587500,2.13058740234375,-0.12644669778645037,-0.020147446624189613,-0.14919238074291497
1761506850711559200,2.14055908203125,-0.12550152589082716,-0.023932737316563726,-0.11064878814127295
1761506850721532200,2.1505322265625,-0.1089127946615219,-0.0013212386664003134,-0.050829621668346224
1761506850731503400,2.16050341796875,-0.060035658767819404,-0.003765416948124766,0.0018669994482770561
1761506850741475000,2.17047509765625,0.010538929671049118,-0.012729863844066857,0.04084679151009768
1761506850751447300,2.180447265625,0.08643266730606555,-0.03564947859533131,0.04785243248846382
1761506850761419000,2.1904189453125,0.10556816040873528,-0.025477190279588103,0.050214887303486465
1761506850771390200,2.20039013671875,0.07418693371713161,0.0013755992021411657,0.02982555821482092
1761506850781362200,2.210362060546875,-0.017679449075460433,0.04875767423249781,0.011798647408559917
1761506850791334100,2.220334228515625,-0.1115969191789627,0.0866685949537903,-0.0170304471148178
1761506850801306400,2.230306396484375,-0.11225216821730136,0.10339921887181698,0.000611556027084589
1761506850811277000,2.240277099609375,-0.03804360719025135,0.0850821294799447,0.04225400969320908
1761506850821249300,2.250249267578125,0.07686170588433743,0.06126322780139744,0.09092082730447873
1761506850831221000,2.260220947265625,0.16519933002889156,0.056750718813017006,0.1088678412749432
1761506850841193200,2.270193115234375,0.2273153022021055,0.033865079396590586,0.12061251174025236
1761506850851165200,2.280165283203125,0.23873276827335357,0.019719649666175246,0.09004616336179896
1761506850861136100,2.29013623046875,0.20013152720034122,0.027431100826337932,0.052830805422924454
1761506850871108000,2.300108154296875,0.15774141523838042,0.029028160759434103,0.0348102878248319
1761506850881080000,2.310080078125,0.17246201450824736,0.02527626088000834,0.04451830136338249
1761506850891052300,2.32005224609375,0.17560323514342308,0.01892375004813075,0.06102421314744278
1761506850901023200,2.330023193359375,0.13454758665561675,0.01950702982880175,0.04075324974143878
1761506850910995200,2.3399951171875,0.05152502005398273,0.009706789695844053,-0.01203441065950319
1761506850920967200,2.34996728515625,0.012085574591159819,0.004100567186623811,-0.03380432565268129
1761506850930939100,2.359939208984375,-0.008873626807332039,-0.014883096355199812,-0.03757977080447599
1761506850940910000,2.36991015625,0.023626374781131745,-0.04460866479426622,-0.011370485124364494
1761506850950882300,2.37988232421875,0.06311842721402645,-0.06378229795023799,0.0006924209772609174
1761506850960854000,2.38985400390625,0.06425941394269466,-0.07816248628459871,-0.009775544083118438
1761506850970826200,2.399826171875,0.025101708030700682,-0.07618344129659235,-0.03727658660681918
1761506850980798200,2.409798095703125,-0.04053659304976463,-0.0612393354691565,-0.07638413323415442
1761506850990769200,2.41976904296875,-0.1271861179769039,-0.03962963427267968,-0.10281816758085041
1761506851000741000,2.4297412109375,-0.16353578073084354,-0.019991160083934662,-0.09948597268452868
1761506851010713000,2.439713134765625,-0.13430384102761744,-0.022808190266042947,-0.06826903317654505
1761506851020685300,2.449685302734375,-0.0654863253891468,-0.03749883278906345,-0.03201092116357759
1761506851030656000,2.459656005859375,-0.017944237491488456,-0.05293386393859982,-0.015388598191924393
1761506851040628200,2.469628173828125,0.01077449199259281,-0.03523030333518982,-0.0013521452613174914
1761506851050600000,2.479599853515625,0.026409868019819257,-0.013435747091099619,-0.011704265389684587
1761506851060572200,2.489572265625,0.030357144340872763,-0.002663812381774187,-0.018243695362098515
1761506851070543000,2.499543212890625,0.04367898272871971,0.008621186416223645,-0.021396113244723527
1761506851080515000,2.50951513671875,0.05542728818953037,0.008008461345359683,-0.0072757266240194435
1761506851090487300,2.5194873046875,0.03561491873860359,0.03255903829932213,0.006405866720620542
1761506851100459000,2.529458984375,-0.0009913491249084472,0.050223801262304184,0.0051656574011780315
1761506851110431200,2.53943115234375,-0.026502807000279426,0.06628200581148266,0.0075805365231819445
1761506851120402200,2.549402099609375,-0.034032617983222005,0.08761603187173604,0.013112579551339149
1761506851130374100,2.5593740234375,-0.0026063831061124802,0.09165288617238401,0.02759376230845228
1761506851140346000,2.56934619140625,0.04538812473416328,0.07031476845890283,0.02974487592773512
1761506851150318000,2.579318115234375,0.08053308787345886,0.04647562770992517,0.020059074220992623
1761506851160289000,2.5892890625,0.06526069993972777,0.04364413061104715,-0.003421060489863157
1761506851170261200,2.59926123046875,0.05529927789568901,0.04597966088652611,-0.026844861903600394
1761506851180233200,2.609233154296875,0.042433366581797596,0.057812868151813745,-0.020848251837305723
1761506851190205200,2.619205078125,0.04148118042349815,0.03881481075845659,-0.0016507628817111252
1761506851200176000,2.629176025390625,0.05194879842400551,0.027825580036640166,0.008664039177261293
1761506851210148000,2.639148193359375,0.03803308579623699,0.03327931539788842,-0.0017255451509729026
1761506851220120000,2.6491201171875,0.024800094735622405,0.01807692396044731,-0.011572930627595632
1761506851230092000,2.659092041015625,0.007709843724966049,0.0033976796142756935,-0.03615061478419229
1761506851240064300,2.669064208984375,0.0017208324432373045,-0.0008029138807207346,-0.03938395241592079
1761506851250035000,2.679034912109375,0.01707446891963482,-0.01545622006803751,-0.02238284099344164
1761506851260007200,2.689007080078125,0.05011749134361743,-0.03078216481991112,-0.005167045640666038
1761506851269979100,2.698979248046875,0.05373626636266708,-0.03610664777830243,-0.026598796454351394
1761506851279951000,2.708951171875,0.026502807000279426,-0.03674867200888693,-0.027507198269851506
1761506851289922300,2.71892236328125,-0.007866495591402053,-0.0314490312308073,-0.030268790203984826
1761506851299894000,2.72889404296875,-0.022000234884023664,-0.03203311472907662,-0.03181601964598521
1761506851309866200,2.7388662109375,-0.019213819035887716,-0.04135682339146733,-0.028277634653076526
1761506851319838000,2.748837890625,-0.006994973453879356,-0.04920834060944616,-0.0211134055795148
1761506851329809200,2.75880908203125,0.017619243320822715,-0.05033266846425831,-0.010232914195489138
1761506851339781000,2.768781005859375,-0.0034457565397024155,-0.035347938365489245,-0.022115732756163922
1761506851349753000,2.778753173828125,-0.03358721230328083,-0.005443213967233896,-0.016495372123736887
1761506851359725300,2.788725341796875,-0.06877776814997195,0.011397007805109024,-0.02529355907468125
1761506851369697000,2.798697021484375,-0.06995499523580073,0.006229834300279617,-0.024671426854655145
1761506851379668200,2.808668212890625,-0.043641573327779765,0.01456599323004484,-0.013597714453469962
1761506851389640200,2.81864013671875,0.019859131202101706,0.007747545386850833,0.007883647655602543
1761506851399612200,2.828612060546875,0.08307049739658832,-0.012618950815498828,0.03701811833372339
1761506851409584000,2.838584228515625,0.12092588853836059,-0.01311002226807177,0.050750766012165695
1761506851419555000,2.84855517578125,0.11449965488314628,0.0017918518528342246,0.05395085896141827
1761506851429527000,2.858527099609375,0.06080956574976444,0.02994659077860415,0.06227012155530974
1761506851439499300,2.868499267578125,-0.0329477453559637,0.07725567363798617,0.08167204704182222
1761506851449471200,2.87847119140625,-0.11163842023313045,0.10657185755856334,0.09335170771321281
1761506851459442200,2.888442138671875,-0.11764204456210135,0.09517170794829725,0.11169705508518964
1761506851469414100,2.8984140625,-0.0877028333723545,0.07597345180772244,0.10187379940282552
1761506851479386000,2.90838623046875,-0.09357377123236656,0.07382270351462066,0.07262898195171728
1761506851489358000,2.918358154296875,-0.08205167574286461,0.06624605771526694,0.042741263487190005
1761506851499330000,2.928330078125,-0.07253390581309795,0.07422901929318905,0.018017156597226858
1761506851509301200,2.93830126953125,-0.05200900417864322,0.07846804510243237,0.011031298031564801
1761506851519273000,2.94827294921875,-0.05719838951528072,0.06634308834895492,-0.0024176373346708716
1761506851529245200,2.9582451171875,-0.044507250246405596,0.05654350580312311,-0.027330252534057943
1761506851539217200,2.968217041015625,0.021260814693570135,0.018108415077254175,-0.03384714188110083
1761506851549188000,2.97818798828125,0.06949146937727928,-0.025233006260171532,-0.00609227072680369
1761506851559160300,2.988160400390625,0.12940204046070575,-0.02335617953762412,-0.015357472401298582
1761506851569132000,2.998132080078125,0.14223697211444378,-0.03290902078077197,-0.017569339764490724
1761506851579104300,3.008104248046875,0.16101532234251498,-0.034263431064411994,-0.030593090254906564
1761506851589075200,3.0180751953125,0.11089607743322849,-0.019978008341416716,-0.061145611037407066
1761506851599047200,3.028047119140625,0.05034487035870552,-0.0037681934271007775,-0.08006939761815592
1761506851609019100,3.03801904296875,0.023446342039108274,-0.009382672308012843,-0.08656073239883408
1761506851618991000,3.0479912109375,0.055070729836821555,-0.010843903966993093,-0.08322314894134178
1761506851628963300,3.05796337890625,0.07562836469709873,-0.027216142901405692,-0.05732059112284332
1761506851638934000,3.06793408203125,0.10372983906567096,-0.04057239501550793,-0.023658724414464084
1761506851648906200,3.07790625,0.0934323169350624,-0.036327085595950485,-0.016357351892534643
1761506851658878200,3.087878173828125,0.06298164909183979,-0.009882073197513818,-0.019660046699736266
1761506851668850200,3.09785009765625,-0.007269698742032051,0.011799889517575502,-0.026027207111474125
1761506851678821000,3.107821044921875,-0.0843435860723257,0.04149513588361442,-0.04558689870927483
1761506851688793000,3.11779296875,-0.10945172384381294,0.053488282950967546,-0.03419562652520835
1761506851698765000,3.12776513671875,-0.0825701466590166,0.04745017183050513,-0.015800905319862068
1761506851708737000,3.137737060546875,-0.04707213229835033,0.04205474252775311,0.010254011782445014
1761506851718708000,3.1477080078125,0.007643208229541778,0.013650047428905963,0.029699045758321878
1761506851728679400,3.157679443359375,0.029060674789547918,0.009383914417028426,0.030002449151687323
1761506851738651400,3.1676513671875,0.012091419810056686,0.018544541472196578,0.018299535468872634
1761506851748623600,3.17762353515625,0.01571720909178257,0.014354030979797244,0.022926117557287216
1761506851758595600,3.187595703125,0.022917349728941917,0.0054838382385671135,0.022750486995745448
1761506851768566500,3.19756640625,0.034120296266674996,-0.00984860931932926,0.02654023466752842
1761506851778538500,3.20753857421875,0.05452303282618522,-0.024818580240383744,0.035429497435409574
1761506851788510500,3.217510498046875,0.05259235702455044,-0.02379026010595262,0.03541705807894468
1761506851798482400,3.227482421875,0.03643149581849575,-0.021216610225662586,0.031774975249543785
1761506851808453600,3.23745361328125,0.010243746116757392,-0.014628756267949938,0.030701939190551638
1761506851818425300,3.24742529296875,-0.01277531042098999,-0.0013811521600931881,0.022807496146298945
1761506851828397600,3.2573974609375,-0.015407997012138366,-0.013629223836585878,0.007763564939890056
1761506851838369500,3.26736962890625,-0.005430792877078056,-0.013913812931627034,0.006959208020754158
1761506851848340500,3.277340576171875,-0.016952303844690323,-0.005030468447878957,0.014199845065083355
1761506851858312700,3.287312744140625,-0.038359249010682106,0.0009957330390810966,0.029442477181367575
1761506851868284400,3.297284423828125,-0.0855769272595644,0.011213540996983646,0.042351953642349685
1761506851878256600,3.307256591796875,-0.1155225681900978,0.019120368598774074,0.04178714110013097
1761506851888228400,3.317228271484375,-0.12431786906421184,0.016795505847781896,0.04238771907547489
1761506851898199600,3.327199462890625,-0.11433481971025466,0.03417188032343983,0.054824006800446655
1761506851908171500,3.337171630859375,-0.07791033815443515,0.0391267993170768,0.050995918145962056
1761506851918143500,3.3471435546875,-0.014964929419755935,0.03276172126457095,0.04478029503412544
1761506851928115700,3.35711572265625,0.010939911687374114,0.0348804669842124,0.01955786496689543
1761506851938086400,3.36708642578125,0.0026198271095752715,0.03222162303850055,-0.014304273553937673
1761506851948058600,3.37705859375,-0.0069219082176685326,0.049266135211288926,-0.03869038066118955
1761506851958030300,3.3870302734375,-0.011245616635680198,0.05997698738314211,-0.04450686665391549
1761506851968002600,3.39700244140625,0.003544540739059448,0.05313179766349494,-0.032606037512514736
1761506851977973500,3.406973388671875,0.004206219518184662,0.050049686804413795,-0.03604826865456998
1761506851987945500,3.416945556640625,0.01442483119368553,0.052415173826739186,-0.052691780544724315
1761506851997917400,3.42691748046875,0.03737491414844989,0.039795857685059305,-0.07150268133552745
1761506852007889400,3.436889404296875,0.05486264004409313,0.03269165170304477,-0.07861929014138877
1761506852017861600,3.446861572265625,0.07034428681433201,0.038421281396225096,-0.09540705107413232
1761506852027832600,3.45683251953125,0.08441022156774997,0.041185996869206425,-0.10505231984108686
1761506852037804500,3.466804443359375,0.08164894016087054,0.032817981496453284,-0.10624812376322224
1761506852047776500,3.476776611328125,0.0799690242499113,0.02476611940078437,-0.10556991397440432
1761506852057748500,3.48674853515625,0.057631520235538476,0.030633623194694516,-0.111335710959509
1761506852067719400,3.496719482421875,0.04336100282073021,0.03596322071962058,-0.09926025590356438
1761506852077691600,3.506691650390625,0.03488309733271599,0.035953356912732125,-0.08960947071127592
1761506852087663400,3.516663330078125,0.01634498560130596,0.032243542609363796,-0.07247435764558613
1761506852097635600,3.526635498046875,0.020369418811798094,0.04151961273774504,-0.047079329224117096
1761506852107606500,3.5366064453125,0.02868716530203819,0.04207337416298687,-0.028441191184334455
1761506852117578500,3.54657861328125,0.017533903124928474,0.03849398130625486,-0.0293197641171515
1761506852127550700,3.55655078125,0.012959434816241264,0.03698613402657211,-0.02601379964062944
1761506852137522400,3.5665224609375,0.01979015761911869,0.04173318242318928,-0.040190501292143015
1761506852147494700,3.57649462890625,0.04482406111061573,0.03719305477552116,-0.03449338562907651
1761506852157465300,3.58646533203125,0.10814999359548091,0.01575206120945513,-0.009591985943447798
1761506852167437600,3.5964375,0.13389701379239557,0.00566818182952702,0.0006015460897237062
1761506852177409500,3.606409423828125,0.11694470994770526,-0.0011017506968230009,0.015951894630491733
1761506852187381500,3.616381591796875,0.049455228042602536,-0.00966382733695209,0.0028984979204833504
1761506852197352400,3.6263525390625,-0.03334697380661964,0.009555909983068704,-0.004500051365606487
1761506852207324400,3.636324462890625,-0.10621522614061832,0.031940979466214776,-0.0037416159474290907
1761506852217296600,3.646296630859375,-0.14419278235733507,0.03786518188342452,0.023425975104514506
1761506852227268400,3.656268310546875,-0.12079612467885016,0.023410613138601183,0.03797236858494579
1761506852237239600,3.666239501953125,-0.08498129945397377,0.010772884557396173,0.05281359855979681
1761506852247211500,3.67621142578125,-0.03787818749547005,-0.0014577245276421308,0.07511906346809119
1761506852257183500,3.68618359375,-0.010406243202090262,-0.010784648060426115,0.07090340026812628
1761506852267155500,3.696155517578125,0.002155132207274437,-0.003134937024861574,0.05375884352065623
1761506852277127400,3.70612744140625,-0.004931026661396026,-0.0012725041538476944,0.03411306280829012
1761506852287098400,3.716098388671875,-0.0035486323922872542,-0.005441971858218312,0.025010942741017787
1761506852297070600,3.726070556640625,0.004225508740544319,-0.0016581424705684185,0.012094378952123223
1761506852307042600,3.73604248046875,-0.0012865326792001724,-0.0007790946137160062,0.017450736619811506
1761506852317014500,3.7460146484375,-0.025080665242671964,0.002709770415350795,0.022100115061923862
1761506852326985500,3.7559853515625,-0.039945056897401805,0.014694222719594835,0.04609910428142175
1761506852336957400,3.76595751953125,-0.061220484638214105,0.02908390953466296,0.034145266311150044
1761506852346929700,3.7759296875,-0.07785363953113555,0.03734809920676052,0.03461679281303659
1761506852356901400,3.7859013671875,-0.060174190455675125,0.025052242865785956,0.03975916067017242
1761506852366872600,3.79587255859375,-0.023956045126914977,0.019221637016162276,0.029439846832863985
1761506852376844300,3.80584423828125,0.041619127589464185,-0.01849514937251806,0.024157266787439582
1761506852386816500,3.81581640625,0.08756488620638847,-0.029396482615172862,0.025180983811989424
1761506852396788500,3.82578857421875,0.10312778151929378,-0.02865698935948312,0.02070787525223568
1761506852406760400,3.835760498046875,0.07872165453732013,-0.016005305318161845,0.013412914204783737
1761506852416731600,3.845731689453125,0.003271569016575813,0.009527925997599959,-0.0018625790014863014
1761506852426703400,3.855703369140625,-0.05419803865551948,0.016756562076881528,-0.012500091942492872
1761506852436675600,3.865675537109375,-0.09074819241762161,0.029414602793753145,-0.027332554088998585
1761506852446647300,3.875647216796875,-0.09263210646808147,0.021940905912220476,-0.02707929171398282
1761506852456618500,3.885618408203125,-0.01979366475045681,-0.007461568052321672,-0.02796798418201506
1761506852466590500,3.895590576171875,0.07183247954547405,-0.024503742137551306,-0.028268720694258807
1761506852476562400,3.9055625,0.12802023071348667,-0.03825681154951453,-0.03154092903165147
1761506852486534700,3.91553466796875,0.17041969502568244,-0.052286944337189195,-0.0381441997542046
1761506852496506400,3.92550634765625,0.1972697080284357,-0.055820013834163545,-0.032778434937354176
1761506852506477600,3.9354775390625,0.15188509042561055,-0.03387311657257378,-0.025600633996166286
1761506852516449500,3.945449462890625,0.07471241889595985,0.005579553698003292,-0.004290938659571111
1761506852526421500,3.95542138671875,0.012363222488760947,0.012723141842335462,-0.012336992068961262
1761506852536393500,3.9653935546875,-0.032116555228829384,0.003364946388453245,-0.005871504115592688
1761506852546364700,3.97536474609375,-0.07824702276289462,0.024881270213052628,0.00746007021497935
1761506852556336400,3.98533642578125,-0.12516425676047802,0.04840915305577218,0.027033991267532108
1761506852566308600,3.99530859375,-0.1392424664735794,0.07203465105406939,0.0477301212830469
1761506852576280600,4.005280517578125,-0.13498831616044044,0.07406067698895931,0.03393474709931761
1761506852586251500,4.01525146484375,-0.13214578621089457,0.05794190135896206,0.00817357051288709
1761506852596223500,4.025223388671875,-0.1110433769494295,0.03505823470391333,-0.01132076423112303
1761506852606195500,4.035195556640625,-0.07579553795754909,0.03136127988211811,-0.019029968635272232
1761506852616167400,4.04516748046875,-0.023242343899607658,0.03695873456299305,-0.008029997323732822
1761506852626138400,4.055138427734375,0.03999064960479736,0.005312938651069999,0.0009128587949089706
1761506852636110600,4.065110595703125,0.08547112879753112,-0.009883534502238035,-0.023608163271006195
1761506852646082300,4.075082275390625,0.08334872981607913,-0.030079423378035423,-0.04963423787131905
1761506852656054500,4.085054443359375,0.06107143155634403,-0.03125540835484862,-0.06732667429251596
1761506852666026500,4.095026611328125,0.0254103355884552,-0.016316197898238897,-0.06324190746322274
1761506852675997400,4.10499755859375,0.0019090484917163848,-0.0048149990662932395,-0.0292894055115059
1761506852685969700,4.1149697265625,0.008073416340351105,-0.0032969226535409686,-0.01102298686094582
1761506852695941400,4.12494140625,0.025561726757884023,-0.0195478732958436,-0.007658789391163736
1761506852705913600,4.13491357421875,0.01895838297009468,-0.02924085366204381,-0.004775708235520869
1761506852715884500,4.144884521484375,-0.013342296653985977,-0.004707300908118486,-0.026111981051787733
1761506852725857000,4.15485693359375,-0.033318332234025,0.008101984847709536,-0.026235205572657287
1761506852735829000,4.1648291015625,-0.03857201497852802,0.02015862560532987,-0.03274069674285129
1761506852745801000,4.174801025390625,-0.028573183533549307,0.027863793155178427,-0.03366488064937293
1761506852755772200,4.184772216796875,0.0012923778980970383,0.028971023744717238,-0.025863632313907144
1761506852765743900,4.194743896484375,0.050017538100481033,0.023632658391445873,-0.017418807111587373
1761506852775716000,4.204716064453125,0.10262333912849425,-0.00039214112274348734,0.0019981332809664307
1761506852785687800,4.214687744140625,0.12584230215251446,-0.007504530411213636,0.02416049992414191
1761506852795660000,4.224659912109375,0.11130582727789878,0.00038512686006724834,0.0387797759776935
1761506852805631000,4.234630859375,0.1019330187767744,0.02428220834136009,0.022058833203464745
1761506852815603000,4.24460302734375,0.041460137635469435,0.05057853298410773,0.010616598017141222
1761506852825575200,4.2545751953125,0.01647358041703701,0.080998586493358,0.0008965835135430097
1761506852835547000,4.264546875,0.01839198125898838,0.07499547362104057,0.01141764873433858
1761506852845518000,4.27451806640625,0.003953706061840057,0.05464366353116929,0.009580806962307542
1761506852855490000,4.284489990234375,0.007710428246855736,0.04534209363535046,0.004521696941833943
1761506852865462000,4.2944619140625,0.022567221117019653,0.033181919438019396,-0.00976314125927165
1761506852875434000,4.30443408203125,0.04957388598620891,0.023466581109538674,-0.015246468041185289
1761506852885405200,4.3144052734375,0.06958966905474662,0.015376140569150447,-0.020000877760350703
1761506852895377000,4.324376953125,0.04716331771314144,0.015490633794292807,-0.014570523274689912
1761506852905349000,4.33434912109375,0.037165070790052414,0.014017784762755036,-0.04411045121485367
1761506852915321000,4.344321044921875,0.04995031808316707,0.002518047235533595,-0.06315214682053774
1761506852925293000,4.35429296875,0.07441372821033,-0.020835721149295567,-0.07077009274465963
1761506852935264000,4.364263916015625,0.09290858532190323,-0.03208075326308608,-0.08642293136334046
1761506852945236000,4.374236083984375,0.051253801897168154,-0.038055005367100235,-0.0823281363303773
1761506852955208000,4.3842080078125,-0.003767828100919723,-0.02324183244295418,-0.09820928554590791
1761506852965180000,4.394179931640625,-0.05105974062979221,0.006806172883510589,-0.10127530378671362
1761506852975151000,4.404151123046875,-0.07986673291921616,0.043318844179436565,-0.08436689388267696
1761506852985122800,4.414122802734375,-0.06411854416728019,0.040646117838844656,-0.05429943493707105
1761506852995095000,4.424094970703125,-0.02109773308634758,0.023155177072808144,-0.03287723740302026
1761506853005067000,4.43406689453125,0.00032382512688636776,0.005469152126088738,-0.014106686888914555
1761506853015038000,4.444037841796875,0.015235563054680823,-0.0022160686142742633,-0.017900142621435224
1761506853025010200,4.45401025390625,-0.004205050474405289,0.021492285361886024,-0.01767424317738041
1761506853034982000,4.46398193359375,-0.024969021561741828,0.03786006731688976,-0.0025695034281350672
1761506853044954000,4.4739541015625,-0.014940379500389098,0.04281856650710106,0.014291651534382253
1761506853054925800,4.48392578125,-0.013245266020298003,0.05178863942623138,0.033509160364698615
1761506853064897000,4.49389697265625,-0.012283727511763572,0.037573067069053646,0.06072957758242264
1761506853074869000,4.503868896484375,0.01181844808757305,0.03113623895458877,0.07213895167876035
1761506853084841000,4.513841064453125,0.03259118700325489,0.02785188352167606,0.07852315455684437
1761506853094813200,4.523813232421875,0.054634091985225675,0.01861066551096737,0.08890855590030551
1761506853104784100,4.5337841796875,0.06587795505523682,0.006748378281667828,0.09388449941566214
1761506853114756000,4.543756103515625,0.0666150371581316,0.006561039016023278,0.06923088221233338
1761506853124728000,4.55372802734375,0.06683423286676407,0.00007942191176116467,0.058045964521635324
1761506853134700000,4.563699951171875,0.04822597850859165,-0.004839475920423865,0.05502869905969128
1761506853144671000,4.5736708984375,-0.013849077132344245,0.006577551759406924,0.05816480512833223
1761506853154643000,4.583642822265625,-0.04235445612668991,0.010368541540205478,0.055770000679977234
1761506853164615000,4.593614990234375,-0.03834346691966056,0.008167451299354433,0.06562153260875493
1761506853174587100,4.603587158203125,-0.02523380997776985,0.001901157446205616,0.06771896154573187
1761506853184559000,4.61355908203125,0.0007727379381656646,0.005466229516640306,0.05249240378141403
1761506853194530000,4.623530029296875,-0.02214110465943813,0.012720730689540504,0.021447752100415527
1761506853204502000,4.633501953125,-0.0674035571873188,0.015582111470028756,-0.001180642885621637
1761506853214474000,4.643473876953125,-0.09294950185418129,0.007524331090226769,-0.037435412164032456
1761506853224446000,4.653446044921875,-0.10288578945696353,0.0009370616544038057,-0.05615821454627439
1761506853234417000,4.6634169921875,-0.072300681579113,-0.007017842872813344,-0.0609939276070334
1761506853244389000,4.67338916015625,-0.01924012252092361,-0.011873100884258747,-0.05628372235577553
1761506853254360800,4.68336083984375,0.07254442720711231,-0.02163848889954388,-0.02576820911541581
1761506853264333000,4.6933330078125,0.13458441153466702,-0.022829233054071665,-0.023897556405328212
1761506853274304000,4.703303955078125,0.12647124770581722,-0.015567790683731436,-0.03912866248060018
1761506853284276000,4.71327587890625,0.0738520026743412,0.00047762744911015033,-0.05871642939541489
1761506853294248200,4.723248291015625,0.007897475251555442,0.015688056062534452,-0.06796418674476444
1761506853304220000,4.733219970703125,-0.05722235491275787,0.023847543251141905,-0.06000559242311865
1761506853314192100,4.743192138671875,-0.09927344417870045,0.020804595358669756,-0.05575162477307021
1761506853324163000,4.7531630859375,-0.11062193666696547,0.018776231336221097,-0.03559646976646036
1761506853334135000,4.763135009765625,-0.05078501534163952,0.007650880079343915,-0.0024000468790531158
1761506853344107000,4.77310693359375,0.017127660411596298,-0.0026824440170079467,0.030846955418121068
1761506853354079000,4.783078857421875,0.04752455224096775,0.0012472966473549604,0.04869576971111819
1761506853364050000,4.7930498046875,0.056559507089853286,0.012045754037424921,0.05447349459603428
1761506853374022000,4.80302197265625,0.07435469149947166,0.006710457424074411,0.061908302505593746
1761506853383994000,4.812994140625,0.07397592131495476,0.01104775597602129,0.07582828944968059
1761506853393966000,4.822966064453125,0.08653378959298133,0.024967852517962453,0.10503061946593224
1761506853403937000,4.83293701171875,0.08599661397635937,0.023305910655111072,0.10704044318469241
1761506853413909000,4.842908935546875,0.04517886589765548,0.03567315173186362,0.1193924866923131
1761506853423881000,4.852880859375,-0.02775836001932621,0.06312251886725426,0.10972270453860983
1761506853433853000,4.86285302734375,-0.09528525132536887,0.08731018079295753,0.09983469479065388
1761506853443824000,4.87282421875,-0.09841478152275085,0.0797657567627728,0.08552316951202228
1761506853453795800,4.8827958984375,-0.07887713735997677,0.07539645563736558,0.07674498416949063
1761506853463768000,4.89276806640625,-0.05850947211384773,0.05791537867821753,0.07181635039458051
1761506853473740000,4.902739990234375,-0.02187280911207199,0.04750628593191504,0.08340878944024444
1761506853483712000,4.9127119140625,0.04738894316256046,0.029827567508816717,0.08701063159080222
1761506853493683200,4.92268310546875,0.08255378004610538,0.003974821915104985,0.07486910729501396
1761506853503655000,4.932655029296875,0.09605682021975517,-0.010774857318773865,0.05281266697803512
1761506853513627100,4.942627197265625,0.06499357343614101,-0.0050797874823212625,0.024464889698196202
1761506853523598800,4.952598876953125,0.037785248515009875,0.0009065203856676817,-0.0036517639731988307
1761506853533570000,4.962570068359375,0.02434241409599781,0.006982113972306251,-0.016466876681614666
1761506853543542000,4.9725419921875,0.055955111455917354,-0.013133330078423022,-0.014511267368122934
1761506853553514000,4.982513916015625,0.0851145704448223,-0.03825454652719199,-0.027735271404683588
1761506853563486200,4.992486328125,0.08775719390809536,-0.058548927341401574,-0.05033827622113749
1761506853573458000,5.0024580078125,0.024276363122463226,-0.06555427605882287,-0.08473269498776644
1761506853583429000,5.01242919921875,-0.073699442461133,-0.03984356928430497,-0.12019145505027845
1761506853593400800,5.02240087890625,-0.15480360822081565,-0.0021464374441653488,-0.12417710888665169
1761506853603373000,5.032373046875,-0.16962006908059118,-0.003171323512494564,-0.1057023629813455
1761506853613345000,5.042344970703125,-0.16235270842611788,-0.005169730788096785,-0.06691328945234418
1761506853623316000,5.05231591796875,-0.12099895377457141,-0.023691914298012852,-0.029721695981547235
1761506853633288000,5.062287841796875,-0.09232172534465789,-0.03520838376432657,-0.0038565110313706096
1761506853643260000,5.072260009765625,-0.0677303049236536,-0.014244286995008588,0.009973623938485979
1761506853653232000,5.082232177734375,-0.0288742123067379,-0.012055983170494437,0.01793906812602654
1761506853663203000,5.092203125,0.028487843337655066,-0.004246697659045458,0.0033024025462567805
1761506853673175000,5.102175048828125,0.07593757677674293,-0.0000478577297180891,0.0036706148041412232
1761506853683147000,5.11214697265625,0.12454992425441741,-0.014287541614845394,0.03359956032820046
1761506853693119000,5.122118896484375,0.143172791659832,-0.0022419337078928947,0.06631329599888995
1761506853703090000,5.13208984375,0.11570961519479751,0.009278700476884841,0.09822780758328735
1761506853713062100,5.142062255859375,0.10060323147773742,-0.005160670698806643,0.10956104770349338
1761506853723033600,5.15203369140625,0.06791150670945643,-0.005910831478983163,0.1158938491879031
1761506853733005600,5.162005615234375,0.07499123583734035,-0.005903305759653449,0.12758817770546302
1761506853742977500,5.1719775390625,0.10126666382253169,-0.008117840003967284,0.15549637625794857
1761506853752948500,5.181948486328125,0.1261357321411371,-0.004857230772823095,0.18121217933269215
1761506853762920700,5.191920654296875,0.11741758815646171,-0.00452295731715858,0.1956120222155936
1761506853772892700,5.201892578125,0.0848404296785593,-0.004293897801637649,0.17040402253251521
1761506853782864600,5.21186474609375,0.05156535206437111,-0.005065539761260151,0.16573900812985373
1761506853792835800,5.2218359375,0.02080605666339397,0.0061502662580460304,0.1905329105867073
1761506853802807600,5.2318076171875,0.017409399962425232,0.008325418340042233,0.19998598124980926
1761506853812779800,5.24177978515625,0.00992401264309883,0.013216405251994728,0.21030078330878166
1761506853822751500,5.25175146484375,0.005053776258230209,0.008602627846226096,0.2097059774870984
1761506853832722700,5.26172265625,-0.019945055919885633,0.020522417416423556,0.20478154496327042
1761506853842694400,5.2716943359375,-0.06699497638642787,0.024979689086228607,0.19800324646737424
1761506853852666600,5.28166650390625,-0.10315876117944717,0.04660056926384568,0.17615873186802491
1761506853862638600,5.291638671875,-0.12302841377556323,0.05377009556703269,0.15658141328198835
1761506853872610600,5.301610595703125,-0.096081370139122,0.05106682795770466,0.15739093956658615
1761506853882581800,5.311581787109375,-0.07260054130852223,0.04564451064802706,0.15150325150117278
1761506853892553500,5.321553466796875,-0.05707505539655685,0.04133453849442303,0.15215150454314424
1761506853902525700,5.331525634765625,-0.031874563166499136,0.035694267585128545,0.11913452987587078
1761506853912497400,5.341497314453125,-0.0013455693900585174,0.0343592926543206,0.0856549426655285
1761506853922468600,5.351468505859375,0.014202712875604628,0.027495398234203456,0.04185629734620452
1761506853932440600,5.361440673828125,0.03744739486277103,0.0054143531989306205,0.025855248078051955
1761506853942412500,5.37141259765625,0.02037058785557747,0.034077772299200296,0.01535752720022574
1761506853952384800,5.381384765625,0.012974047863483428,0.048961599306762214,0.005107734935171902
1761506853962355700,5.391355712890625,0.04579553649127483,0.05862206564284861,0.007309281833749264
1761506853972327700,5.40132763671875,0.042139352071285247,0.05852730003148317,0.017377945378236472
1761506853982299600,5.411299560546875,0.02945873419642448,0.06555193797126412,0.038885008184146135
1761506853992271600,5.421271728515625,0.014735796838998793,0.06680822164267301,0.02966834009280428
1761506854002243600,5.43124365234375,0.03748188165426254,0.058304304930567735,0.022935890032630413
1761506854012214800,5.44121484375,0.046695700201392173,0.04796754676811397,0.03208252509506419
1761506854022186500,5.4511865234375,0.04509177213609218,0.04482866422049701,0.05726993864784017
1761506854032158700,5.46115869140625,0.05805237599611282,0.056376405607908964,0.0397019323239103
1761506854042130700,5.471130615234375,0.05181494291126728,0.042472456483170384,0.02084788651112467
1761506854052101600,5.4811015625,0.01738601908683777,0.0390511767975986,-0.010249627868272363
1761506854062073600,5.491073486328125,0.0015939911931753157,0.03240487065091729,-0.04184930134983733
1761506854072045600,5.501045654296875,0.000671031129360199,0.02910093373470008,-0.06256039147246628
1761506854082017500,5.511017578125,-0.002364975565671921,0.018157807176932692,-0.046961657661199564
1761506854091988500,5.520988525390625,-0.026872809356451033,0.0046267099525779485,-0.03992089057052508
1761506854101960700,5.530960693359375,-0.07199673019647598,0.008205591352656484,-0.053170832765940576
1761506854111932700,5.5409326171875,-0.0967611690968275,0.025364596750587224,-0.055850956961698825
1761506854121904600,5.550904541015625,-0.12839607828855515,0.02971680061072111,-0.06752820648029446
1761506854131876600,5.560876708984375,-0.1259919397562742,0.023020956233888862,-0.07668052236484363
1761506854141847600,5.57084765625,-0.08334113103151321,0.01928176970556378,-0.08431887175617739
1761506854151819800,5.58081982421875,-0.03358487421572208,0.021587562429904936,-0.08774871834069489
1761506854161791500,5.59079150390625,0.010092354947328568,0.015687471540644763,-0.10561576241012662
1761506854171763700,5.600763671875,0.00670329703092575,0.00016330080293118954,-0.12801876940876245
1761506854181734700,5.610734619140625,-0.017635609933733937,0.005734963455423713,-0.14977063728859646
1761506854191706600,5.62070654296875,-0.04111877685189247,0.025206410514190793,-0.15663992026988416
1761506854201678800,5.630678955078125,-0.03728431325554848,0.049995983855798835,-0.1641200103595853
1761506854211650600,5.640650634765625,-0.038439328509569166,0.058876624925807114,-0.16328060039337725
1761506854221621800,5.650621826171875,-0.026933599632978436,0.0551851499967277,-0.17166878177132455
1761506854231593700,5.66059375,-0.005433130964636802,0.03710713005773723,-0.19251849491335452
1761506854241565700,5.670565673828125,0.011788052949309348,0.043328342660143966,-0.19055959766423328
1761506854251537700,5.68053759765625,0.024762100812792776,0.06132189918607473,-0.18663077031532302
1761506854261509600,5.690509521484375,0.03676642686128616,0.06998699780926108,-0.17251840260429308
1761506854271480600,5.70048046875,0.03564589839875698,0.07901559598259628,-0.1795030373272486
1761506854281452500,5.71045263671875,0.010428455033898353,0.08432495443709194,-0.18262053002696482
1761506854291424800,5.7204248046875,0.01269990709722042,0.08876680934205651,-0.19086248960094526
1761506854301396700,5.730396728515625,0.02855506335496902,0.0890516906980425,-0.19119139276174826
1761506854311367700,5.74036767578125,0.05787818847298622,0.0840823047876358,-0.19862919634599238
1761506854321339600,5.750339599609375,0.07317571084797382,0.07571092841401696,-0.190416718594823
1761506854331311600,5.7603115234375,0.07174070960879325,0.08384287000857293,-0.18927112875627353
1761506854341283600,5.77028369140625,0.0522410593688488,0.095249595490098,-0.20670549876317382
1761506854351254800,5.7802548828125,0.025116905599832533,0.08827873356416821,-0.20270165168298407
1761506854361226500,5.7902265625,0.015010522127151489,0.09320296515859663,-0.21165157686322927
1761506854371198700,5.80019873046875,0.006494038194417953,0.08326857725195586,-0.20180415485398842
1761506854381170700,5.810170654296875,0.043270401927828786,0.058466509754955764,-0.19543798082293942
1761506854391142700,5.820142578125,0.0616693974494934,0.046719884794577955,-0.18477290402157232
1761506854401113900,5.83011376953125,0.08835515980124473,0.0343592926543206,-0.1665193996515125
1761506854411085600,5.84008544921875,0.08444763096868992,0.018353402814269063,-0.15409392558149992
1761506854421057800,5.850057861328125,0.0795551827520132,0.005640490105003118,-0.17088857291275633
1761506854431029500,5.860029541015625,0.023228899896144864,0.007880085725337266,-0.17721960256518796
1761506854441000700,5.870000732421875,-0.02642272750139236,0.009066299835219978,-0.15616254854910075
1761506854450972700,5.87997265625,-0.03153963212370872,-0.007727963903546333,-0.12366298535205424
1761506854460944600,5.889944580078125,-0.004040799823403358,-0.022791093000769615,-0.09286233502738177
1761506854470916900,5.899916748046875,0.0306692790299654,-0.056084509989246724,-0.07644309687977656
1761506854480887600,5.909887451171875,0.060279404395818706,-0.07541128788031637,-0.07132199100637808
1761506854490859800,5.91985986328125,0.06269640240967274,-0.08108516879826784,-0.07751615120507777
1761506854500831500,5.92983154296875,0.054573886230587954,-0.10332206198237835,-0.07157613016422837
1761506854510803700,5.9398037109375,0.02588262927532196,-0.09004114012680947,-0.0666862940297462
1761506854520774700,5.949774658203125,-0.016867548170685767,-0.06556896217130125,-0.05022703439900651
1761506854530746600,5.95974658203125,-0.05742693757414818,-0.053603506828472015,-0.03957615051977336
1761506854540718600,5.969718505859375,-0.0694464611917734,-0.04851173664741218,-0.016220920830219983
1761506854550690600,5.979690673828125,-0.08238952939510345,-0.0532807046148926,0.008513360393885522
1761506854560662800,5.989662841796875,-0.09490297400951385,-0.038149551782757044,0.03170267719831318
1761506854570633700,5.9996337890625,-0.10982231072187423,-0.005603007638826966,0.03637149099325761
1761506854580605700,6.009605712890625,-0.12374854474365711,0.024419424854964015,0.03838858470302075
1761506854590577700,6.01957763671875,-0.09386486313343048,0.033254107891395684,0.0400661807927303
1761506854600549600,6.029549560546875,-0.05118365927040577,0.04208287264369428,0.03732190531957894
1761506854610520600,6.0395205078125,-0.004555179086327552,0.04223674803115427,0.036767212312575424
1761506854620492800,6.049492919921875,0.050690907317399975,0.01441409060396254,0.05784782986734062
1761506854630464500,6.059464599609375,0.10011749378740786,0.008326806579530239,0.06836421891301869
1761506854640436700,6.069436767578125,0.11141630191504955,0.005954378359764814,0.06293863193402066
1761506854650407700,6.07940771484375,0.10243220047056674,0.00039053368754684924,0.0315715433656238
1761506854660379600,6.089379638671875,0.09536123917102814,0.006948650094121694,0.01569176412327215
1761506854670351600,6.0993515625,0.0928396117389202,0.0179722214769572,-0.015637988109420985
1761506854680323600,6.109323486328125,0.04824877486228943,0.02293364327661693,-0.03363428458170965
1761506854690295800,6.1192958984375,0.025602058768272398,0.003326879400387406,-0.046102538347523654
1761506854700266500,6.1292666015625,0.021014146456122398,-0.008306348313391209,-0.044265532178711146
1761506854710238700,6.13923876953125,0.024632336953282354,-0.023352891601994632,-0.06096937768766656
1761506854720210400,6.14921044921875,0.03414718427360058,-0.036818010918051,-0.04796486162068322
1761506854730182700,6.1591826171875,0.03927753289937973,-0.05014416015483439,-0.022522833986021576
1761506854740153900,6.16915380859375,0.06741290953755379,-0.03926913039721548,-0.006548526594322175
1761506854750125600,6.17912548828125,0.06284253288209438,-0.0361949105836451,0.016821370941400526
1761506854760097800,6.189097900390625,0.03924655323922634,-0.036030513802170754,0.022143168752361088
1761506854770069800,6.19906982421875,0.024376316365599632,-0.032009660788252944,0.03228820373499766
1761506854780040700,6.209040771484375,0.012542086187005043,-0.0400813966281712,0.05520566306179389
1761506854790013000,6.219012939453125,0.004963175365328788,-0.045164033654704686,0.06944784943126142
1761506854799984600,6.228984619140625,0.008622866916656494,-0.03907660349979997,0.08842387765590101
1761506854809956900,6.238956787109375,-0.0018593641310930252,-0.028976649767905472,0.0876768038819544
1761506854819928600,6.248928466796875,-0.00029752164185047145,-0.028717048983648418,0.07903629171075299
1761506854829899800,6.258899658203125,0.0324859730631113,-0.05816080480664968,0.08331999691193923
1761506854839871700,6.268871826171875,0.05828384666442871,-0.06043028410859406,0.08238346498049795
1761506854849843700,6.27884375,0.015682137778401373,-0.06313486689217389,0.06708809802997857
1761506854859816000,6.28881591796875,-0.04406827430725097,-0.0511980531219393,0.06814895046083257
1761506854869786600,6.29878662109375,-0.08550678463280201,-0.03465805640518665,0.054106999371200795
1761506854879758800,6.3087587890625,-0.10504559783935546,-0.024501184854283927,0.03464221951523796
1761506854889730800,6.318730712890625,-0.09949439345300197,-0.016976269242167472,0.020209497276041655
1761506854899702800,6.328702880859375,-0.07196165888309479,-0.012357304204627871,0.015772117616795003
1761506854909673700,6.338673828125,-0.009511924710869788,-0.02516987789608538,0.019182912440970538
1761506854919645700,6.348645751953125,0.03577624678015709,-0.024140754044055936,0.01948584091030061
1761506854929617700,6.35861767578125,0.04578969127237797,-0.01829056671112776,-0.00007439867677167058
1761506854939589600,6.368589599609375,0.04171732726693153,-0.008888166789337992,-0.012360190281458199
1761506854949561900,6.378561767578125,0.023203765454888343,0.002461933134123683,-0.02504566699452698
1761506854959532800,6.38853271484375,-0.0018266309052705765,0.014116495896875858,-0.029754484006296843
1761506854969504800,6.3985048828125,-0.008180968368053435,0.016144567658379672,-0.016626926081534474
1761506854979476700,6.408476806640625,0.0016448445975780486,0.01397292270772159,-0.018858155732322482
1761506854989448700,6.41844873046875,0.01379705468416214,0.0011122720908373594,-0.021999449432734398
1761506854999419600,6.428419677734375,0.029169395861029623,0.0005101414792239666,-0.03308958324575797
1761506855009391900,6.438391845703125,0.04397942698001861,0.0047267362609505655,-0.040440694927237925
1761506855019363800,6.44836376953125,0.04220189591348171,0.001571560165658593,-0.029317663491610437
1761506855029335800,6.458335693359375,0.05656535230875015,-0.00392645272873342,-0.045053084093518554
1761506855039306800,6.468306640625,0.08070026113390923,-0.012213219558820128,-0.033284977953694755
1761506855049278700,6.47827880859375,0.07359773565232754,-0.03096029786579311,-0.034941823516320435
1761506855059251000,6.4882509765625,0.03491933768987655,-0.022617197738587856,-0.05804413789073005
1761506855069222700,6.49822265625,0.008957797959446907,-0.023448168670013547,-0.049422951474506406
1761506855079195000,6.50819482421875,-0.008483750706911087,-0.025955986772477624,-0.031060342440474776
1761506855089165600,6.51816552734375,-0.006174304720759392,-0.012754632959142326,0.0017614384482614695
1761506855099137800,6.5281376953125,-0.009437690430879593,0.00850618173442781,0.0429224835393019
1761506855109109800,6.53810986328125,0.03202946146726608,-0.005525558488443494,0.06488222201615572
1761506855119081700,6.548081787109375,0.0664928720831871,-0.026928046675026414,0.06386259664483368
1761506855129053000,6.558052978515625,0.09188333392739295,-0.03732471833117306,0.057687579538021234
1761506855139024600,6.568024658203125,0.09540916996598243,-0.03888685308136046,0.059457420488446946
1761506855148996900,6.577996826171875,0.04046352781355381,0.003120543173328042,0.05076884965812787
1761506855158968600,6.587968505859375,-0.06465922691524029,0.03575476560071111,0.03864533594306558
1761506855168939800,6.597939697265625,-0.12991174354851245,0.04284033994749188,0.03991785836322233
1761506855178911700,6.607911865234375,-0.16089081918001175,0.06554214722961187,0.050344979956559836
1761506855188883700,6.6178837890625,-0.15491700546741485,0.0697386490713805,0.0802167519332841
1761506855198856000,6.62785595703125,-0.10046177718043327,0.08030600111931561,0.09647146543525159
1761506855208827000,6.637826904296875,-0.031145664370059965,0.08088263196349144,0.09012286359351128
1761506855218798800,6.647798828125,0.031850597769021986,0.07206943010650575,0.058671476008836175
1761506855228770800,6.657770751953125,0.10356968006789684,0.05981814355961978,0.012414989208616315
1761506855238742800,6.66774267578125,0.173977095246315,0.03027699177674949,-0.029904231207910924
1761506855248714800,6.67771484375,0.2162134779512882,0.00962393371798098,-0.05180018373355269
1761506855258686000,6.68768603515625,0.19898878690600394,0.0033376199901103973,-0.045547078155539926
1761506855268657700,6.69765771484375,0.12221592834889888,0.01355922734029591,-0.056947026836406435
1761506855278630000,6.7076298828125,0.029436522364616392,0.037849107531458134,-0.07364177572345361
1761506855288601900,6.717601806640625,-0.04342530022859573,0.04890636198818683,-0.09232066589873283
1761506855298572800,6.72757275390625,-0.10468787044286727,0.05408106121234595,-0.09067713647540658
1761506855308544800,6.737544677734375,-0.10317980396747589,0.04239391135424375,-0.07597228276394308
1761506855318516700,6.747516845703125,-0.049775546038150785,0.022705972000584006,-0.05138557505067438
1761506855328488700,6.75748876953125,0.026818448820710182,0.0042705169260501856,-0.03404748675879091
1761506855338459600,6.767459716796875,0.11751052713692188,-0.030226138372346757,-0.014332221006788312
1761506855348432000,6.777431884765625,0.14409692076742647,-0.040047786619514227,-0.0069105283071286975
1761506855358403600,6.787403564453125,0.13517419412136078,-0.029878932369872924,0.0010569434407167136
1761506855368375800,6.797375732421875,0.07941489749848842,-0.010351005883514881,-0.004772730827145278
1761506855378347800,6.80734765625,-0.017207155388593673,0.004433525468036532,-0.0019354067756794393
1761506855388318700,6.817318603515625,-0.11805179440677166,0.04348360628709197,0.026312472059950232
1761506855398291000,6.827291015625,-0.16286124247014522,0.05719415173158049,0.06559723841771484
1761506855408262700,6.8372626953125,-0.12779986596107482,0.046902255624160165,0.09723771883370354
1761506855418235000,6.84723486328125,-0.08658931917250155,0.042057884332910175,0.1228347361006774
1761506855428205800,6.857205810546875,-0.05426350510716438,0.024996494090557098,0.12678604927603154
1761506855438177800,6.867177734375,-0.030607904231548307,0.025555370082333682,0.09266832855893298
1761506855448149800,6.877149658203125,-0.007321721190214157,0.007922463562339544,0.05873290560618043
1761506855458121700,6.887121826171875,0.013527590093016623,-0.02043123200163245,0.028317053348012267
1761506855468092700,6.8970927734375,0.01967325324118137,-0.036254751012101766,0.026041710560861974
1761506855478065000,6.90706494140625,-0.023511223968863487,-0.02346731176190078,0.03602159984335303
1761506855488036900,6.917036865234375,-0.07554302450120448,-0.008718947702273726,0.0420880785417743
1761506855498008800,6.9270087890625,-0.10688333466053009,0.0014214841704815624,0.04952235672837123
1761506855507980800,6.936980712890625,-0.10692834284603595,-0.003053907677903771,0.04441951716402545
1761506855517951700,6.94695166015625,-0.0832628050982952,-0.007268018241599202,0.04151206875210628
1761506855527923700,6.956923828125,-0.03747428286969662,-0.027473478663340208,0.03625204759836197
1761506855537895700,6.966895751953125,0.03634440205693245,-0.04206248744279146,0.042903011653851714
1761506855547867600,6.97686767578125,0.09834113176465034,-0.03030439124032855,0.054076056243665516
1761506855557838600,6.986838623046875,0.1341921973466873,-0.03209865424595773,0.07098563519148156
1761506855567810800,6.996810791015625,0.1486748962074518,-0.03957775795497,0.08454866192406042
1761506855577782800,7.00678271484375,0.12508300821781157,-0.030578166680410503,0.08766653821626677
1761506855587754800,7.016754638671875,0.05086567936241627,-0.006183437875285744,0.0807976388274692
1761506855597726000,7.026725830078125,-0.04211714023947716,0.018554039952903986,0.07409830558560788
1761506855607697700,7.03669775390625,-0.07966682643294334,0.0313585764683783,0.0839799951906316
1761506855617670000,7.046669921875,-0.05091945537626743,0.038681685898080465,0.09074329704679548
1761506855627641600,7.0566416015625,-0.0044137247890233995,0.0248405728764832,0.09907602191045879
1761506855637612800,7.06661279296875,0.03286240516006946,0.018642521953955292,0.08201947224000468
1761506855647584800,7.076584716796875,0.07644318821132183,0.019451646379753947,0.0555324838633649
1761506855657556700,7.086556640625,0.09508300675153732,0.01555303150601685,0.03877285304656252
1761506855667529000,7.096529052734375,0.06846738702654838,0.015184271258860826,0.01207450520787388
1761506855677500700,7.106500732421875,0.03725333359539509,0.028326296100392934,0.001639163775462657
1761506855687471900,7.116471923828125,-0.010480477482080459,0.028028043806180358,0.007225019350089132
1761506855697443800,7.12644384765625,-0.018940262791514395,0.04566913363263011,0.017705021908134222
1761506855707415800,7.136415771484375,-0.019268764093518256,0.05402085545770824,0.029138288336712864
1761506855717387800,7.1463876953125,-0.011875731232762336,0.06319003114551305,0.04013436892442405
1761506855727359000,7.15635888671875,0.01632978803217411,0.059622913248464464,0.040503202236816284
1761506855737331000,7.1663310546875,0.030529578298330307,0.048146629662066696,0.027153982651699334
1761506855747303000,7.176302978515625,0.038701194316148754,0.04902772334553301,0.0084818144781515
1761506855757275100,7.186275146484375,0.021193010154366494,0.04081197592504322,0.0020024806625209748
1761506855767246000,7.19624609375,-0.011696867534518242,0.05061426188461482,-0.010825875119958072
1761506855777218000,7.206218017578125,-0.04223521366119384,0.06889343041889369,-0.01100725956885144
1761506855787190000,7.21618994140625,-0.04104804970324039,0.06566745410971343,-0.0047388833564706145
1761506855797162000,7.226161865234375,0.004601356315612793,0.05177439170517027,-0.006692611240129917
1761506855807134000,7.236134033203125,0.0335883813470602,0.02365874268077314,-0.019819073186349123
1761506855817105200,7.246105224609375,0.07918167326450347,0.00657455608472228,-0.02164119231328368
1761506855827076900,7.256076904296875,0.11379238339662551,0.0034253713387995956,-0.032397618926223365
1761506855837049000,7.266049072265625,0.12688333563804627,-0.00944192821457982,-0.05008716927058995
1761506855847021000,7.27602099609375,0.09387830713689327,-0.004841375616565347,-0.08522763889785856
1761506855856992000,7.285991943359375,0.048214872592687606,0.011001213420554995,-0.10146154707381501
1761506855866964200,7.295964111328125,0.006687514939904213,0.008077361863106489,-0.10851577643426134
1761506855876936000,7.30593603515625,-0.015233809489011764,0.007859189067780971,-0.12429733773283659
1761506855886908200,7.315908203125,-0.03786182088255882,-0.007177855740115046,-0.10467985153319313
1761506855896879900,7.3258798828125,-0.024655717828869817,-0.013908406104147434,-0.06989718236764893
1761506855906851000,7.33585107421875,-0.0010585691422224045,-0.02568732589893043,-0.05251216792780906
1761506855916822800,7.34582275390625,0.0140209265679121,-0.03207556563131511,-0.039943230266496536
1761506855926795000,7.355794921875,-0.0036211131066083905,-0.01699117455035448,-0.05298062568977475
1761506855936767000,7.36576708984375,-0.025016952356696126,-0.005952843989804387,-0.06394331546453759
1761506855946738000,7.375738037109375,-0.07273381229937076,0.012883885361999272,-0.08206223366949707
1761506855956710100,7.385710205078125,-0.13814707245230673,0.030340485467016697,-0.07077823951849714
1761506855966681900,7.395681884765625,-0.15161328774690627,0.04568973802924156,-0.017414404931105673
1761506855976654000,7.405654052734375,-0.11599486187696456,0.05494703039191663,0.03350139718335122
1761506855986625000,7.415625,-0.0308522343814373,0.03676555007845163,0.07252694634934886
1761506855996597000,7.425596923828125,0.054122635331749915,0.027147461579367517,0.08938660347452387
1761506856006569000,7.43556884765625,0.10673720418810843,0.0008490911100059748,0.06248617545878514
1761506856016541000,7.445541015625,0.12395897262394427,-0.0017863719601184129,0.012725918321311473
1761506856026512000,7.455511962890625,0.11222528021037578,0.008644859552755952,-0.023961945144739
1761506856036484000,7.465484130859375,0.08900456362068652,0.013860329178720711,-0.03973026336925104
1761506856046456000,7.4754560546875,0.04908931733965873,0.029040070392936466,-0.04908217521281913
1761506856056428000,7.485427978515625,-0.017370821517705918,0.02213913189806044,-0.051697983734402805
1761506856066400000,7.49539990234375,-0.08665829275548458,0.027992607166618107,-0.052331696794368325
1761506856076371000,7.505370849609375,-0.14509586867690086,0.038854192920774216,-0.07247748118443414
1761506856086343200,7.51534326171875,-0.14822949052751064,0.057022813752666116,-0.07993634582301601
1761506856096315000,7.52531494140625,-0.08950199174880981,0.045820890128239984,-0.07203006621049717
1761506856106287000,7.535287109375,0.0006663549542427063,0.025089286940544842,-0.05469972283365205
1761506856116257800,7.5452578125,0.0792681825041771,0.00868723738975823,-0.04244986105887219
1761506856126230000,7.55522998046875,0.1679682102203369,-0.005849018289148807,-0.05121955256769433
1761506856136202000,7.565201904296875,0.163794139406085,-0.014491685884818434,-0.07487696180790662
1761506856146174000,7.575174072265625,0.11323825664520264,-0.016202289194986223,-0.09043961965879425
1761506856156145200,7.585145263671875,0.0425467638283968,0.014288126136735082,-0.09321909430949017
1761506856166116900,7.595116943359375,-0.013061726146936415,0.034179990564659236,-0.07865125618223101
1761506856176089000,7.605089111328125,-0.0492389549434185,0.04351780081763863,-0.042431905277073384
1761506856186060800,7.615060791015625,-0.04373568135201931,0.05809336559362709,-0.008434979661740363
1761506856196032000,7.625031982421875,-0.0033820436537265776,0.055052098201587796,0.028412914937920867
1761506856206004000,7.63500390625,0.054715925049781795,0.03184117235355079,0.041008777138777076
1761506856215976000,7.644975830078125,0.0876332752674818,0.024031448450684546,0.05352532702572643
1761506856225948200,7.6549482421875,0.09016776218116283,0.021715864984691143,0.058039589579775924
1761506856235920000,7.664919921875,0.05724047509133815,0.024241949396207926,0.05265004202853888
1761506856245891000,7.67489111328125,0.029808862808346746,0.04115874353609979,0.04104940141011029
1761506856255863000,7.684863037109375,0.03159340813755989,0.03291640036962926,0.052926301686652
1761506856265835000,7.6948349609375,0.022398878812789916,0.016642068851739168,0.07012479884475468
1761506856275807000,7.704806884765625,-0.03586100245416164,0.016945727973431347,0.0718379411718808
1761506856285778000,7.71477783203125,-0.1034188734203577,0.041627018634974956,0.056813810644485055
1761506856295750000,7.72475,-0.13834230276346207,0.04259579060189426,0.04401601439705118
1761506856305722000,7.73472216796875,-0.11418927375972271,0.02926123886294663,0.04291850148392841
1761506856315694000,7.744694091796875,-0.062137599483132355,0.0011302461389452218,0.03935812385492027
1761506856325665000,7.7546650390625,-0.017328735941648483,-0.005230228803679347,0.044040600849036125
1761506856335637000,7.764636962890625,0.013799392771720886,-0.022875264152884482,0.03996513157105073
1761506856345609000,7.77460888671875,0.05231821625828743,-0.030816870807111263,0.03031337826438248
1761506856355581000,7.784580810546875,0.02755436187982559,-0.02686915609464049,0.02506228933576494
1761506856365553000,7.794552978515625,-0.012198971837759018,-0.01868687255233526,0.006268321413453668
1761506856375524000,7.804524169921875,-0.035977906832098956,0.00502191981524229,0.006691296065878123
1761506856385495800,7.814495849609375,-0.049804772132635115,0.01851553457342088,0.0025940716138109564
1761506856395468000,7.824468017578125,-0.028992285728454588,0.01199402385018766,0.010592175961937754
1761506856405440000,7.83443994140625,0.011874562188982963,0.005677388049289584,0.021527192278485745
1761506856415411000,7.844410888671875,0.06923837139904498,0.004652501980960369,0.035150424765702334
1761506856425383200,7.854383056640625,0.11411445495784282,0.009902385333180427,0.04750999399265274
1761506856435355000,7.86435498046875,0.1475689807921648,0.013877645639702677,0.07200009119734167
1761506856445327000,7.8743271484375,0.15479016421735287,0.03547339137606322,0.06771881541525945
1761506856455298000,7.884298095703125,0.12526713261306285,0.035398207248002286,0.05401471797786653
1761506856465270000,7.89427001953125,0.09818214181065558,0.0303479381211102,0.04969911980107426
1761506856475242000,7.904241943359375,0.058220718300342554,0.018241393807157873,0.04062880137786269
1761506856485214000,7.9142138671875,0.017490648505091667,0.029682971406355497,0.04274170187860727
1761506856495185000,7.924184814453125,-0.015948679760098457,0.053277635874971745,0.0539430044485256
1761506856505157000,7.9341572265625,-0.046433249872922897,0.06448197065219283,0.06289660115689039
1761506856515129000,7.944129150390625,-0.057712768778204915,0.052768882635235784,0.03071267978027463
1761506856525101000,7.95410107421875,-0.07827683337926865,0.04253251610733568,-0.020562658095266667
1761506856535073000,7.964072998046875,-0.08234978190660476,0.03023717122301459,-0.04552015361599624
1761506856545044000,7.9740439453125,-0.06041793608367443,0.0047985593881458045,-0.053642523664608595
1761506856555016000,7.984015869140625,-0.007257423782348633,-0.02113711524866521,-0.028639289306011048
1761506856564988000,7.99398779296875,0.025559388670325277,-0.03879413329660892,-0.010505173531919718
1761506856574959900,8.0039599609375,0.03807400232851505,-0.04888020463362336,-0.017358053367678074
1761506856584930800,8.013930908203125,-0.006152092888951301,-0.0252739958576858,-0.043003458087332545
1761506856594903000,8.023903076171875,-0.051124038037657735,-0.005259601028636098,-0.05954425852168351
1761506856604875000,8.033875,-0.10836042147576808,0.016907368724420665,-0.059840702451299875
1761506856614847000,8.043846923828125,-0.15630524495542047,0.02231310022547841,-0.03042558820089325
1761506856624819000,8.05381884765625,-0.13659282874763012,0.028217940355092286,0.012443466384429483
1761506856634790000,8.063789794921876,-0.062461424610018725,0.011106573491171001,0.05174332071347162
1761506856644762000,8.07376220703125,-0.00824701934158802,-0.0026161007825285195,0.0540992727224715
1761506856654733800,8.08373388671875,0.08355097438991069,-0.01911664227172732,0.04005352224055678
1761506856664706000,8.0937060546875,0.14209259520769119,-0.0367255103290081,0.022966632230766115
1761506856674677000,8.103677001953125,0.166073190253973,-0.03387771968245506,0.007428487766627222
1761506856684649000,8.11364892578125,0.1253045420140028,-0.01555748848542571,-0.021146029207482934
1761506856694621200,8.12362109375,0.04007949693202972,0.001982113727927208,-0.03630005145855248
1761506856704593000,8.133593017578125,-0.0379629431694746,0.02417195289991796,-0.03554660274274647
1761506856714564000,8.143564208984374,-0.09920739320516586,0.0362462023794651,-0.010596322414092718
1761506856724536000,8.1535361328125,-0.11604629980325698,0.04162168487273157,0.012566069850791246
1761506856734507500,8.163507568359375,-0.1009703112244606,0.03737199153900146,0.027266137789282947
1761506856744479700,8.173479736328124,-0.05299859973788261,0.04134272180087864,0.010251892890594898
1761506856754450400,8.183450439453125,-0.004085808008909226,0.019889526340365407,-0.021587398033123463
1761506856764422700,8.193422607421875,0.07843757689893245,-0.008251403255760669,-0.05000895293522626
1761506856774394600,8.20339453125,0.12131810272634029,-0.03041924979165196,-0.06744644648097455
1761506856784366600,8.21336669921875,0.1077449199259281,-0.026131854796037076,-0.06010275092096999
1761506856794338800,8.2233388671875,0.05937105737924576,-0.014587036018073558,-0.04180332504995167
1761506856804309500,8.2333095703125,0.017126491367816923,0.005408215719088912,-0.04498102350430563
1761506856814281700,8.24328173828125,-0.01870002429485321,0.005954816751182079,-0.04681088754627853
1761506856824253400,8.25325341796875,-0.04878828856647014,0.005902209781110286,-0.06358144161589444
1761506856834225700,8.2632255859375,-0.055928807970881456,0.001157426406815648,-0.06370397201701998
1761506856844196600,8.273196533203125,-0.027510522738099098,-0.004074263701587915,-0.05645763588426635
1761506856854168600,8.28316845703125,-0.004207973083853721,-0.017511472097411752,-0.04551330375010147
1761506856864140800,8.293140869140625,0.03154080116748809,-0.011882599364966153,-0.02414495529513806
1761506856874112500,8.303112548828125,0.05392214432358741,-0.012136574126034975,-0.01650032229349017
1761506856884083700,8.313083740234376,0.05424480040669441,-0.004600333402305841,-0.009747158238850534
1761506856894055700,8.3230556640625,0.05508826549351215,-0.0023654139570891855,-0.006057674337457865
1761506856904027600,8.333027587890625,0.022452070304751395,-0.0100446433480829,-0.013918160313181578
1761506856913999600,8.34299951171875,-0.024454642298817632,0.00958754723034799,-0.013708079492766409
1761506856923971600,8.3529716796875,-0.05154021762311458,0.011666180135309696,-0.016781404257193207
1761506856933942500,8.362942626953124,-0.049376902109384536,0.014591346867009997,-0.01717182834688574
1761506856943914800,8.372914794921876,-0.029189854127168655,0.033207711466401814,-0.007003449021279811
1761506856953886700,8.38288671875,0.021502806755900383,0.03317439371868968,0.021740999425947666
1761506856963858700,8.392858642578124,0.06762801359295845,0.030449644929915663,0.02743674511583522
1761506856973829600,8.40282958984375,0.0604103372991085,0.032164120697602626,0.026452866911329326
1761506856983801600,8.412801513671875,0.018858429726958274,0.034110870851203796,0.013654961066041141
1761506856993773800,8.42277392578125,-0.02968845129907131,0.04329100632444024,-0.0003132124013267457
1761506857003745500,8.43274560546875,-0.042021278649568554,0.052251507697626945,0.005614332750439643
1761506857013716700,8.442716796875,-0.033325931018590924,0.046741219843551514,0.04033493299782276
1761506857023688400,8.4526884765625,-0.017230536264181136,0.03841134452410042,0.06655861252946779
1761506857033660700,8.46266064453125,-0.027373744615912434,0.027164120453223584,0.06568836903357878
1761506857043632600,8.472632568359375,-0.05194529129266739,0.04753894609250128,0.0279601662017405
1761506857053603600,8.482603515625,-0.0691769966006279,0.05268719570115208,0.022540954164601862
1761506857063575800,8.492575927734375,-0.051501054656505584,0.062450391759350896,0.026036358532309532
1761506857073547500,8.502547607421874,-0.007557868033647537,0.07044862397164106,0.06184842554451898
1761506857083519700,8.512519775390626,0.04533259515464306,0.06390446302518248,0.10951267851712182
1761506857093491500,8.522491455078125,0.11354162350594997,0.05552760675884783,0.14404082493232562
1761506857103462700,8.532462646484374,0.13611468984186648,0.053802390401437875,0.14840064584333448
1761506857113434600,8.5424345703125,0.12841829012036324,0.058864203835651274,0.1333026828947477
1761506857123406600,8.552406494140625,0.10224281537830829,0.06159910869225859,0.11697139702523127
1761506857133378800,8.56237890625,0.05206161114871501,0.06561243598684668,0.08827387472596018
1761506857143349800,8.572349853515625,0.033442250874638556,0.08505399936400354,0.09639304817048833
1761506857153321700,8.58232177734375,0.023216624936461448,0.07007058443948626,0.08506610992690548
1761506857163293700,8.592293701171876,0.033387890338897705,0.040361967135220764,0.05894095886629074
1761506857173265700,8.602265625,0.024871406406164167,0.03294781842119992,0.025021482401341198
1761506857183236600,8.612236572265624,-0.018555062866210937,0.026745748910680413,-0.028906379276979713
1761506857193208600,8.62220849609375,-0.03944762876927852,0.025776465487107634,-0.07674741358859465
1761506857203180500,8.6321806640625,-0.010225041416287422,0.011525894881784916,-0.10279180929688736
1761506857213152800,8.64215283203125,0.03582826922833919,-0.035670302187651395,-0.0949944151526317
1761506857223124700,8.652124755859376,0.06375263346433639,-0.04738280568271875,-0.0753378938505426
1761506857233095700,8.662095703125,0.03884557122290134,-0.02955788372196257,-0.05012076101293787
1761506857243067600,8.672067626953124,-0.0046510406762361525,0.006398688061162829,-0.03931875995891169
1761506857253039600,8.68203955078125,-0.09085925157666205,0.03617167583853006,-0.05693922712244093
1761506857263011600,8.692011474609375,-0.13875380617380143,0.061404535968229174,-0.055385202613472934
1761506857272982500,8.701982421875,-0.14077742095589638,0.06741130210235714,-0.02510444797705859
1761506857282954800,8.711954833984375,-0.09000468057394027,0.04575783482939005,0.01849398032873869
1761506857292926500,8.721926513671875,-0.008961889612674712,0.027346929674223065,0.05707275384161621
1761506857302898700,8.731898681640626,0.0764443572551012,0.00019829905107617376,0.07748453222410753
1761506857312869600,8.74186962890625,0.15238777925074098,-0.022265900082886217,0.07875868034576997
1761506857322841600,8.751841552734374,0.18335984061956404,-0.041334903820604084,0.06516503927921875
1761506857332813800,8.761813720703126,0.14508008658587931,-0.03188895701803267,0.05189602705715224
1761506857342785500,8.77178564453125,0.06861527106463909,-0.01376424839310348,0.02739652270330116
1761506857352757800,8.7817578125,-0.014141922599077223,-0.006729454385489225,0.018974146794807165
1761506857362728700,8.791728759765626,-0.0767845489948988,0.0036822687093168494,0.009980254608672112
1761506857372700700,8.80170068359375,-0.1002425814718008,-0.0014380699791014195,0.01707731846384704
1761506857382672600,8.811672607421874,-0.08076163593232631,-0.005235489500686526,0.025320574945770204
1761506857392644600,8.82164453125,-0.05191957232952118,-0.010303659610450266,0.0065653498649597165
1761506857402615600,8.831615478515625,-0.024144845697283743,-0.007310323013365269,0.013653682424407452
1761506857412587500,8.84158740234375,-0.01515256094634533,0.013612930288910864,0.002275233189295977
1761506857422559700,8.851559814453125,0.0025777415335178373,0.022533026586472986,-0.005647285171970725
1761506857432531700,8.86153173828125,-0.00390869787633419,0.025022943706065413,-0.01306621965896338
1761506857442502700,8.871502685546876,-0.025527239966392515,0.032551220319047565,-0.028679840512108055
1761506857452474600,8.881474609375,-0.025779168900847433,0.039619112878665326,-0.026667934434115886
1761506857462446600,8.891446533203125,-0.0034422494083642956,0.04090009259991347,-0.007911138450726865
1761506857472418600,8.90141845703125,0.01384498547911644,0.04529766997173428,-0.00874758927486837
1761506857482390500,8.911390625,0.005720715734362602,0.06173669053204357,-0.0034962811505421993
1761506857492361500,8.921361572265624,0.02039572229683399,0.05926262856870889,-0.003451236432418227
1761506857502333700,8.931333740234376,0.02864975590109825,0.05955518177449703,-0.018122315738443286
1761506857512305700,8.9413056640625,0.046748307171463964,0.03807940915599465,-0.01633289330471307
1761506857522277600,8.951277587890624,0.05178863942623138,0.011703589536249637,-0.012801120715681463
1761506857532248800,8.961248779296875,0.0632470220297575,-0.006576967237517237,-0.015681187930330635
1761506857542220500,8.971220458984375,0.03250233967602253,-0.018733049781620503,-0.01973400698509067
1761506857552192800,8.98119287109375,0.0010369418323040009,-0.020931728869676588,-0.02550829780390486
1761506857562164500,8.99116455078125,0.01182546235024929,-0.032650515975058074,-0.016494696270301937
1761506857572135700,9.0011357421875,0.06367138492166996,-0.04063274690061807,-0.004220412440318614
1761506857582107600,9.011107666015626,0.09640753335356712,-0.04666990817300975,0.03632193449679762
1761506857592079600,9.02107958984375,0.11722411141097545,-0.04351319770775735,0.04347779760081321
1761506857602051800,9.0310517578125,0.10726795006394385,-0.04336472914777696,0.045169824074674396
1761506857612022500,9.0410224609375,0.04182429477274418,-0.03459324754066765,0.03577924245484173
1761506857621994800,9.050994873046875,-0.01076455512046814,-0.009633359133452176,0.04436493743257597
1761506857631966500,9.060966552734374,-0.05908230356574058,0.008751023340970276,0.05665239127138629
1761506857641938700,9.070938720703126,-0.09345745137631893,0.020728972839191555,0.05143211760614067
1761506857651909600,9.08090966796875,-0.08202946391105652,0.017489771722257137,0.05976217558868229
1761506857661881600,9.090881591796874,-0.06783142721056938,0.022185236062109467,0.06424058137806132
1761506857671853600,9.100853515625,-0.05438157852888107,0.011861702707409858,0.06323100247671827
1761506857681825500,9.110825439453125,-0.03620996202230453,0.014239026298001408,0.06119556939266622
1761506857691797800,9.1207978515625,-0.04357435331046581,0.022985738790035248,0.04281579002812504
1761506857701768700,9.130768798828125,-0.05462240154743194,0.038508521288260815,0.03170738990604877
1761506857711740700,9.14074072265625,-0.06195756674110889,0.038842064091563225,0.027610731709562242
1761506857721712600,9.150712646484376,-0.061736617466807364,0.04799523849263787,0.03405875707147643
1761506857731684900,9.160684814453125,-0.04827858547866344,0.04032879551798105,0.048538661186955864
1761506857741656000,9.170656005859374,-0.02160568260848522,0.03356872679851949,0.03282693198788911
1761506857751628000,9.1806279296875,-0.016124620848894117,0.015465864679217338,0.008555993959214537
1761506857761600000,9.19060009765625,0.00027706337571144104,0.005962707796692848,-0.013282017834112047
1761506857771572200,9.200572265625,0.05430208355188369,0.0013860475309193133,-0.03228084241244942
1761506857781543000,9.21054296875,0.12024316697120666,-0.021022914284467696,-0.03525355634661391
1761506857791515100,9.22051513671875,0.14410802668333053,-0.030895781262218952,-0.06284191182758658
1761506857801486800,9.23048681640625,0.12454758616685867,-0.020985504883527753,-0.07233555196309462
1761506857811459000,9.240458984375,0.09098901543617248,-0.013060630168393254,-0.07765733150774612
1761506857821431000,9.25043115234375,0.04521043007969856,-0.0016057546962052582,-0.07914375240691006
1761506857831402000,9.260402099609376,0.010053191980719566,0.014680194194242357,-0.08151311188675463
1761506857841374000,9.2703740234375,-0.0077712185233831405,0.028164748863130806,-0.07992167797684668
1761506857851346000,9.280345947265625,0.004431844967603683,0.029992475746944545,-0.08028177999351173
1761506857861318100,9.290318115234374,0.059601359003782266,0.02284428449273109,-0.05644302283702418
1761506857871289000,9.3002890625,0.1058545761346817,-0.0038874358925968405,-0.021645265700202435
1761506857881261000,9.310260986328124,0.07510054143071174,0.0017586071703583,0.00976259327000007
1761506857891233000,9.32023291015625,0.003393149569630623,0.035663580185919995,0.0007665273930877447
1761506857901205000,9.330205078125,-0.07445698283016682,0.062246612815558905,0.004573244465980678
1761506857911176000,9.340176025390624,-0.12096154437363148,0.08456548519469798,0.010108867690712214
1761506857921148200,9.350148193359376,-0.12359130835533141,0.08108392668925225,0.0059729551960714155
1761506857931119900,9.360119873046875,-0.08940203850567341,0.058116965664923186,0.01910044005559757
1761506857941092000,9.370092041015624,-0.03350245662927628,0.028104323912784456,0.02893324901759624
1761506857951064000,9.38006396484375,0.048237668946385384,0.007324059277772903,0.02461352265495807
1761506857961035000,9.390034912109375,0.1189730009049177,-0.03422412196733057,0.025695308275986463
1761506857971007200,9.40000732421875,0.14046820887625217,-0.05641966022774577,0.0072078672858886415
1761506857980979000,9.40997900390625,0.11380115122497081,-0.05665763370208442,-0.02608494691438973
1761506857990951200,9.419951171875,0.04125964662730693,-0.043141295655444264,-0.042064971660822625
1761506858000921900,9.429921875,-0.009303834918141364,-0.03476020160540938,-0.04683960218410939
1761506858010894000,9.43989404296875,-0.0424725295484066,-0.04038330218419432,-0.049181562200374895
1761506858020865800,9.44986572265625,-0.03475684060454368,-0.04008256567195058,-0.033728118611313404
1761506858030838000,9.459838134765626,-0.03787058871090412,-0.031770518270134926,-0.004695939263887703
1761506858040809000,9.46980908203125,0.20759061103463172,0.029947905952855944,-0.032727928592823446
1761506858050781000,9.479781005859374,0.2819453025341034,-0.05176452789828181,-0.03040248131994158
1761506858060753200,9.489753173828126,0.21885785498023033,-0.14345131634026764,-0.04759246637802571
1761506858070724900,9.499724853515625,0.16889760002493856,-0.10603709309473633,-0.06352359221512452
