time,seconds_elapsed,z,y,x
1761506848647413800,0.076413818359375,0.010129071772098541,-0.1251295953989029,0.11926423013210297
1761506848657385700,0.0863857421875,-0.0010981690138578415,-0.07593262940645218,0.06095585972070694
1761506848667357700,0.096357666015625,-0.024579524993896484,-0.029246347025036812,0.01248446386307478
1761506848677329700,0.10632958984375,-0.048372138291597366,0.016689462587237358,-0.020743941888213158
1761506848687300600,0.116300537109375,-0.05319352447986603,0.060770634561777115,-0.03188527747988701
1761506848697272800,0.12627294921875,-0.053147368133068085,0.07351011037826538,-0.03681940957903862
1761506848707244800,0.136244873046875,-0.04149923473596573,0.062104854732751846,-0.028200887143611908
1761506848717205200,0.146205322265625,-0.029277268797159195,0.034351229667663574,-0.010887643322348595
1761506848727176200,0.15617626953125,-0.01267299335449934,-0.00674454215914011,0.01146053895354271
1761506848737148200,0.166148193359375,-0.004110931418836117,-0.037284716963768005,0.023344924673438072
1761506848747120000,0.1761201171875,0.001002337783575058,-0.05486797168850899,0.04052098095417023
1761506848757092400,0.18609228515625,0.013176556676626205,-0.056481555104255676,0.04841136559844017
1761506848767064300,0.196064208984375,0.02259695529937744,-0.052381087094545364,0.05064522475004196
1761506848777035300,0.20603515625,0.031885191798210144,-0.04365711659193039,0.037853945046663284
1761506848787007200,0.21600732421875,0.03933405503630638,-0.04271116480231285,0.020873095840215683
1761506848796979200,0.225979248046875,0.036525558680295944,-0.04381481558084488,-0.0018614507280290127
1761506848806951200,0.235951171875,0.03163812682032585,-0.03875694051384926,-0.021819446235895157
1761506848816922000,0.245922119140625,0.027018796652555466,-0.024448111653327942,-0.03286546841263771
1761506848826894300,0.255894287109375,0.026530105620622635,-0.0058398074470460415,-0.03323964402079582
1761506848836866300,0.2658662109375,0.027358882129192352,0.01052292063832283,-0.028635038062930107
1761506848846838300,0.27583837890625,0.03131859004497528,0.02723764441907406,-0.009570150636136532
1761506848856809500,0.2858095703125,0.03776153549551964,0.028294637799263,0.008452675305306911
1761506848866781200,0.29578125,0.035301573574543,0.013218751177191734,0.02242708019912243
1761506848876753400,0.30575341796875,0.03546219691634178,0.0019461805932223797,0.028274759650230408
1761506848886725000,0.31572509765625,0.0337737537920475,-0.008141075260937214,0.028151456266641617
1761506848896697300,0.325697265625,0.029935333877801895,-0.01602264679968357,0.020289065316319466
1761506848906668300,0.335668212890625,0.02894090861082077,-0.01198502816259861,0.02265794761478901
1761506848916640300,0.34564013671875,0.03454212099313736,-0.006369948387145996,0.027381623163819313
1761506848926612500,0.355612548828125,0.0392250195145607,-0.021533189341425896,0.019704528152942657
1761506848936584200,0.365584228515625,0.032498978078365326,-0.027954014018177986,0.0049566542729735374
1761506848946555400,0.375555419921875,0.030444614589214325,-0.02418564073741436,-0.009173279628157616
1761506848956527400,0.38552734375,0.022628232836723328,-0.015163070522248745,-0.02139047160744667
1761506848966499300,0.395499267578125,0.018113108351826668,-0.000884266453795135,-0.03937692567706108
1761506848976471300,0.40547119140625,0.021595995873212814,0.017784977331757545,-0.046235427260398865
1761506848986442200,0.415442138671875,0.027677590027451515,0.0253992211073637,-0.04638057202100754
1761506848996414200,0.425414306640625,0.03290537744760513,0.01888939179480076,-0.04036156088113785
1761506849006386200,0.43538623046875,0.03238579258322716,0.008076957426965237,-0.020472539588809013
1761506849016358400,0.4453583984375,0.02800001949071884,-0.0043242322281003,0.006322324275970459
1761506849026330000,0.455330078125,0.02600078471004963,-0.016111116856336594,0.03197868540883064
1761506849036301300,0.46530126953125,0.03133247047662735,-0.0237687099725008,0.04431649297475815
1761506849046273300,0.475273193359375,0.03958720341324806,-0.033057816326618195,0.0419531986117363
1761506849056245200,0.485245361328125,0.04310816526412964,-0.032956190407276154,0.02496279589831829
1761506849066217200,0.49521728515625,0.04716416448354721,-0.03185071051120758,0.010065604001283646
1761506849076188400,0.5051884765625,0.04853874072432518,-0.029117856174707413,-0.010329031385481358
1761506849086160100,0.51516015625,0.043274734169244766,-0.02111106365919113,-0.021189136430621147
1761506849096132400,0.52513232421875,0.041110266000032425,-0.009493368677794933,-0.011593380942940712
1761506849106104300,0.535104248046875,0.041002143174409866,0.008077901788055897,0.009105505421757698
1761506849116075300,0.5450751953125,0.04483918473124504,0.018976563587784767,0.02678312361240387
1761506849126047500,0.555047607421875,0.04509458318352699,0.011803604662418365,0.03585837781429291
1761506849136019200,0.565019287109375,0.04702412337064743,-0.005637257359921932,0.04481751471757889
1761506849145991400,0.574991455078125,0.04092441871762276,-0.024587245658040047,0.04421643912792206
1761506849155963100,0.584963134765625,0.029145939275622368,-0.03786638006567955,0.036207906901836395
1761506849165934300,0.594934326171875,0.02349737472832203,-0.04149733483791351,0.019103486090898514
1761506849175906300,0.60490625,0.01881135068833828,-0.04291071370244026,-0.008022881112992764
1761506849185878300,0.614878173828125,0.01610797643661499,-0.04174504801630974,-0.043925486505031586
1761506849195850500,0.6248505859375,0.010939122177660465,-0.03205996751785278,-0.07092615216970444
1761506849205821200,0.6348212890625,0.0049499389715492725,-0.019080517813563347,-0.07991698384284973
1761506849215793400,0.64479345703125,-0.004161910619586706,-0.007753850892186165,-0.06156111881136894
1761506849225765000,0.65476513671875,-0.01262330636382103,-0.0039255572482943535,-0.029887612909078598
1761506849235737300,0.6647373046875,-0.021585755050182343,-0.010851501487195492,0.0006943250773474574
1761506849245709000,0.674708984375,-0.022212663665413857,-0.017879316583275795,0.017936961725354195
1761506849255680300,0.68468017578125,-0.02127131074666977,-0.0193642545491457,0.01915023848414421
1761506849265652200,0.69465234375,-0.024516906589269638,-0.01296840701252222,0.013991694897413254
1761506849275624200,0.704624267578125,-0.027155445888638496,0.0023549748584628105,0.0025106859393417835
1761506849285596400,0.714596435546875,-0.027866510674357414,0.02645418606698513,-0.0010571508901193738
1761506849295567400,0.7245673828125,-0.027786891907453537,0.049095407128334045,0.007836331613361835
1761506849305539300,0.734539306640625,-0.02256230264902115,0.06207458674907684,0.02311142534017563
1761506849315511300,0.74451123046875,-0.015122226439416409,0.06026241555809975,0.03501146286725998
1761506849325483300,0.754483154296875,-0.0009225187823176384,0.04534978047013283,0.04573574662208557
1761506849335454200,0.7644541015625,0.007299607619643211,0.0263882614672184,0.04391000047326088
1761506849345426400,0.774426513671875,0.014856593683362007,0.00610056659206748,0.033478401601314545
1761506849355398100,0.784398193359375,0.020609134808182716,-0.004114390350878239,0.01867995411157608
1761506849365370400,0.794370361328125,0.02922658994793892,-0.0010690651834011078,-0.00004126923158764839
1761506849375342300,0.80434228515625,0.037199076265096664,0.0021455930545926094,-0.01667398400604725
1761506849385313300,0.814313232421875,0.033168379217386246,0.007190418895334005,-0.026560967788100243
1761506849395285200,0.82428515625,0.03182351961731911,0.011644347570836544,-0.0214693583548069
1761506849405257200,0.83425732421875,0.04105856269598007,0.008891704492270947,-0.012667079456150532
1761506849415229400,0.8442294921875,0.05270235985517502,-0.0005133177619427443,-0.0029417769983410835
1761506849425200000,0.8542001953125,0.05879221111536026,-0.019672896713018417,0.003369382116943598
1761506849435172400,0.86417236328125,0.058430127799510956,-0.04034273326396942,0.0062458328902721405
1761506849445144000,0.87414404296875,0.05023132264614105,-0.05609985440969467,0.006632790435105562
1761506849455116300,0.8841162109375,0.036518488079309464,-0.057915106415748596,-0.004943647421896458
1761506849465087200,0.894087158203125,0.029554318636655807,-0.043715398758649826,-0.00022346043260768056
1761506849475059200,0.90405908203125,0.02188967354595661,-0.023947281762957573,0.009100142866373062
1761506849485031400,0.914031494140625,0.014589682221412659,-0.005748038180172443,0.016628632321953773
1761506849495003100,0.924003173828125,0.007350711617618799,0.0022805314511060715,0.025662286207079887
1761506849504975400,0.933975341796875,-0.0012555592693388462,-0.002673481125384569,0.026539532467722893
1761506849514946300,0.9439462890625,-0.012935733422636986,-0.018887363374233246,0.023071594536304474
1761506849524918300,0.953918212890625,-0.023573463782668114,-0.026229964569211006,0.016986006870865822
1761506849534890200,0.96389013671875,-0.04046478495001793,-0.026510804891586304,0.011874953284859657
1761506849544862200,0.9738623046875,-0.05532469227910042,-0.02335415966808796,0.004853529389947653
1761506849554833200,0.983833251953125,-0.06278767436742783,-0.02342122606933117,-0.013372550718486309
1761506849564805400,0.993805419921875,-0.06729800254106522,-0.02397889271378517,-0.02213674783706665
1761506849574777300,1.00377734375,-0.07137690484523773,-0.024074874818325043,-0.0236845463514328
1761506849584749300,1.013749267578125,-0.06929431110620499,-0.026310598477721214,-0.0264584943652153
1761506849594720300,1.02372021484375,-0.06552726775407791,-0.029388414695858955,-0.03269109129905701
1761506849604692200,1.033692138671875,-0.06196955591440201,-0.021376026794314384,-0.048737701028585434
1761506849614664200,1.043664306640625,-0.058486513793468475,-0.006254352629184723,-0.05996502563357353
1761506849624636200,1.05363623046875,-0.053251270204782486,0.01771063543856144,-0.061068374663591385
1761506849634608400,1.0636083984375,-0.044710248708724976,0.039140451699495316,-0.052152615040540695
1761506849644579000,1.0735791015625,-0.03631623089313507,0.05100430175662041,-0.028795626014471054
1761506849654551300,1.08355126953125,-0.030735613778233528,0.050873059779405594,-0.0016901816707104445
1761506849664523300,1.093523193359375,-0.022461438551545143,0.02455942891538143,0.014486391097307205
1761506849674495200,1.1034951171875,-0.019510546699166298,-0.00040396046824753284,0.02123987302184105
1761506849684466400,1.113466552734375,-0.010530633851885796,-0.01982106640934944,0.022731775417923927
1761506849694438100,1.123438232421875,0.004331936594098806,-0.02522488683462143,0.01667068712413311
1761506849704410400,1.133410400390625,0.013072164729237556,-0.017483344301581383,0.010376306250691414
1761506849714382000,1.143382080078125,0.019373204559087753,-0.005394724663347006,0.005725096445530653
1761506849724353300,1.153353271484375,0.03221257030963898,0.00378785515204072,0.00794297643005848
1761506849734325500,1.163325439453125,0.04282134771347046,0.013712352141737938,0.01622040756046772
1761506849744297500,1.17329736328125,0.051757317036390305,0.005105548072606325,0.022674577310681343
1761506849754269400,1.18326953125,0.05538766458630562,-0.004582350607961416,0.026623956859111786
1761506849764241400,1.193241455078125,0.054998576641082764,-0.020066767930984497,0.02598719485104084
1761506849774212400,1.20321240234375,0.05394256114959717,-0.026844581589102745,0.024254512041807175
1761506849784184600,1.2131845703125,0.05742517486214638,-0.02831251733005047,0.016022413969039917
1761506849794156300,1.22315625,0.06479794532060623,-0.02191590890288353,0.011775532737374306
1761506849804128500,1.23312841796875,0.07051069289445877,-0.008517547510564327,0.007501158397644758
1761506849814099200,1.24309912109375,0.07459087669849396,-0.005950268357992172,0.006305281072854996
1761506849824071400,1.253071533203125,0.07384972274303436,-0.001564042060635984,0.007550841197371483
1761506849834043400,1.26304345703125,0.07371553778648376,-0.001380432047881186,0.014378741383552551
1761506849844015400,1.273015380859375,0.07358051836490631,-0.008979761973023415,0.028119586408138275
1761506849853987300,1.2829873046875,0.0722043514251709,-0.008150424808263779,0.040669821202754974
1761506849863958300,1.292958251953125,0.07163230329751968,-0.0007202054839581251,0.05256988853216171
1761506849873930500,1.302930419921875,0.07005038857460022,-0.005344141274690628,0.051609527319669724
1761506849883902200,1.312902099609375,0.06633128225803375,-0.00951332040131092,0.04846886172890663
1761506849893874400,1.32287451171875,0.06464412063360214,-0.017263449728488922,0.03970490023493767
1761506849903845400,1.332845458984375,0.0601859912276268,-0.017930038273334503,0.029328159987926483
1761506849913817300,1.3428173828125,0.0579041950404644,-0.012816399335861206,0.01869945414364338
1761506849923789600,1.35278955078125,0.05856039747595787,-0.009305021725594997,0.009064937010407448
1761506849933761300,1.36276123046875,0.05359075590968132,-0.0062820496968925,0.009446270763874054
1761506849943732500,1.372732421875,0.051633331924676895,-0.006460214965045452,0.011120334267616272
1761506849953704400,1.382704345703125,0.045368630439043045,-0.008080665022134781,0.010442439466714859
1761506849963676400,1.392676513671875,0.04450097307562828,-0.017355389893054962,0.01231357641518116
1761506849973648400,1.4026484375,0.03861120343208313,-0.011133527383208275,0.011028598062694073
1761506849983620400,1.412620361328125,0.03294479474425316,-0.0033131553791463375,0.0182550847530365
1761506849993591300,1.42259130859375,0.02503831870853901,-0.0037524516228586435,0.02017742022871971
1761506850003563500,1.4325634765625,0.021266749128699303,-0.01181703619658947,0.017189085483551025
1761506850013535500,1.442535400390625,0.01955379918217659,-0.016462335363030434,0.010963475331664085
1761506850023507500,1.452507568359375,0.022001776844263077,-0.0157209113240242,0.000853316392749548
1761506850033478400,1.462478515625,0.017867112532258034,-0.012560717761516571,-0.006260786205530167
1761506850043450400,1.472450439453125,0.021589145064353943,-0.01060356106609106,-0.014004992321133614
1761506850053422300,1.48242236328125,0.016211804002523422,-0.009387168101966381,-0.01991140842437744
1761506850063394300,1.492394287109375,0.014246391132473946,-0.003090656129643321,-0.01875213533639908
1761506850073366500,1.502366455078125,0.015423959121108055,-0.0009161997586488724,-0.016136882826685905
1761506850083337200,1.512337158203125,0.01961311139166355,0.0026681488379836082,-0.00941852480173111
1761506850093309400,1.522309326171875,0.018909890204668045,-0.0008752710418775678,-0.003084877971559763
1761506850103281400,1.532281494140625,0.02230781689286232,-0.005981882568448782,0.006647644564509392
1761506850113253400,1.54225341796875,0.021964266896247864,-0.006754945032298565,0.015445990487933159
1761506850123224600,1.552224609375,0.024125421419739723,-0.008240989409387112,0.020351532846689224
1761506850133196300,1.5621962890625,0.02061043493449688,-0.007764364592730999,0.017835494130849838
1761506850143168500,1.57216845703125,0.018536631017923355,-0.006434381939470768,0.013522239401936531
1761506850153140200,1.58214013671875,0.012569436803460121,-0.0013857990270480514,0.0020044229459017515
1761506850163111400,1.592111328125,0.005821253173053265,0.008140594698488712,0.00039347680285573006
1761506850173083400,1.60208349609375,0.004366178065538406,0.014702160842716694,0.00287450710311532
1761506850183055400,1.612055419921875,0.005130505654960871,0.016050251200795174,0.0038657356053590775
1761506850193027600,1.622027587890625,0.005509512033313513,0.010810384526848793,0.0106521500274539
1761506850202999300,1.631999267578125,0.007986518554389477,0.005564489867538214,0.008836140856146812
1761506850212970500,1.641970458984375,0.003223611041903496,-0.0014540193369612098,0.006123206112533808
1761506850222942500,1.6519423828125,0.0018278486095368862,-0.007102850824594498,0.0037798904813826084
1761506850232914400,1.66191455078125,0.0002670031972229481,-0.007442458067089319,0.002204041462391615
1761506850242886400,1.671886474609375,0.0012276051566004753,-0.010651301592588425,-0.0019238581880927086
1761506850252857300,1.681857421875,-0.004052073694765568,-0.004790048114955425,-0.003884062869474292
1761506850262829300,1.691829345703125,-0.006753318011760712,0.005056190770119429,-0.0011527249589562416
1761506850272801300,1.70180126953125,-0.005857737269252539,0.016927754506468773,0.0068712616339325905
1761506850282773500,1.7117734375,-0.00649876007810235,0.027340447530150414,0.018901292234659195
1761506850292744400,1.721744384765625,0.0003461753949522972,0.024488380178809166,0.03577721118927002
1761506850302716400,1.73171630859375,-0.0036139455623924732,0.0033679145853966475,0.044538214802742004
1761506850312688400,1.7416884765625,-0.0032275966368615627,-0.024597475305199623,0.041030533611774445
1761506850322660400,1.751660400390625,-0.007100099232047796,-0.05585819482803345,0.029238320887088776
1761506850332632300,1.76163232421875,-0.006220956798642874,-0.06943583488464355,0.005197908729314804
1761506850342603500,1.771603515625,-0.0029521924443542957,-0.058188240975141525,-0.0217913631349802
1761506850352575200,1.7815751953125,0.004081215709447861,-0.02855764329433441,-0.04301596060395241
1761506850362547500,1.79154736328125,0.008451729081571102,0.005173154640942812,-0.05308111011981964
1761506850372519400,1.80151953125,0.008936313912272453,0.021307362243533134,-0.04748071730136871
1761506850382490400,1.811490478515625,0.008305677212774754,0.020180579274892807,-0.029572825878858566
1761506850392462600,1.821462646484375,0.00159131595864892,0.008214462548494339,0.0025547505356371403
1761506850402434300,1.831434326171875,0.002371355891227722,-0.013751556165516376,0.024538081139326096
1761506850412406500,1.841406494140625,0.006049911491572857,-0.01922648400068283,0.03869985044002533
1761506850422377500,1.85137744140625,0.01431476604193449,-0.011440198868513107,0.04574337601661682
1761506850432349400,1.861349365234375,0.025584226474165916,0.0028058402240276337,0.05326148495078087
1761506850442321400,1.8713212890625,0.029888160526752472,0.013906694017350674,0.05031922459602356
1761506850452293400,1.88129345703125,0.027562687173485756,0.0221988745033741,0.04716553911566734
1761506850462265600,1.891265625,0.022723456844687462,0.022454004734754562,0.04113028198480606
1761506850472236300,1.901236328125,0.03021855279803276,0.029027793556451797,0.04679583013057709
1761506850482208500,1.91120849609375,0.03348172456026077,0.029361754655838013,0.052433475852012634
1761506850492180200,1.92118017578125,0.03367091715335846,0.026077449321746826,0.05373363569378853
1761506850502152400,1.93115234375,0.03530849516391754,0.020662710070610046,0.05463165417313576
1761506850512123400,1.941123291015625,0.04185907170176506,0.014532487839460373,0.047918058931827545
1761506850522095400,1.951095458984375,0.03871627897024155,0.005589592736214399,0.038296058773994446
1761506850532067300,1.9610673828125,0.032714955508708954,-0.010747550055384636,0.03897354006767273
1761506850542039300,1.971039306640625,0.022892950102686882,-0.018310926854610443,0.037742890417575836
1761506850552010200,1.98101025390625,0.013614723458886147,-0.017261382192373276,0.03659361973404884
1761506850561982500,1.990982421875,0.010485242120921612,-0.011282319203019142,0.026486922055482864
1761506850571954400,2.000954345703125,0.01255851797759533,-0.0005018959054723382,0.01529998891055584
1761506850581926400,2.010926513671875,0.009658335708081722,0.00007973844185471535,0.0003876178525388241
1761506850591898400,2.0208984375,0.007976394146680832,0.0046417550183832645,0.0024118574801832438
1761506850601869300,2.030869384765625,0.0010732142254710197,0.008149138651788235,0.012030129320919514
1761506850611841500,2.040841552734375,0.0002827565185725689,0.014508392661809921,0.023026881739497185
1761506850621813200,2.050813232421875,0.0011088689789175987,0.014951808378100395,0.026642123237252235
1761506850631785500,2.060785400390625,0.004806591663509607,0.01093089859932661,0.025287076830863953
1761506850641756400,2.07075634765625,0.005303537473082542,0.008219001814723015,0.02022280916571617
1761506850651728400,2.080728271484375,0.005718946922570467,0.006406068801879883,0.015318778343498707
1761506850661700600,2.09070068359375,0.002999060321599245,0.01117792073637247,0.015840493142604828
1761506850671672300,2.10067236328125,-0.010791739448904991,0.015166400000452995,0.022129222750663757
1761506850681643500,2.1106435546875,-0.022778894752264023,0.028447318822145462,0.031194621697068214
1761506850691615200,2.120615234375,-0.03665829822421074,0.045525144785642624,0.04298224300146103
1761506850701587500,2.13058740234375,-0.04605339840054512,0.05603158101439476,0.05483943969011307
1761506850711559200,2.14055908203125,-0.04553936794400215,0.05745387449860573,0.062122270464897156
1761506850721532200,2.1505322265625,-0.035754915326833725,0.05741872265934944,0.06622699648141861
1761506850731503400,2.16050341796875,-0.02548423781991005,0.04962577298283577,0.06667615473270416
1761506850741475000,2.17047509765625,-0.015954118221998215,0.03170403093099594,0.05339976027607918
1761506850751447300,2.180447265625,-0.013768015429377556,0.022000567987561226,0.041206568479537964
1761506850761419000,2.1904189453125,-0.00922226533293724,0.020747816190123558,0.03171905502676964
1761506850771390200,2.20039013671875,-0.010335806757211685,0.027690447866916656,0.032102491706609726
1761506850781362200,2.210362060546875,-0.009413555264472961,0.04053007811307907,0.04326832666993141
1761506850791334100,2.220334228515625,-0.008826401084661484,0.05215348303318024,0.05875721573829651
1761506850801306400,2.230306396484375,-0.0021072463132441044,0.0532672181725502,0.06636001169681549
1761506850811277000,2.240277099609375,0.007143661379814148,0.04098102077841759,0.0709652304649353
1761506850821249300,2.250249267578125,0.017723334953188896,0.02637145295739174,0.06107744947075844
1761506850831221000,2.260220947265625,0.02376091480255127,0.012408803217113018,0.04956214874982834
1761506850841193200,2.270193115234375,0.030113883316516876,-0.001546160550788045,0.03573315218091011
1761506850851165200,2.280165283203125,0.030934520065784454,0.002016429789364338,0.014351577498018742
1761506850861136100,2.29013623046875,0.030146759003400803,0.0034667872823774815,0.010269217193126678
1761506850871108000,2.300108154296875,0.028968725353479385,0.006188457831740379,0.00229263654910028
1761506850881080000,2.310080078125,0.034676942974328995,0.004653944633901119,-0.010309441015124321
1761506850891052300,2.32005224609375,0.03638049215078354,-0.003958146553486586,-0.01225254312157631
1761506850901023200,2.330023193359375,0.035105373710393906,-0.004413813352584839,-0.008066587150096893
1761506850910995200,2.3399951171875,0.03241942077875137,-0.009674493223428726,-0.002282792702317238
1761506850920967200,2.34996728515625,0.025818776339292526,-0.01436645071953535,0.009487846866250038
1761506850930939100,2.359939208984375,0.024994337931275368,-0.02016967535018921,0.010601609945297241
1761506850940910000,2.36991015625,0.02597997337579727,-0.0288984514772892,-0.001710715820081532
1761506850950882300,2.37988232421875,0.027646727859973907,-0.030966738238930702,-0.01287936232984066
1761506850960854000,2.38985400390625,0.025638438761234283,-0.025807131081819534,-0.021509867161512375
1761506850970826200,2.399826171875,0.021942779421806335,-0.012308727018535137,-0.02527996152639389
1761506850980798200,2.409798095703125,0.01255327370017767,0.005370134953409433,-0.014767665416002274
1761506850990769200,2.41976904296875,0.014126623049378395,0.01619378663599491,-0.0030756453052163124
1761506851000741000,2.4297412109375,0.008281250484287739,0.018500883132219315,0.0076473066583275795
1761506851010713000,2.439713134765625,0.0060270000249147415,0.005320070311427116,0.01583191193640232
1761506851020685300,2.449685302734375,0.0002553975209593773,-0.006605032831430435,0.014870509505271912
1761506851030656000,2.459656005859375,-0.002942793071269989,-0.009771531447768211,0.014284348115324974
1761506851040628200,2.469628173828125,-0.003724430687725544,-0.005167724564671516,0.009230200201272964
1761506851050600000,2.479599853515625,-0.0009568776004016399,0.006648242473602295,0.0036615896970033646
1761506851060572200,2.489572265625,-0.005584120284765959,0.018813297152519226,-0.003898858092725277
1761506851070543000,2.499543212890625,-0.008220681920647621,0.01969202607870102,-0.013751725666224957
1761506851080515000,2.50951513671875,-0.010896358639001846,0.016652029007673264,-0.018581634387373924
1761506851090487300,2.5194873046875,-0.008958416990935802,0.020419325679540634,-0.01686694286763668
1761506851100459000,2.529458984375,-0.003324500285089016,0.016459472477436066,-0.0113552650436759
1761506851110431200,2.53943115234375,0.00037672556936740875,0.018292466178536415,0.00346851022914052
1761506851120402200,2.549402099609375,0.005262027960270643,0.01296641118824482,0.012767735868692398
1761506851130374100,2.5593740234375,0.009625154547393322,0.0036379049997776747,0.017079247161746025
1761506851140346000,2.56934619140625,0.010393742471933365,-0.010536236688494682,0.014265617355704308
1761506851150318000,2.579318115234375,0.006071093492209911,-0.015275989659130573,0.010848958976566792
1761506851160289000,2.5892890625,0.003497947473078966,-0.012559831142425537,0.009485420770943165
1761506851170261200,2.59926123046875,0.004037616774439812,-0.003132377751171589,-0.000407483137678355
1761506851180233200,2.609233154296875,0.0054871756583452225,0.0036597484722733498,-0.002031744923442602
1761506851190205200,2.619205078125,0.00828813947737217,0.004261700436472893,-0.008423716761171818
1761506851200176000,2.629176025390625,0.012603791430592537,0.008677488192915916,-0.009500965476036072
1761506851210148000,2.639148193359375,0.013209584169089794,0.006869132164865732,-0.006908407434821129
1761506851220120000,2.6491201171875,0.012990139424800873,0.0003739488311111927,-0.003432982135564089
1761506851230092000,2.659092041015625,0.008973944000899792,-0.00941175501793623,0.007271474227309227
1761506851240064300,2.669064208984375,0.009710574522614479,-0.015318647027015686,0.01415308192372322
1761506851250035000,2.679034912109375,0.00628540338948369,-0.018963361158967018,0.016045790165662766
1761506851260007200,2.689007080078125,0.0030565871857106686,-0.012370707467198372,0.011036652140319347
1761506851269979100,2.698979248046875,-0.0006959955208003521,-0.00481684785336256,0.0038948822766542435
1761506851279951000,2.708951171875,-0.0036670188419520855,0.0024623703211545944,-0.0024330546148121357
1761506851289922300,2.71892236328125,-0.00803209375590086,0.00913105346262455,-0.0009758314117789268
1761506851299894000,2.72889404296875,-0.010173008777201176,0.013093837536871433,-0.0034262058325111866
1761506851309866200,2.7388662109375,-0.013173894956707954,0.010835152119398117,-0.006998482160270214
1761506851319838000,2.748837890625,-0.014094283804297447,0.004900829866528511,-0.006200598552823067
1761506851329809200,2.75880908203125,-0.017505262047052383,0.0029550157487392426,-0.003907853737473488
1761506851339781000,2.768781005859375,-0.016140125691890717,0.008496787399053574,0.0023010403383523226
1761506851349753000,2.778753173828125,-0.011086322367191315,0.011698530986905098,0.013660220429301262
1761506851359725300,2.788725341796875,-0.017643025144934654,0.011455384083092213,0.0253155454993248
1761506851369697000,2.798697021484375,-0.018363479524850845,0.007919074036180973,0.031585805118083954
1761506851379668200,2.808668212890625,-0.018914487212896347,0.007407214026898146,0.0277700312435627
1761506851389640200,2.81864013671875,-0.020691081881523132,0.00031068886164575815,0.018170401453971863
1761506851399612200,2.828612060546875,-0.024088937789201736,0.00685914047062397,0.0001624923897907138
1761506851409584000,2.838584228515625,-0.02130209282040596,0.01646619848906994,-0.018809156492352486
1761506851419555000,2.84855517578125,-0.01708391308784485,0.024338502436876297,-0.02527025155723095
1761506851429527000,2.858527099609375,-0.012756691314280033,0.029600612819194794,-0.02103751339018345
1761506851439499300,2.868499267578125,0.0026206662878394127,0.0283686351031065,-0.0038713093381375074
1761506851449471200,2.87847119140625,0.01247778907418251,0.010508885607123375,0.013189254328608513
1761506851459442200,2.888442138671875,0.017672549933195114,-0.007020839489996433,0.02009269967675209
1761506851469414100,2.8984140625,0.020717114210128784,-0.01785600744187832,0.025842081755399704
1761506851479386000,2.90838623046875,0.02188784070312977,-0.016804592683911324,0.027423467487096786
1761506851489358000,2.918358154296875,0.022481340914964676,-0.0056343101896345615,0.021352645009756088
1761506851499330000,2.928330078125,0.025620676577091217,0.009107617661356926,0.0163019597530365
1761506851509301200,2.93830126953125,0.03289936110377312,0.02152806892991066,0.016332319006323814
1761506851519273000,2.94827294921875,0.032994966953992844,0.030946604907512665,0.021082598716020584
1761506851529245200,2.9582451171875,0.028660178184509277,0.02375224232673645,0.02390410006046295
1761506851539217200,2.968217041015625,0.023787125945091248,0.005433954764157534,0.02618616260588169
1761506851549188000,2.97818798828125,0.021175557747483253,-0.007371814921498299,0.02115565724670887
1761506851559160300,2.988160400390625,0.021252788603305817,-0.02072943188250065,0.014938773587346077
1761506851569132000,2.998132080078125,0.01924316957592964,-0.026737410575151443,0.004572389181703329
1761506851579104300,3.008104248046875,0.016275078058242798,-0.020617999136447906,-0.001166989328339696
1761506851589075200,3.0180751953125,0.014075875282287598,-0.010621769353747368,-0.006505383178591728
1761506851599047200,3.028047119140625,0.00963132455945015,0.0028679410461336374,-0.00290505588054657
1761506851609019100,3.03801904296875,0.007264609448611736,0.003737254999577999,-0.0033988936338573694
1761506851618991000,3.0479912109375,0.004092784598469734,-0.0015957251889631152,-0.002820188645273447
1761506851628963300,3.05796337890625,0.0038451424334198236,-0.00965832732617855,-0.010583067312836647
1761506851638934000,3.06793408203125,0.0005271099507808685,-0.018536241725087166,-0.018708104267716408
1761506851648906200,3.07790625,0.001606455072760582,-0.02135515585541725,-0.025422673672437668
1761506851658878200,3.087878173828125,0.00034145358949899673,-0.0149057786911726,-0.025103360414505005
1761506851668850200,3.09785009765625,-0.0007082773372530937,-0.005722685717046261,-0.01699865609407425
1761506851678821000,3.107821044921875,-0.003581029362976551,0.0014396196929737926,-0.005496996454894543
1761506851688793000,3.11779296875,-0.0013788281939923763,-0.00013756309635937214,0.000018354621715843678
1761506851698765000,3.12776513671875,-0.0008259559981524944,-0.0055091590620577335,0.008762577548623085
1761506851708737000,3.137737060546875,0.0012588384561240673,-0.015665272250771523,0.0056502316147089005
1761506851718708000,3.1477080078125,-0.0036826571449637413,-0.018438689410686493,-0.005220525432378054
1761506851728679400,3.157679443359375,-0.0015461202710866928,-0.008057497441768646,-0.01072835735976696
1761506851738651400,3.1676513671875,0.004076345358043909,0.002521110698580742,-0.011876977980136871
1761506851748623600,3.17762353515625,0.00322063360363245,0.008452336303889751,-0.015026580542325974
1761506851758595600,3.187595703125,0.0036688433028757572,0.009244093671441078,-0.009418230503797531
1761506851768566500,3.19756640625,-0.0019520223140716553,-0.005812780931591988,-0.009159400127828121
1761506851778538500,3.20753857421875,-0.0022545577958226204,-0.018378639593720436,-0.007561769336462021
1761506851788510500,3.217510498046875,-0.0029612453654408455,-0.030947990715503693,-0.00915575958788395
1761506851798482400,3.227482421875,-0.000044284388422966003,-0.028866996988654137,-0.007465451955795288
1761506851808453600,3.23745361328125,0.0016648918390274048,-0.015386349521577358,-0.006950248498469591
1761506851818425300,3.24742529296875,0.006153116934001446,-0.004910539370030165,-0.0033706936519593
1761506851828397600,3.2573974609375,0.006214451044797897,-0.003610100131481886,-0.005505514331161976
1761506851838369500,3.26736962890625,0.003903625998646021,0.006261172704398632,-0.012624143622815609
1761506851848340500,3.277340576171875,0.004044809378683567,0.008329175412654877,-0.011475343257188797
1761506851858312700,3.287312744140625,0.01073946338146925,0.008335834369063377,-0.00890273042023182
1761506851868284400,3.297284423828125,0.010891643352806568,0.00706030847504735,-0.0012738981749862432
1761506851878256600,3.307256591796875,0.011465820483863354,0.0045002116821706295,0.007025310769677162
1761506851888228400,3.317228271484375,0.01444525457918644,0.0029696738347411156,0.014584456570446491
1761506851898199600,3.327199462890625,0.016696691513061523,0.0001973230391740799,0.020939823240041733
1761506851908171500,3.337171630859375,0.020463772118091583,-0.006730989087373018,0.021482989192008972
1761506851918143500,3.3471435546875,0.019225135445594788,-0.0039975205436348915,0.014301509596407413
1761506851928115700,3.35711572265625,0.014458037912845612,0.0016697848914191127,0.00960647501051426
1761506851938086400,3.36708642578125,0.016106534749269485,0.011309895664453506,0.01333729736506939
1761506851948058600,3.37705859375,0.011480011977255344,0.016875457018613815,0.01665293425321579
1761506851958030300,3.3870302734375,0.012164444662630558,0.015384086407721043,0.015853719785809517
1761506851968002600,3.39700244140625,0.010891796089708805,0.006871094927191734,0.02112281322479248
1761506851977973500,3.406973388671875,0.007453122641891241,-0.0004235693486407399,0.02424323931336403
1761506851987945500,3.416945556640625,0.00875496119260788,0.0007941671065054834,0.022257253527641296
1761506851997917400,3.42691748046875,0.007622851058840752,-0.003672752995043993,0.01812402904033661
1761506852007889400,3.436889404296875,0.004474337212741375,0.0021921794395893812,0.012968627735972404
1761506852017861600,3.446861572265625,0.000673739705234766,0.005206078756600618,0.003706153715029359
1761506852027832600,3.45683251953125,-0.0020572147332131863,0.011382026597857475,0.000423689023591578
1761506852037804500,3.466804443359375,-0.007446387317031622,0.010023548267781734,-0.007934109307825565
1761506852047776500,3.476776611328125,-0.010897005908191204,0.012445594184100628,-0.0053296564146876335
1761506852057748500,3.48674853515625,-0.011274109594523907,0.013203263282775879,-0.0060998424887657166
1761506852067719400,3.496719482421875,-0.015383630990982056,0.012148762121796608,-0.005603460129350424
1761506852077691600,3.506691650390625,-0.01895599626004696,0.009970828890800476,0.0013639021199196577
1761506852087663400,3.516663330078125,-0.01748201623558998,0.002999026793986559,0.0005676185246556997
1761506852097635600,3.526635498046875,-0.01873636431992054,-0.003168588038533926,0.003538374789059162
1761506852107606500,3.5366064453125,-0.016525408253073692,-0.00880410335958004,0.005065164994448423
1761506852117578500,3.54657861328125,-0.018542487174272537,-0.009594263508915901,0.004176468122750521
1761506852127550700,3.55655078125,-0.021028470247983932,-0.0031570675782859325,0.005603418685495853
1761506852137522400,3.5665224609375,-0.023872192949056625,0.0026606079190969467,0.0015514192637056112
1761506852147494700,3.57649462890625,-0.02689332515001297,0.0003383224830031395,-0.009705081582069397
1761506852157465300,3.58646533203125,-0.027290936559438705,-0.0021578583400696516,-0.02144669182598591
1761506852167437600,3.5964375,-0.02727464586496353,-0.0037314007058739662,-0.03490622341632843
1761506852177409500,3.606409423828125,-0.026877835392951965,-0.004980157129466534,-0.0403158999979496
1761506852187381500,3.616381591796875,-0.03167719766497612,-0.0008974442025646567,-0.04096117988228798
1761506852197352400,3.6263525390625,-0.029410846531391144,0.00751707935705781,-0.030057935044169426
1761506852207324400,3.636324462890625,-0.021995317190885544,0.017179712653160095,-0.02007010579109192
1761506852217296600,3.646296630859375,-0.013885460793972015,0.016871318221092224,-0.006155088078230619
1761506852227268400,3.656268310546875,-0.014687635004520416,0.008309676311910152,0.005609455518424511
1761506852237239600,3.666239501953125,-0.006755942944437265,-0.0030018342658877373,0.012663636356592178
1761506852247211500,3.67621142578125,-0.0053316401317715645,-0.01525038294494152,0.015501054003834724
1761506852257183500,3.68618359375,-0.0050421543419361115,-0.016959333792328835,0.013890107162296772
1761506852267155500,3.696155517578125,-0.0037094801664352417,-0.008762132376432419,0.0078010596334934235
1761506852277127400,3.70612744140625,-0.007991842925548553,0.0015448334161192179,-0.00027044862508773804
1761506852287098400,3.716098388671875,-0.008997112512588501,0.011647497303783894,-0.00536901131272316
1761506852297070600,3.726070556640625,-0.012948444113135338,0.015187637880444527,-0.01054965890944004
1761506852307042600,3.73604248046875,-0.010816538706421852,0.01774662919342518,-0.010562650859355927
1761506852317014500,3.7460146484375,-0.006499554496258497,0.01564193330705166,-0.006212643347680569
1761506852326985500,3.7559853515625,-0.0016619553789496422,0.01789902150630951,0.0007854003924876451
1761506852336957400,3.76595751953125,0.0024142786860466003,0.01395434606820345,0.012252971529960632
1761506852346929700,3.7759296875,0.008218017406761646,0.009720366448163986,0.024126533418893814
1761506852356901400,3.7859013671875,0.008765297010540962,0.007734979502856731,0.029191600158810616
1761506852366872600,3.79587255859375,0.008603913709521294,0.001746542053297162,0.030231503769755363
1761506852376844300,3.80584423828125,0.005067768041044474,-0.0059483954682946205,0.01781265065073967
1761506852386816500,3.81581640625,0.005755658261477947,-0.0074157435446977615,0.006524902302771807
1761506852396788500,3.82578857421875,0.007803629152476788,-0.0019298981642350554,-0.006366128567606211
1761506852406760400,3.835760498046875,0.009347161278128624,0.008910703472793102,-0.013049774803221226
1761506852416731600,3.845731689453125,0.013499028980731964,0.011097424663603306,-0.001543853897601366
1761506852426703400,3.855703369140625,0.016501283273100853,0.013916506431996822,0.011661251075565815
1761506852436675600,3.865675537109375,0.016997696831822395,0.008912959136068821,0.028976859524846077
1761506852446647300,3.875647216796875,0.014614362269639969,-0.003146651666611433,0.040634993463754654
1761506852456618500,3.885618408203125,0.01116556953638792,-0.012325768359005451,0.037156905978918076
1761506852466590500,3.895590576171875,0.006412933114916086,-0.013601411134004593,0.027226628735661507
1761506852476562400,3.9055625,-0.0001046210527420044,-0.010110273957252502,0.008481170982122421
1761506852486534700,3.91553466796875,-0.008635645732283592,-0.000868758768774569,-0.019830211997032166
1761506852496506400,3.92550634765625,-0.009872151538729668,0.016497714444994926,-0.03525790572166443
1761506852506477600,3.9354775390625,-0.00694655254483223,0.027304524555802345,-0.04744994640350342
1761506852516449500,3.945449462890625,-0.007532981224358082,0.03330036625266075,-0.05016210675239563
1761506852526421500,3.95542138671875,-0.011291807517409325,0.02412683516740799,-0.05083787068724632
1761506852536393500,3.9653935546875,-0.010048644617199898,0.01870623789727688,-0.04039615020155907
1761506852546364700,3.97536474609375,-0.006109940353780985,0.01815163716673851,-0.025326859205961227
1761506852556336400,3.98533642578125,0.006696934346109629,0.010066811926662922,-0.005455149803310633
1761506852566308600,3.99530859375,0.014794202521443367,-0.0037050473038107157,0.009920521639287472
1761506852576280600,4.005280517578125,0.01708958111703396,-0.010766951367259026,0.030475333333015442
1761506852586251500,4.01525146484375,0.013765421696007252,-0.024928949773311615,0.04279248043894768
1761506852596223500,4.025223388671875,0.008724058046936989,-0.02376408316195011,0.053612902760505676
1761506852606195500,4.035195556640625,0.01127201970666647,-0.021695636212825775,0.0535891130566597
1761506852616167400,4.04516748046875,0.015223351307213306,-0.009624593891203403,0.039978496730327606
1761506852626138400,4.055138427734375,0.014232348650693893,0.003407844342291355,0.022156236693263054
1761506852636110600,4.065110595703125,0.005386126693338156,0.010972020216286182,0.01046602614223957
1761506852646082300,4.075082275390625,0.0035837776958942413,0.016852721571922302,0.005754893645644188
1761506852656054500,4.085054443359375,-0.0020061973482370377,0.023918088525533676,0.006306967232376337
1761506852666026500,4.095026611328125,-0.0015547862276434898,0.017300354316830635,0.011155989952385426
1761506852675997400,4.10499755859375,0.0001328587532043457,0.005379777401685715,0.021297838538885117
1761506852685969700,4.1149697265625,-0.0014267652295529842,-0.013702107593417168,0.024005979299545288
1761506852695941400,4.12494140625,-0.004352514166384935,-0.02315846085548401,0.022480521351099014
1761506852705913600,4.13491357421875,-0.007891358807682991,-0.019410649314522743,0.02344600297510624
1761506852715884500,4.144884521484375,-0.0041884989477694035,-0.008173441514372826,0.018806245177984238
1761506852725857000,4.15485693359375,-0.0023681223392486572,0.006374141201376915,0.019600430503487587
1761506852735829000,4.1648291015625,-0.0028509534895420074,0.01860923506319523,0.01979457587003708
1761506852745801000,4.174801025390625,0.00021187588572502136,0.023233162239193916,0.024678191170096397
1761506852755772200,4.184772216796875,-0.004998598713427782,0.017447179183363914,0.02384701929986477
1761506852765743900,4.194743896484375,-0.005979446228593588,-0.0005898269591853023,0.022510703653097153
1761506852775716000,4.204716064453125,-0.009269248694181442,-0.013187644071877003,0.011825302615761757
1761506852785687800,4.214687744140625,-0.008081813342869282,-0.02251925878226757,-0.000923399580642581
1761506852795660000,4.224659912109375,-0.004512910731136799,-0.02210087515413761,-0.005987666547298431
1761506852805631000,4.234630859375,-0.003939908463507891,-0.009517449885606766,-0.013359537348151207
1761506852815603000,4.24460302734375,0.0034082853235304356,0.0002776561304926872,-0.011483073234558105
1761506852825575200,4.2545751953125,0.006368117406964302,0.00305803376249969,-0.014098234474658966
1761506852835547000,4.264546875,0.012812168337404728,-0.00008529529441148043,-0.008434223011136055
1761506852845518000,4.27451806640625,0.0100975651293993,-0.004675108008086681,-0.0057591646909713745
1761506852855490000,4.284489990234375,0.012221170589327812,-0.009294361807405949,-0.0026115744840353727
1761506852865462000,4.2944619140625,0.012298669666051865,-0.009329140186309814,-0.007072399370372295
1761506852875434000,4.30443408203125,0.012054458260536194,-0.01249057799577713,-0.009748077020049095
1761506852885405200,4.3144052734375,0.011381549760699272,-0.006125770974904299,-0.015324913896620274
1761506852895377000,4.324376953125,0.009360210970044136,0.0017830186989158392,-0.01494594570249319
1761506852905349000,4.33434912109375,0.00793484877794981,0.0044164517894387245,-0.015320534817874432
1761506852915321000,4.344321044921875,0.004245039075613022,0.0007588661392219365,-0.01587766781449318
1761506852925293000,4.35429296875,-0.004789200611412525,-0.005321023985743523,-0.021808290854096413
1761506852935264000,4.364263916015625,-0.008915236219763756,-0.011728056706488132,-0.02503204718232155
1761506852945236000,4.374236083984375,-0.015115756541490555,-0.014787682332098484,-0.024825772270560265
1761506852955208000,4.3842080078125,-0.022018669173121452,-0.009004361927509308,-0.016212841495871544
1761506852965180000,4.394179931640625,-0.01898982562124729,-0.004117350559681654,-0.009695582091808319
1761506852975151000,4.404151123046875,-0.0166289322078228,0.0016308161430060863,-0.0014411152806133032
1761506852985122800,4.414122802734375,-0.016159944236278534,-0.0029219104908406734,-0.005989854224026203
1761506852995095000,4.424094970703125,-0.017618291079998016,-0.007558474317193031,-0.013721277005970478
1761506853005067000,4.43406689453125,-0.01640705019235611,-0.009021022357046604,-0.020643986761569977
1761506853015038000,4.444037841796875,-0.02332274802029133,-0.00458659278228879,-0.02925691567361355
1761506853025010200,4.45401025390625,-0.020210692659020424,0.007449860218912363,-0.026730019599199295
1761506853034982000,4.46398193359375,-0.01464841514825821,0.009983858093619347,-0.026552919298410416
1761506853044954000,4.4739541015625,-0.012783825397491455,0.00988747738301754,-0.0203270111232996
1761506853054925800,4.48392578125,-0.008798139169812202,-0.002249612705782056,-0.011834191158413887
1761506853064897000,4.49389697265625,-0.005901328753679991,-0.013998867012560368,-0.0056187608279287815
1761506853074869000,4.503868896484375,-0.0004266682080924511,-0.02547496184706688,-0.003620857372879982
1761506853084841000,4.513841064453125,0.006123977713286877,-0.024555101990699768,-0.006207196973264217
1761506853094813200,4.523813232421875,0.00968941766768694,-0.020462889224290848,-0.01611841656267643
1761506853104784100,4.5337841796875,0.014401310123503208,-0.013493032194674015,-0.024661719799041748
1761506853114756000,4.543756103515625,0.01020123902708292,-0.008330227807164192,-0.03287144750356674
1761506853124728000,4.55372802734375,0.010790443047881126,-0.005825662519782782,-0.03978773206472397
1761506853134700000,4.563699951171875,0.0070391143672168255,-0.006115148309618235,-0.03626437485218048
1761506853144671000,4.5736708984375,0.011143460869789124,-0.009667347185313702,-0.027793271467089653
1761506853154643000,4.583642822265625,0.01165984757244587,-0.018326882272958755,-0.01802586205303669
1761506853164615000,4.593614990234375,0.016182048246264458,-0.023871712386608124,-0.01114126481115818
1761506853174587100,4.603587158203125,0.01956799253821373,-0.023519642651081085,-0.015790345147252083
1761506853184559000,4.61355908203125,0.02343045547604561,-0.015610303729772568,-0.01874062605202198
1761506853194530000,4.623530029296875,0.022165454924106598,-0.01072393637150526,-0.014299271628260612
1761506853204502000,4.633501953125,0.020974038168787956,-0.006468974053859711,-0.01027580164372921
1761506853214474000,4.643473876953125,0.01732897013425827,-0.007227175869047642,0.001463678665459156
1761506853224446000,4.653446044921875,0.013233978301286697,-0.00633792020380497,0.0057336147874593735
1761506853234417000,4.6634169921875,0.008779574185609818,-0.009001613594591618,0.0051378654316067696
1761506853244389000,4.67338916015625,0.012059362605214119,-0.01246605720371008,-0.0013069509295746684
1761506853254360800,4.68336083984375,0.011418339796364307,-0.016024839133024216,-0.017776206135749817
1761506853264333000,4.6933330078125,0.010647625662386417,-0.008633018471300602,-0.03521038219332695
1761506853274304000,4.703303955078125,0.009345605969429016,0.0016459841281175613,-0.04651017487049103
1761506853284276000,4.71327587890625,0.007896422408521175,0.009387971833348274,-0.04452638700604439
1761506853294248200,4.723248291015625,0.006453521549701691,0.015296993777155876,-0.04015666991472244
1761506853304220000,4.733219970703125,0.0016952920705080032,0.019534092396497726,-0.03046823851764202
1761506853314192100,4.743192138671875,-0.0009787874296307564,0.02099217288196087,-0.01705336384475231
1761506853324163000,4.7531630859375,-0.0019343323074281216,0.024779347702860832,-0.008556252345442772
1761506853334135000,4.763135009765625,-0.0037870933301746845,0.016540858894586563,-0.004354051314294338
1761506853344107000,4.77310693359375,-0.005241896957159042,0.013911537826061249,-0.009555768221616745
1761506853354079000,4.783078857421875,-0.001335039734840393,0.01801280491054058,-0.014964381232857704
1761506853364050000,4.7930498046875,-0.0011032340116798878,0.01583808660507202,-0.020163433626294136
1761506853374022000,4.80302197265625,0.0033471742644906044,0.021519143134355545,-0.025445014238357544
1761506853383994000,4.812994140625,0.007425234187394381,0.021823108196258545,-0.033354751765728
1761506853393966000,4.822966064453125,0.011800541542470455,0.016004100441932678,-0.04161028563976288
1761506853403937000,4.83293701171875,0.01554369181394577,0.009545205160975456,-0.045595940202474594
1761506853413909000,4.842908935546875,0.022806929424405098,0.005982427857816219,-0.04136018082499504
1761506853423881000,4.852880859375,0.03335366025567055,0.008195959031581879,-0.029760252684354782
1761506853433853000,4.86285302734375,0.04132184013724327,0.0004504215903580189,-0.018163785338401794
1761506853443824000,4.87282421875,0.04686851426959038,0.005956368520855904,-0.010642810724675655
1761506853453795800,4.8827958984375,0.05368940159678459,0.007385953329503536,-0.0017992514185607433
1761506853463768000,4.89276806640625,0.062046173959970474,0.007199857849627733,0.002762388903647661
1761506853473740000,4.902739990234375,0.06936347484588623,0.00355478934943676,0.005229807458817959
1761506853483712000,4.9127119140625,0.07276718318462372,-0.005687938537448645,0.000013414653949439526
1761506853493683200,4.92268310546875,0.0745357945561409,-0.010806800797581673,-0.005430619232356548
1761506853503655000,4.932655029296875,0.07834852486848831,-0.008315916173160076,-0.0062401313334703445
1761506853513627100,4.942627197265625,0.0749703049659729,-0.008212319575250149,-0.004470993764698505
1761506853523598800,4.952598876953125,0.07611991465091705,-0.0015847372123971581,-0.0028702272102236748
1761506853533570000,4.962570068359375,0.07724163681268692,-0.0026025972329080105,-0.003823106177151203
1761506853543542000,4.9725419921875,0.07627011090517044,-0.012593287974596024,-0.011710559949278831
1761506853553514000,4.982513916015625,0.06758900731801987,-0.02057717740535736,-0.023328067734837532
1761506853563486200,4.992486328125,0.05775931850075722,-0.013544241897761822,-0.037518277764320374
1761506853573458000,5.0024580078125,0.05310651287436485,0.01472148485481739,-0.04147174209356308
1761506853583429000,5.01242919921875,0.05099336802959442,0.04074713587760925,-0.03684449940919876
1761506853593400800,5.02240087890625,0.04886630177497864,0.05012891814112663,-0.024165987968444824
1761506853603373000,5.032373046875,0.047363974153995514,0.042403507977724075,-0.0052461810410022736
1761506853613345000,5.042344970703125,0.04372609406709671,0.020377038046717644,0.007299969904124737
1761506853623316000,5.05231591796875,0.041212908923625946,0.0023078673984855413,0.016376111656427383
1761506853633288000,5.062287841796875,0.039469875395298004,-0.003982252907007933,0.022939739748835564
1761506853643260000,5.072260009765625,0.042249687016010284,0.002322468673810363,0.023323707282543182
1761506853653232000,5.082232177734375,0.03932233899831772,0.013395359739661217,0.018335871398448944
1761506853663203000,5.092203125,0.036933135241270065,0.02425570785999298,0.012651653029024601
1761506853673175000,5.102175048828125,0.03750118613243103,0.03756192699074745,0.0017798300832509995
1761506853683147000,5.11214697265625,0.03968619555234909,0.0385127030313015,-0.008000805974006653
1761506853693119000,5.122118896484375,0.0437224842607975,0.04247868433594704,-0.013423268683254719
1761506853703090000,5.13208984375,0.045463927090168,0.02875552326440811,-0.009614977985620499
1761506853713062100,5.142062255859375,0.050966016948223114,0.02163742668926716,-0.007370199542492628
1761506853723033600,5.15203369140625,0.049958810210227966,0.012218889780342579,-0.003268931293860078
1761506853733005600,5.162005615234375,0.05678901821374893,0.011455095373094082,-0.002392218681052327
1761506853742977500,5.1719775390625,0.06133975088596344,0.012583141215145588,-0.00915108434855938
1761506853752948500,5.181948486328125,0.06927570700645447,0.016492662951350212,-0.01921384036540985
1761506853762920700,5.191920654296875,0.0733233243227005,0.021707218140363693,-0.025373317301273346
1761506853772892700,5.201892578125,0.07939080148935318,0.02757655829191208,-0.03341686353087425
1761506853782864600,5.21186474609375,0.08284371346235275,0.029526282101869583,-0.03021964803338051
1761506853792835800,5.2218359375,0.09114931523799896,0.03105999529361725,-0.028683004900813103
1761506853802807600,5.2318076171875,0.09703706204891205,0.02790272794663906,-0.025798775255680084
1761506853812779800,5.24177978515625,0.10592589527368546,0.01839044876396656,-0.020701484754681587
1761506853822751500,5.25175146484375,0.11219315230846405,0.00813855417072773,-0.015829967334866524
1761506853832722700,5.26172265625,0.11745742708444595,0.0026322021149098873,-0.01005650032311678
1761506853842694400,5.2716943359375,0.12477963417768478,0.005618373863399029,-0.0022537936456501484
1761506853852666600,5.28166650390625,0.13200372457504272,0.015021462924778461,0.0009561143815517426
1761506853862638600,5.291638671875,0.14073067903518677,0.02314549870789051,0.0045867133885622025
1761506853872610600,5.301610595703125,0.14683596789836884,0.0249447301030159,0.00860142894089222
1761506853882581800,5.311581787109375,0.15307918190956116,0.02669633738696575,0.011586891487240791
1761506853892553500,5.321553466796875,0.1604127287864685,0.023352472111582756,0.011068107560276985
1761506853902525700,5.331525634765625,0.16647744178771973,0.014291149564087391,0.017157040536403656
1761506853912497400,5.341497314453125,0.16286006569862366,0.008106490597128868,0.018911797553300858
1761506853922468600,5.351468505859375,0.15957501530647278,0.004850288853049278,0.017231669276952744
1761506853932440600,5.361440673828125,0.15545803308486938,0.014257372356951237,0.011179368942975998
1761506853942412500,5.37141259765625,0.15758270025253296,0.030825961381196976,0.007245879154652357
1761506853952384800,5.381384765625,0.15799808502197266,0.04714377224445343,-0.0026198006235063076
1761506853962355700,5.391355712890625,0.1610419601202011,0.05143629014492035,-0.01277301274240017
1761506853972327700,5.40132763671875,0.1638989895582199,0.05047675222158432,-0.007730584591627121
1761506853982299600,5.411299560546875,0.1678152233362198,0.04620185121893883,-0.005244671367108822
1761506853992271600,5.421271728515625,0.16462688148021698,0.03116537816822529,0.004476399160921574
1761506854002243600,5.43124365234375,0.16375842690467834,0.019680337980389595,0.008589887991547585
1761506854012214800,5.44121484375,0.16575101017951965,0.0102314418181777,0.012363587506115437
1761506854022186500,5.4511865234375,0.17176565527915955,0.00181131053250283,0.011297820135951042
1761506854032158700,5.46115869140625,0.16957414150238037,0.002209453145042062,0.0010619601234793663
1761506854042130700,5.471130615234375,0.16781099140644073,0.008965169079601765,-0.009404114447534084
1761506854052101600,5.4811015625,0.16374407708644867,0.02594548463821411,-0.010061915032565594
1761506854062073600,5.491073486328125,0.16137203574180603,0.04009731486439705,-0.015380602329969406
1761506854072045600,5.501045654296875,0.15749500691890717,0.04220440983772278,-0.017919393256306648
1761506854082017500,5.511017578125,0.1567087024450302,0.03398357331752777,-0.014905612915754318
1761506854091988500,5.520988525390625,0.155135840177536,0.02958350069820881,-0.00811881385743618
1761506854101960700,5.530960693359375,0.1535390019416809,0.02110159769654274,0.005618037190288305
1761506854111932700,5.5409326171875,0.15248039364814758,0.016302049160003662,0.017904795706272125
1761506854121904600,5.550904541015625,0.15040266513824463,0.014252441003918648,0.03202173858880997
1761506854131876600,5.560876708984375,0.14603695273399353,0.014938737265765667,0.0365041047334671
1761506854141847600,5.57084765625,0.14733965694904327,0.019065069034695625,0.03178960084915161
1761506854151819800,5.58081982421875,0.14086417853832245,0.017936687916517258,0.02276654541492462
1761506854161791500,5.59079150390625,0.13464249670505524,0.01837770827114582,0.0170372873544693
1761506854171763700,5.600763671875,0.12871402502059937,0.018325775861740112,0.01460395660251379
1761506854181734700,5.610734619140625,0.12280254811048508,0.01684296689927578,0.014419873245060444
1761506854191706600,5.62070654296875,0.11628498882055283,0.018545527011156082,0.02128070965409279
1761506854201678800,5.630678955078125,0.11139044165611267,0.01867460086941719,0.027134068310260773
1761506854211650600,5.640650634765625,0.10666359961032867,0.012755459174513817,0.0329727865755558
1761506854221621800,5.650621826171875,0.09611428529024124,0.002871935721486807,0.03513180837035179
1761506854231593700,5.66059375,0.08586803823709488,0.0016679206164553761,0.033408213406801224
1761506854241565700,5.670565673828125,0.080315500497818,0.003193408250808716,0.02457858808338642
1761506854251537700,5.68053759765625,0.07110549509525299,0.010357310995459557,0.01687033474445343
1761506854261509600,5.690509521484375,0.06790580600500107,0.012848778627812862,0.009461450390517712
1761506854271480600,5.70048046875,0.06419948488473892,0.011645562015473843,0.012020215392112732
1761506854281452500,5.71045263671875,0.056742340326309204,0.006853992585092783,0.009251593612134457
1761506854291424800,5.7204248046875,0.05352497473359108,0.0009883801685646176,0.016263164579868317
1761506854301396700,5.730396728515625,0.04301191493868828,-0.0068778470158576965,0.01571156643331051
1761506854311367700,5.74036767578125,0.039264846593141556,-0.009553791955113411,0.01195331197232008
1761506854321339600,5.750339599609375,0.03055151365697384,-0.012041288428008556,0.006230208557099104
1761506854331311600,5.7603115234375,0.026135992258787155,-0.011901472695171833,0.003925242926925421
1761506854341283600,5.77028369140625,0.021869879215955734,-0.006143506616353989,0.00121648283675313
1761506854351254800,5.7802548828125,0.015684153884649277,-0.004402065649628639,0.0055912574753165245
1761506854361226500,5.7902265625,0.01133867260068655,-0.0064275069162249565,0.010661412961781025
1761506854371198700,5.80019873046875,0.002869287971407175,-0.018965935334563255,0.012975167483091354
1761506854381170700,5.810170654296875,-0.004317405633628368,-0.02638217620551586,0.012363912537693977
1761506854391142700,5.820142578125,-0.0103092510253191,-0.030258940532803535,0.00642133504152298
1761506854401113900,5.83011376953125,-0.019682208076119423,-0.02913598343729973,-0.0002947426401078701
1761506854411085600,5.84008544921875,-0.026428792625665665,-0.02281976491212845,-0.007350255269557238
1761506854421057800,5.850057861328125,-0.03308890014886856,-0.018266411498188972,-0.011737369932234287
1761506854431029500,5.860029541015625,-0.03945412114262581,-0.015260503627359867,-0.010441209189593792
1761506854441000700,5.870000732421875,-0.04511493816971779,-0.012579074129462242,0.00009135669097304344
1761506854450972700,5.87997265625,-0.04652188718318939,-0.016699783504009247,-0.0006308925803750753
1761506854460944600,5.889944580078125,-0.051947664469480515,-0.024446461349725723,-0.004741364158689976
1761506854470916900,5.899916748046875,-0.05997629836201668,-0.02990034967660904,-0.005497967824339867
1761506854480887600,5.909887451171875,-0.06447962671518326,-0.031342752277851105,-0.006449989974498749
1761506854490859800,5.91985986328125,-0.0708315297961235,-0.030801065266132355,-0.014997671358287334
1761506854500831500,5.92983154296875,-0.077196404337883,-0.024801531806588173,-0.022883113473653793
1761506854510803700,5.9398037109375,-0.07895408570766449,-0.014893774874508381,-0.023961693048477173
1761506854520774700,5.949774658203125,-0.0830485075712204,-0.009746063500642776,-0.02140852063894272
1761506854530746600,5.95974658203125,-0.08636920154094696,-0.013875827193260193,-0.01581268571317196
1761506854540718600,5.969718505859375,-0.08995332568883896,-0.019416647031903267,-0.013069452717900276
1761506854550690600,5.979690673828125,-0.08846914768218994,-0.02281191013753414,-0.011784477159380913
1761506854560662800,5.989662841796875,-0.08815900981426239,-0.018088126555085182,-0.01173887774348259
1761506854570633700,5.9996337890625,-0.08233174681663513,-0.0060216099955141544,-0.004083089530467987
1761506854580605700,6.009605712890625,-0.07721523195505142,0.0018867627950385213,0.004089174792170525
1761506854590577700,6.01957763671875,-0.07305377721786499,0.0061470214277505875,0.00791001133620739
1761506854600549600,6.029549560546875,-0.06843974441289902,0.00763404555618763,0.020960034802556038
1761506854610520600,6.0395205078125,-0.06663917750120163,-0.005104918964207172,0.023816008120775223
1761506854620492800,6.049492919921875,-0.06621634215116501,-0.02462467923760414,0.018869098275899887
1761506854630464500,6.059464599609375,-0.07022599875926971,-0.03665710613131523,0.01551617681980133
1761506854640436700,6.069436767578125,-0.06928525865077972,-0.03745581954717636,0.009342615492641926
1761506854650407700,6.07940771484375,-0.06869030743837357,-0.03192922845482826,-0.0009928463259711862
1761506854660379600,6.089379638671875,-0.06454958766698837,-0.022914791479706764,-0.006563498638570309
1761506854670351600,6.0993515625,-0.061790015548467636,-0.014161781407892704,-0.007639948278665543
1761506854680323600,6.109323486328125,-0.0624329075217247,-0.009069764986634254,-0.0004062108346261084
1761506854690295800,6.1192958984375,-0.06387181580066681,-0.016544992104172707,0.003498516045510769
1761506854700266500,6.1292666015625,-0.07106948643922806,-0.019214851781725883,0.0037957823369652033
1761506854710238700,6.13923876953125,-0.06790831685066223,-0.020252419635653496,0.004541200585663319
1761506854720210400,6.14921044921875,-0.06928795576095581,-0.014056497253477573,-0.003539478871971369
1761506854730182700,6.1591826171875,-0.07157028466463089,-0.005648631136864424,-0.010853052139282227
1761506854740153900,6.16915380859375,-0.07218901067972183,0.006443332880735397,-0.018760599195957184
1761506854750125600,6.17912548828125,-0.06958683580160141,0.006283010821789503,-0.020210957154631615
1761506854760097800,6.189097900390625,-0.07164009660482407,0.005371095612645149,-0.014314777217805386
1761506854770069800,6.19906982421875,-0.07175461202859879,-0.011075788177549839,-0.006835554726421833
1761506854780040700,6.209040771484375,-0.06920517235994339,-0.022281941026449203,0.0006277167703956366
1761506854790013000,6.219012939453125,-0.06857214123010635,-0.023627903312444687,0.0044738538563251495
1761506854799984600,6.228984619140625,-0.06300639361143112,-0.014071204699575901,-0.00014252832625061274
1761506854809956900,6.238956787109375,-0.05731947720050812,-0.0002616491401568055,-0.002296492923051119
1761506854819928600,6.248928466796875,-0.05217087268829346,0.006984798703342676,-0.008742379024624825
1761506854829899800,6.258899658203125,-0.053972769528627396,0.008893486112356186,-0.01708126999437809
1761506854839871700,6.268871826171875,-0.05548231676220894,0.006044154055416584,-0.018180206418037415
1761506854849843700,6.27884375,-0.05069075897336006,-0.002564248163253069,-0.015358055010437965
1761506854859816000,6.28881591796875,-0.05274097993969917,-0.0016323237214237452,-0.006985195446759462
1761506854869786600,6.29878662109375,-0.04923279583454132,-0.005626266822218895,0.0035041971132159233
1761506854879758800,6.3087587890625,-0.04685603827238083,-0.00046135636512190104,0.014182970859110355
1761506854889730800,6.318730712890625,-0.046821679919958115,0.007228787522763014,0.015116673894226551
1761506854899702800,6.328702880859375,-0.04114850237965584,0.00743904011324048,0.015916895121335983
1761506854909673700,6.338673828125,-0.042341332882642746,0.008156229741871357,0.009432097896933556
1761506854919645700,6.348645751953125,-0.037523332983255386,0.01435651071369648,0.007797981612384319
1761506854929617700,6.35861767578125,-0.03705621138215065,0.014914975501596928,0.007935401052236557
1761506854939589600,6.368589599609375,-0.03745081648230553,0.008431313559412956,0.0101314727216959
1761506854949561900,6.378561767578125,-0.0383182056248188,0.004226980730891228,0.01699683628976345
1761506854959532800,6.38853271484375,-0.041232697665691376,-0.0042044674046337605,0.01986355148255825
1761506854969504800,6.3985048828125,-0.041636429727077484,-0.008872722275555134,0.020268352702260017
1761506854979476700,6.408476806640625,-0.04075903445482254,-0.0029627643525600433,0.01610482484102249
1761506854989448700,6.41844873046875,-0.038922518491744995,0.004680773708969355,0.0070037394762039185
1761506854999419600,6.428419677734375,-0.038212597370147705,0.004100031219422817,0.0022161740344017744
1761506855009391900,6.438391845703125,-0.03739021345973015,0.0093789491802454,0.0016952597070485353
1761506855019363800,6.44836376953125,-0.03792684152722359,0.00524385878816247,0.002491278573870659
1761506855029335800,6.458335693359375,-0.0390847846865654,-0.001253188936971128,-0.0028377065900713205
1761506855039306800,6.468306640625,-0.04148314520716667,-0.0005168096395209432,-0.006384801119565964
1761506855049278700,6.47827880859375,-0.04823026433587074,0.001319173607043922,-0.00792623870074749
1761506855059251000,6.4882509765625,-0.053939931094646454,0.008457273244857788,-0.006288837641477585
1761506855069222700,6.49822265625,-0.05457988753914833,0.009150228463113308,-0.005111986771225929
1761506855079195000,6.50819482421875,-0.04971052706241608,0.013603893108665943,-0.00398396048694849
1761506855089165600,6.51816552734375,-0.045256391167640686,0.0157256331294775,0.002595112659037113
1761506855099137800,6.5281376953125,-0.040704403072595596,0.008214212954044342,0.00048239645548164845
1761506855109109800,6.53810986328125,-0.03954806178808212,0.00020289223175495863,-0.001788480905815959
1761506855119081700,6.548081787109375,-0.04006873816251755,-0.008158218115568161,-0.007637019269168377
1761506855129053000,6.558052978515625,-0.03990389034152031,-0.011554813012480736,-0.020992504432797432
1761506855139024600,6.568024658203125,-0.03769240528345108,-0.0014041222166270018,-0.028393102809786797
1761506855148996900,6.577996826171875,-0.03448915481567383,0.008449839428067207,-0.02324414812028408
1761506855158968600,6.587968505859375,-0.032316654920578,0.013727890327572823,-0.014978793449699879
1761506855168939800,6.597939697265625,-0.02948039025068283,0.01599983312189579,-0.0021069373469799757
1761506855178911700,6.607911865234375,-0.02341732755303383,0.01717616803944111,0.010583263821899891
1761506855188883700,6.6178837890625,-0.01375857274979353,0.007679867558181286,0.026282865554094315
1761506855198856000,6.62785595703125,-0.004408217500895262,-0.005036035552620888,0.03669638931751251
1761506855208827000,6.637826904296875,0.0007279552519321442,-0.01667085289955139,0.03763781487941742
1761506855218798800,6.647798828125,0.000529660377651453,-0.025672312825918198,0.03830117732286453
1761506855228770800,6.657770751953125,0.0009070304222404957,-0.029262254014611244,0.025669805705547333
1761506855238742800,6.66774267578125,-0.008395768702030182,-0.025848638266324997,0.0029583973810076714
1761506855248714800,6.67771484375,-0.013161761686205864,-0.019292734563350677,-0.02139061875641346
1761506855258686000,6.68768603515625,-0.009470469318330288,-0.004887933377176523,-0.03992985934019089
1761506855268657700,6.69765771484375,-0.013729129917919636,0.0050722891464829445,-0.045386407524347305
1761506855278630000,6.7076298828125,-0.011369340121746063,0.011791277676820755,-0.036068420857191086
1761506855288601900,6.717601806640625,-0.016190994530916214,0.004359459970146418,-0.020012492313981056
1761506855298572800,6.72757275390625,-0.016033215448260307,-0.005816025193780661,0.0008367148693650961
1761506855308544800,6.737544677734375,-0.016568776220083237,-0.017718490213155746,0.019045278429985046
1761506855318516700,6.747516845703125,-0.01820574514567852,-0.03044353611767292,0.027833208441734314
1761506855328488700,6.75748876953125,-0.02229929156601429,-0.03730330616235733,0.01588520221412182
1761506855338459600,6.767459716796875,-0.024042446166276932,-0.02800043299794197,-0.006836768239736557
1761506855348432000,6.777431884765625,-0.02247810550034046,-0.01076418999582529,-0.02658490650355816
1761506855358403600,6.787403564453125,-0.02596525102853775,-0.00017796549946069717,-0.04422139376401901
1761506855368375800,6.797375732421875,-0.03202926740050316,0.015739748254418373,-0.04852106794714928
1761506855378347800,6.80734765625,-0.031214304268360138,0.017371101304888725,-0.0377228669822216
1761506855388318700,6.817318603515625,-0.02610982209444046,0.009360846132040024,-0.015835944563150406
1761506855398291000,6.827291015625,-0.02153237909078598,-0.0031772085931152105,0.001455930294468999
1761506855408262700,6.8372626953125,-0.013383105397224426,-0.016417646780610085,0.012735748663544655
1761506855418235000,6.84723486328125,-0.0054998151026666164,-0.02772258222103119,0.021951232105493546
1761506855428205800,6.857205810546875,-0.002399629447609186,-0.030836084857583046,0.022235924378037453
1761506855438177800,6.867177734375,0.00023816898465156555,-0.02185559831559658,0.018856696784496307
1761506855448149800,6.877149658203125,-0.005878846161067486,-0.012216288596391678,0.010249893181025982
1761506855458121700,6.887121826171875,-0.01118770707398653,-0.009068404324352741,0.0010258574038743973
1761506855468092700,6.8970927734375,-0.01003775279968977,-0.003934095613658428,-0.004785425961017609
1761506855478065000,6.90706494140625,-0.004599959589540958,0.0037470217794179916,-0.003008742118254304
1761506855488036900,6.917036865234375,-0.0030047260224819183,0.008265074342489243,0.0016659046523272991
1761506855498008800,6.9270087890625,-0.0009480896405875683,0.005629850551486015,0.015417048707604408
1761506855507980800,6.936980712890625,0.00004180753603577614,0.0005440114182420075,0.02450375445187092
1761506855517951700,6.94695166015625,-0.0010789991356432438,-0.0007131925085559487,0.02849704772233963
1761506855527923700,6.956923828125,-0.004841779824346304,-0.0015294513432309031,0.029842209070920944
1761506855537895700,6.966895751953125,-0.004903068300336599,0.007425101473927498,0.020808055996894836
1761506855547867600,6.97686767578125,-0.0020641391165554523,0.015230294317007065,0.004239466041326523
1761506855557838600,6.986838623046875,-0.0007940437644720078,0.02338378131389618,-0.010703057050704956
1761506855567810800,6.996810791015625,0.0019103963859379292,0.02875138260424137,-0.02547640912234783
1761506855577782800,7.00678271484375,0.0034370427019894123,0.031136807054281235,-0.027111239731311798
1761506855587754800,7.016754638671875,0.006538559682667255,0.030611632391810417,-0.012367712333798409
1761506855597726000,7.026725830078125,0.006686283741146326,0.018396487459540367,0.008912574499845505
1761506855607697700,7.03669775390625,0.009414692409336567,0.0021043329034000635,0.022145021706819534
1761506855617670000,7.046669921875,0.010715454816818237,-0.009598166681826115,0.02924720011651516
1761506855627641600,7.0566416015625,0.017073752358555794,-0.013415807858109474,0.028255438432097435
1761506855637612800,7.06661279296875,0.019806383177638054,-0.008926684968173504,0.019786972552537918
1761506855647584800,7.076584716796875,0.019321953877806664,0.003108405973762274,0.0005672043189406395
1761506855657556700,7.086556640625,0.015417879447340965,0.015792429447174072,-0.01075643952935934
1761506855667529000,7.096529052734375,0.014131573028862476,0.025254108011722565,-0.012333563528954983
1761506855677500700,7.106500732421875,0.014961982145905495,0.02633541077375412,-0.01316695474088192
1761506855687471900,7.116471923828125,0.01349031925201416,0.019024500623345375,-0.00504564493894577
1761506855697443800,7.12644384765625,0.01851901412010193,0.010674819350242615,0.002182914409786463
1761506855707415800,7.136415771484375,0.019440200179815292,0.0001092604361474514,0.010944714769721031
1761506855717387800,7.1463876953125,0.02339838072657585,-0.0012672884622588754,0.00814087875187397
1761506855727359000,7.15635888671875,0.027398984879255295,-0.0028689135797321796,0.005906486883759499
1761506855737331000,7.1663310546875,0.02628011256456375,-0.00010542012751102448,-0.005776297301054001
1761506855747303000,7.176302978515625,0.024803655222058296,0.0015273639000952244,-0.009520435705780983
1761506855757275100,7.186275146484375,0.024307845160365105,0.010503299534320831,-0.01570497639477253
1761506855767246000,7.19624609375,0.025142479687929153,0.01788824424147606,-0.011545918881893158
1761506855777218000,7.206218017578125,0.030356042087078094,0.020573589950799942,-0.001621914329007268
1761506855787190000,7.21618994140625,0.03129533678293228,0.0070545868948102,0.013738665729761124
1761506855797162000,7.226161865234375,0.030725497752428055,-0.011447230353951454,0.015256195329129696
1761506855807134000,7.236134033203125,0.02534164860844612,-0.021696405485272408,0.015588023699820042
1761506855817105200,7.246105224609375,0.024263523519039154,-0.025962963700294495,0.011114712804555893
1761506855827076900,7.256076904296875,0.0188762154430151,-0.02394268848001957,-0.004409918561577797
1761506855837049000,7.266049072265625,0.0182631965726614,-0.008918194100260735,-0.01725848764181137
1761506855847021000,7.27602099609375,0.010998092591762543,0.007581154350191355,-0.021444177255034447
1761506855856992000,7.285991943359375,0.008634155616164207,0.012992462143301964,-0.02460525929927826
1761506855866964200,7.295964111328125,0.004744076635688543,0.006639491301029921,-0.013394150882959366
1761506855876936000,7.30593603515625,-0.004477915354073048,-0.0027054345700889826,-0.002727688290178776
1761506855886908200,7.315908203125,-0.007339215837419033,-0.0192018523812294,0.0037302111741155386
1761506855896879900,7.3258798828125,-0.013984104618430138,-0.02968677692115307,0.0009776558727025986
1761506855906851000,7.33585107421875,-0.01561768725514412,-0.02698100544512272,-0.009318923577666283
1761506855916822800,7.34582275390625,-0.01943102851510048,-0.012649036012589931,-0.023350438103079796
1761506855926795000,7.355794921875,-0.016965210437774658,0.00931991171091795,-0.03506728261709213
1761506855936767000,7.36576708984375,-0.018294241279363632,0.031837765127420425,-0.04053785651922226
1761506855946738000,7.375738037109375,-0.02032969519495964,0.04364462569355965,-0.028544846922159195
1761506855956710100,7.385710205078125,-0.019957425072789192,0.03917460888624191,-0.005976833403110504
1761506855966681900,7.395681884765625,-0.013427885249257088,0.02404359169304371,0.021409250795841217
1761506855976654000,7.405654052734375,-0.0025400840677320957,-0.004201361909508705,0.040729422122240067
1761506855986625000,7.415625,0.0017127175815403461,-0.02420596219599247,0.039646048098802567
1761506855996597000,7.425596923828125,0.004101798869669437,-0.0344357043504715,0.03384769335389137
1761506856006569000,7.43556884765625,-0.00141840148717165,-0.028519226238131523,0.01698855124413967
1761506856016541000,7.445541015625,-0.004040160682052374,-0.0084416214376688,0.0004866254748776555
1761506856026512000,7.455511962890625,-0.008744368329644203,0.0123478127643466,-0.017729928717017174
1761506856036484000,7.465484130859375,-0.008121877908706665,0.02144704945385456,-0.02529892697930336
1761506856046456000,7.4754560546875,-0.01032271422445774,0.025512365624308586,-0.025815846398472786
1761506856056428000,7.485427978515625,-0.010281287133693695,0.01714676432311535,-0.01645551435649395
1761506856066400000,7.49539990234375,-0.009862104430794716,0.007881361059844494,-0.0015002668369561434
1761506856076371000,7.505370849609375,-0.01398470625281334,0.004813143517822027,0.0199272558093071
1761506856086343200,7.51534326171875,-0.017744291573762894,-0.0002846794668585062,0.03796537593007088
1761506856096315000,7.52531494140625,-0.01632814109325409,-0.004797492641955614,0.0351414829492569
1761506856106287000,7.535287109375,-0.017492473125457764,-0.006649455055594444,0.03141918405890465
1761506856116257800,7.5452578125,-0.018412793055176735,-0.009631654247641563,0.012120440602302551
1761506856126230000,7.55522998046875,-0.022079698741436005,-0.008246544748544693,-0.008861007168889046
1761506856136202000,7.565201904296875,-0.02663104236125946,0.0008169914362952113,-0.02470521815121174
1761506856146174000,7.575174072265625,-0.03235790133476257,0.01842155121266842,-0.028891706839203835
1761506856156145200,7.585145263671875,-0.03163880109786987,0.030310133472085,-0.030850138515233994
1761506856166116900,7.595116943359375,-0.031065158545970917,0.03305584937334061,-0.02066062018275261
1761506856176089000,7.605089111328125,-0.023831259459257126,0.021929042413830757,-0.00118713837582618
1761506856186060800,7.615060791015625,-0.023898370563983917,0.0024554755073040724,0.015065601095557213
1761506856196032000,7.625031982421875,-0.0188670102506876,-0.018176062032580376,0.020044824108481407
1761506856206004000,7.63500390625,-0.019367685541510582,-0.029427118599414825,0.013738192617893219
1761506856215976000,7.644975830078125,-0.016133243218064308,-0.022260332480072975,0.002820771187543869
1761506856225948200,7.6549482421875,-0.015387291088700294,-0.00532183051109314,-0.007263820618391037
1761506856235920000,7.664919921875,-0.01314232125878334,0.013597835786640644,-0.019916824996471405
1761506856245891000,7.67489111328125,-0.007303073536604643,0.021333254873752594,-0.023157624527812004
1761506856255863000,7.684863037109375,-0.0034346398897469044,0.01755480095744133,-0.02213369868695736
1761506856265835000,7.6948349609375,-0.0030857655219733715,0.00030124455224722624,-0.017232950776815414
1761506856275807000,7.704806884765625,-0.00020826049149036407,-0.008038452826440334,-0.005805443972349167
1761506856285778000,7.71477783203125,0.0045774392783641815,-0.01213253103196621,0.012183941900730133
1761506856295750000,7.72475,0.00568151380866766,-0.010126223787665367,0.02392706274986267
1761506856305722000,7.73472216796875,0.009126045741140842,-0.0063008591532707214,0.01869235374033451
1761506856315694000,7.744694091796875,0.010801702737808228,0.007232843432575464,0.01617785543203354
1761506856325665000,7.7546650390625,0.014048628509044647,0.00999374222010374,0.005014416761696339
1761506856335637000,7.764636962890625,0.014583206735551357,0.008048588410019875,-0.0020477843936532736
1761506856345609000,7.77460888671875,0.01424312125891447,0.00538622634485364,-0.005909900180995464
1761506856355581000,7.784580810546875,0.016618622466921806,0.01117976475507021,-0.0032388975378125906
1761506856365553000,7.794552978515625,0.016469484195113182,0.014634151011705399,0.0005180237349122763
1761506856375524000,7.804524169921875,0.01582777127623558,0.01755874790251255,0.007253424730151892
1761506856385495800,7.814495849609375,0.01930692419409752,0.014580536633729935,0.013791751116514206
1761506856395468000,7.824468017578125,0.017107155174016953,0.010399213060736656,0.017449574545025826
1761506856405440000,7.83443994140625,0.015995020046830177,0.007539509795606136,0.013834599405527115
1761506856415411000,7.844410888671875,0.019837314262986183,0.007518235128372908,0.009251121431589127
1761506856425383200,7.854383056640625,0.01957952044904232,0.008427171967923641,-0.0016816874267533422
1761506856435355000,7.86435498046875,0.027800321578979492,0.009649807587265968,-0.008563798852264881
1761506856445327000,7.8743271484375,0.029732178896665573,0.013388087041676044,-0.017290445044636726
1761506856455298000,7.884298095703125,0.029430363327264786,0.013750633224844933,-0.023535823449492455
1761506856465270000,7.89427001953125,0.028270289301872253,0.00958678126335144,-0.02718142420053482
1761506856475242000,7.904241943359375,0.02734929695725441,0.010437008924782276,-0.02674688771367073
1761506856485214000,7.9142138671875,0.03151288256049156,0.009442051872611046,-0.023954030126333237
1761506856495185000,7.924184814453125,0.041167907416820526,0.006926430389285088,-0.019617604091763496
1761506856505157000,7.9341572265625,0.04534050449728966,0.004368081223219633,-0.011948321014642715
1761506856515129000,7.944129150390625,0.04140111804008484,0.0032397988252341747,-0.0020369826816022396
1761506856525101000,7.95410107421875,0.03703300282359123,-0.0015107480576261878,0.012312395498156548
1761506856535073000,7.964072998046875,0.03332751989364624,-0.0038214055821299553,0.018695341423153877
1761506856545044000,7.9740439453125,0.02801770716905594,-0.013518507592380047,0.0167941115796566
1761506856555016000,7.984015869140625,0.0254314374178648,-0.013120859861373901,-0.00016415899153798819
1761506856564988000,7.99398779296875,0.02597046084702015,-0.004609397146850824,-0.014956421218812466
1761506856574959900,8.0039599609375,0.023605573922395706,0.014285197481513023,-0.025985635817050934
1761506856584930800,8.013930908203125,0.01912214234471321,0.032711341977119446,-0.02855292335152626
1761506856594903000,8.023903076171875,0.021839329972863197,0.040453627705574036,-0.024872079491615295
1761506856604875000,8.033875,0.02023530751466751,0.03646101430058479,-0.002437611110508442
1761506856614847000,8.043846923828125,0.023404352366924286,0.020944561809301376,0.026884177699685097
1761506856624819000,8.05381884765625,0.02667498029768467,-0.011126554571092129,0.04331082105636597
1761506856634790000,8.063789794921876,0.027150586247444153,-0.02352522872388363,0.05283570662140846
1761506856644762000,8.07376220703125,0.023568633943796158,-0.02540142461657524,0.0423460453748703
1761506856654733800,8.08373388671875,0.020365305244922638,-0.016336891800165176,0.02242184430360794
1761506856664706000,8.0937060546875,0.017632370814681053,0.0057905130088329315,-0.00232930900529027
1761506856674677000,8.103677001953125,0.01694546453654766,0.026744196191430092,-0.026336669921875
1761506856684649000,8.11364892578125,0.01212674006819725,0.039457593113183975,-0.028608612716197968
1761506856694621200,8.12362109375,0.00490165688097477,0.03768005967140198,-0.02419540099799633
1761506856704593000,8.133593017578125,0.00586412288248539,0.021522393450140953,-0.003487725742161274
1761506856714564000,8.143564208984374,0.008025169372558594,0.003020696807652712,0.015183432027697563
1761506856724536000,8.1535361328125,0.010819891467690468,-0.012499939650297165,0.025528481230139732
1761506856734507500,8.163507568359375,0.018160130828619003,-0.010742459446191788,0.033562082797288895
1761506856744479700,8.173479736328124,0.016291391104459763,-0.004044609144330025,0.03203369677066803
1761506856754450400,8.183450439453125,0.013322800397872925,-0.0014904128620401025,0.0285656675696373
1761506856764422700,8.193422607421875,0.005944778677076101,-0.0034204060211777687,0.012699085287749767
1761506856774394600,8.20339453125,-0.0009505967609584332,0.0006409259513020515,0.000009094364941120148
1761506856784366600,8.21336669921875,-0.002821200992912054,0.004227138590067625,-0.006567048840224743
1761506856794338800,8.2233388671875,-0.0018599131144583225,0.008149047382175922,-0.008255700580775738
1761506856804309500,8.2333095703125,-0.0033741858787834644,0.007151959929615259,-0.00848313421010971
1761506856814281700,8.24328173828125,-0.0017708889208734035,0.007164970505982637,-0.0024438248947262764
1761506856824253400,8.25325341796875,-0.005061224568635225,0.004887967836111784,0.006713720969855785
1761506856834225700,8.2632255859375,-0.009129129350185394,0.0008401917293667793,0.014851335436105728
1761506856844196600,8.273196533203125,-0.01084154099225998,-0.0048121013678610325,0.016888920217752457
1761506856854168600,8.28316845703125,-0.01429721899330616,-0.008289649151265621,0.015046395361423492
1761506856864140800,8.293140869140625,-0.01591615378856659,-0.004099964629858732,0.008740030229091644
1761506856874112500,8.303112548828125,-0.01452663354575634,0.0033845077268779278,0.005705477669835091
1761506856884083700,8.313083740234376,-0.013586271554231644,0.004266812931746244,-0.006451054010540247
1761506856894055700,8.3230556640625,-0.019670259207487106,0.006034300196915865,-0.0119872922077775
1761506856904027600,8.333027587890625,-0.016841448843479156,0.0064292470924556255,-0.008353942073881626
1761506856913999600,8.34299951171875,-0.0186256542801857,0.005379290785640478,-0.0008771761786192656
1761506856923971600,8.3529716796875,-0.025640951469540596,0.004273280501365662,0.0027489839121699333
1761506856933942500,8.362942626953124,-0.021142303943634033,-0.00015032896772027016,0.013334132730960846
1761506856943914800,8.372914794921876,-0.023258984088897705,-0.004242808558046818,0.016835922375321388
1761506856953886700,8.38288671875,-0.021400516852736473,-0.011237738654017448,0.01158118061721325
1761506856963858700,8.392858642578124,-0.0228215791285038,-0.012613262049853802,0.004156553652137518
1761506856973829600,8.40282958984375,-0.022579308599233627,0.00004387577064335346,-0.0001998748630285263
1761506856983801600,8.412801513671875,-0.02103174477815628,0.010128733702003956,-0.00569663941860199
1761506856993773800,8.42277392578125,-0.021817835047841072,0.021988391876220703,-0.004160231910645962
1761506857003745500,8.43274560546875,-0.019288895651698112,0.01932017132639885,0.00013624562416225672
1761506857013716700,8.442716796875,-0.01127605326473713,0.007661847863346338,0.0034875378478318453
1761506857023688400,8.4526884765625,-0.009546596556901932,-0.009674797765910625,0.0069954534992575645
1761506857033660700,8.46266064453125,-0.009929178282618523,-0.013878628611564636,0.012992004863917828
1761506857043632600,8.472632568359375,-0.011338522657752037,-0.006090746261179447,0.017625903710722923
1761506857053603600,8.482603515625,-0.01566186361014843,0.011133842170238495,0.020545173436403275
1761506857063575800,8.492575927734375,-0.012704156339168549,0.0250624418258667,0.01462070643901825
1761506857073547500,8.502547607421874,-0.0068250722251832485,0.03042416088283062,0.00765470415353775
1761506857083519700,8.512519775390626,-0.0017024814151227474,0.029564492404460907,-0.004514610394835472
1761506857093491500,8.522491455078125,0.006455008871853352,0.024460377171635628,-0.008204834535717964
1761506857103462700,8.532462646484374,0.006447285413742065,0.01075495034456253,-0.008515890687704086
1761506857113434600,8.5424345703125,0.010195452719926834,-0.004249876830726862,-0.004025594796985388
1761506857123406600,8.552406494140625,0.007178623229265213,-0.010103504173457623,0.002436032984405756
1761506857133378800,8.56237890625,0.015214027836918831,-0.00863080844283104,0.004981393925845623
1761506857143349800,8.572349853515625,0.021849293261766434,-0.007107745856046677,0.006481286138296127
1761506857153321700,8.58232177734375,0.027329090982675552,-0.008552709594368935,0.0027057521510869265
1761506857163293700,8.592293701171876,0.031032215803861618,-0.012548250146210194,-0.005125273019075394
1761506857173265700,8.602265625,0.029255971312522888,-0.009368836879730225,-0.00011166802141815424
1761506857183236600,8.612236572265624,0.026659920811653137,-0.0063951509073376656,0.005485231056809425
1761506857193208600,8.62220849609375,0.022796349599957466,-0.008847260847687721,0.009552886709570885
1761506857203180500,8.6321806640625,0.013532278127968311,-0.016556579619646072,0.0056260558776557446
1761506857213152800,8.64215283203125,0.006420617923140526,-0.018486617133021355,-0.0039016108494251966
1761506857223124700,8.652124755859376,0.0020881877280771732,-0.016456754878163338,-0.018211575224995613
1761506857233095700,8.662095703125,0.0035140030086040497,0.0002825334668159485,-0.03128035366535187
1761506857243067600,8.672067626953124,0.0019344822503626347,0.020227214321494102,-0.03183482587337494
1761506857253039600,8.68203955078125,0.0012985575012862682,0.0307370126247406,-0.013581104576587677
1761506857263011600,8.692011474609375,-0.0021331915631890297,0.03164941072463989,0.0010279309935867786
1761506857272982500,8.701982421875,-0.0019252034835517406,0.016079828143119812,0.02036679908633232
1761506857282954800,8.711954833984375,0.0020461026579141617,0.0028934520669281483,0.03107137605547905
1761506857292926500,8.721926513671875,0.0030944785103201866,-0.011885784566402435,0.03308235853910446
1761506857302898700,8.731898681640626,0.0020201592706143856,-0.02100284956395626,0.02309443987905979
1761506857312869600,8.74186962890625,-0.004235034808516502,-0.023246128112077713,0.006161410361528397
1761506857322841600,8.751841552734374,-0.0023804092779755592,-0.012384427711367607,-0.012101748958230019
1761506857332813800,8.761813720703126,-0.004767821170389652,0.0012481572339311242,-0.02422664873301983
1761506857342785500,8.77178564453125,-0.0028231805190443993,0.01352133508771658,-0.02616223320364952
1761506857352757800,8.7817578125,-0.005221738014370203,0.02037154883146286,-0.02124088816344738
1761506857362728700,8.791728759765626,-0.004020386841148138,0.01191175077110529,-0.01028517633676529
1761506857372700700,8.80170068359375,-0.0016058115288615227,-0.0017285568173974752,0.004845898598432541
1761506857382672600,8.811672607421874,-0.004439148120582104,-0.01714666187763214,0.012399688363075256
1761506857392644600,8.82164453125,-0.0018973522819578648,-0.02253374084830284,0.017005950212478638
1761506857402615600,8.831615478515625,0.0008313222788274288,-0.016543759033083916,0.011952603235840797
1761506857412587500,8.84158740234375,0.004580220207571983,-0.0055573745630681515,0.008697479963302612
1761506857422559700,8.851559814453125,0.007064150646328926,0.002795363776385784,0.005482511594891548
1761506857432531700,8.86153173828125,0.004843072034418583,0.002335860626772046,0.0061248959973454475
1761506857442502700,8.871502685546876,0.00551871582865715,-0.0035044513642787933,0.009390730410814285
1761506857452474600,8.881474609375,0.00032642949372529984,-0.013800054788589478,0.009679149836301804
1761506857462446600,8.891446533203125,0.00009579956531524658,-0.01875593140721321,0.006060180254280567
1761506857472418600,8.90141845703125,0.0001736772246658802,-0.008720746263861656,0.004213219508528709
1761506857482390500,8.911390625,0.005546071566641331,-0.001776287448592484,-0.0001445107627660036
1761506857492361500,8.921361572265624,0.004603576846420765,0.006032259669154882,-0.0023186858743429184
1761506857502333700,8.931333740234376,0.00523767527192831,0.0011885024141520262,0.0028845982160419226
1761506857512305700,8.9413056640625,0.0018692347221076488,-0.0016922004288062453,-0.0003357555251568556
1761506857522277600,8.951277587890624,0.0004095560871064663,-0.012994123622775078,0.003635816741734743
1761506857532248800,8.961248779296875,-0.0052808173932135105,-0.016059312969446182,0.003930332139134407
1761506857542220500,8.971220458984375,-0.009766912087798119,-0.006882592104375362,0.0053407419472932816
1761506857552192800,8.98119287109375,-0.01211506500840187,-0.0009462566813454032,0.0032820305787026882
1761506857562164500,8.99116455078125,-0.016095425933599472,0.005201650783419609,-0.0020924946293234825
1761506857572135700,9.0011357421875,-0.013424918055534363,0.006438933312892914,-0.0078094732016325
1761506857582107600,9.011107666015626,-0.010862689465284348,0.0006585422088392079,-0.013643926940858364
1761506857592079600,9.02107958984375,-0.01289583183825016,-0.00849832221865654,-0.02048792690038681
1761506857602051800,9.0310517578125,-0.013565083965659142,-0.009509790688753128,-0.025224093347787857
1761506857612022500,9.0410224609375,-0.012234065681695938,-0.002021258231252432,-0.02434258535504341
1761506857621994800,9.050994873046875,-0.010202871635556221,0.00859277043491602,-0.01747855357825756
1761506857631966500,9.060966552734374,-0.005606639664620161,0.007289340253919363,-0.008986945264041424
1761506857641938700,9.070938720703126,-0.004881993401795626,-0.0009885634062811732,0.0029014055617153645
1761506857651909600,9.08090966796875,-0.006477908696979284,-0.011754312552511692,0.01218879409134388
1761506857661881600,9.090881591796874,-0.00479798624292016,-0.017200477421283722,0.014378977939486504
1761506857671853600,9.100853515625,-0.0007868893444538116,-0.014743691310286522,0.009255560114979744
1761506857681825500,9.110825439453125,0.0023564398288726807,-0.0047887954860925674,0.006593464873731136
1761506857691797800,9.1207978515625,-0.0004942058585584164,0.010355111211538315,0.0003954595886170864
1761506857701768700,9.130768798828125,0.0012174081057310104,0.018652990460395813,0.001435423968359828
1761506857711740700,9.14074072265625,0.004598014988005161,0.020808666944503784,0.008768553845584393
1761506857721712600,9.150712646484376,0.007619371637701988,0.011175213381648064,0.013618703000247478
1761506857731684900,9.160684814453125,0.011115158908069134,0.0010309804929420352,0.021426916122436523
1761506857741656000,9.170656005859374,0.009546024724841118,-0.00797556433826685,0.02748587355017662
1761506857751628000,9.1806279296875,0.006952372379601002,-0.006918821483850479,0.03414164483547211
1761506857761600000,9.19060009765625,0.008769180625677109,-0.005830387584865093,0.03121190145611763
1761506857771572200,9.200572265625,0.009073996916413307,-0.006507332436740398,0.02186509594321251
1761506857781543000,9.21054296875,-0.001011926680803299,-0.007340369746088982,0.012035368010401726
1761506857791515100,9.22051513671875,-0.002647063694894314,-0.0033649499528110027,-0.000997256487607956
1761506857801486800,9.23048681640625,-0.005354966036975384,0.0017930603353306651,-0.007500163279473782
1761506857811459000,9.240458984375,-0.007156491745263338,0.007018685806542635,-0.009421042166650295
1761506857821431000,9.25043115234375,-0.014277784153819084,0.014731200411915779,-0.013559328392148018
1761506857831402000,9.260402099609376,-0.014447687193751335,0.019343843683600426,-0.010592121630907059
1761506857841374000,9.2703740234375,-0.013316908851265907,0.02454872615635395,-0.0023874547332525253
1761506857851346000,9.280345947265625,-0.01837543211877346,0.018280738964676857,-0.003422003937885165
1761506857861318100,9.290318115234374,-0.023564867675304413,0.0007542092353105545,-0.013730567879974842
1761506857871289000,9.3002890625,-0.025675229728221893,-0.006684226915240288,-0.022340361028909683
1761506857881261000,9.310260986328124,-0.02319316565990448,-0.002960861660540104,-0.02575639821588993
1761506857891233000,9.32023291015625,-0.023906970396637917,0.008247675374150276,-0.024514032527804375
1761506857901205000,9.330205078125,-0.013850342482328415,0.02023269794881344,-0.021553130820393562
1761506857911176000,9.340176025390624,-0.007166227325797081,0.03134859725832939,-0.00449084909632802
1761506857921148200,9.350148193359376,-0.004517180845141411,0.023559914901852608,0.004715698771178722
1761506857931119900,9.360119873046875,0.0012529026716947556,0.014698687940835953,0.017825640738010406
1761506857941092000,9.370092041015624,0.00269393902271986,-0.0011194235412403941,0.023709362372756004
1761506857951064000,9.38006396484375,0.002624658402055502,-0.0160673800855875,0.0193480234593153
1761506857961035000,9.390034912109375,-0.0027559916488826275,-0.02214870974421501,0.008979804813861847
1761506857971007200,9.40000732421875,-0.007589326705783606,-0.014467825181782246,-0.006931606214493513
1761506857980979000,9.40997900390625,-0.005444417241960764,-0.004172843880951405,-0.016422845423221588
1761506857990951200,9.419951171875,-0.011651143431663513,0.014335389249026775,-0.015095083974301815
1761506858000921900,9.429921875,-0.013088984414935112,0.017664607614278793,-0.011349880136549473
1761506858010894000,9.43989404296875,-0.01429474912583828,-0.002522718161344528,0.015765005722641945
1761506858020865800,9.44986572265625,-0.012030262500047684,-0.07429437339305878,0.08687274158000946
1761506858030838000,9.459838134765626,-0.019128343090415,-0.14354977011680603,0.07494372874498367
1761506858040809000,9.46980908203125,-0.022298570722341537,-0.07860192656517029,0.02829393744468689
1761506858050781000,9.479781005859374,-0.010566288605332375,0.006355525925755501,-0.04940076917409897
1761506858060753200,9.489753173828126,-0.00831565074622631,0.07869496941566467,-0.11031392216682434
1761506858070724900,9.499724853515625,-0.029087044298648834,0.10957856476306915,-0.13194024562835693
