time,seconds_elapsed,z,y,x
1761469120886821600,0.059821533203125,-1.017207788786292,0.18216770822554826,-0.029437253016978502
1761469120896777500,0.069777587890625,-0.8630103297650814,0.3522728574093431,-0.11121263256911187
1761469120906732500,0.079732666015625,-0.5161486106842756,0.43445078988038,-0.2008186692142859
1761469120916688400,0.0896884765625,-0.14281798687279224,0.40415976957827804,-0.2802659711450338
1761469120926644200,0.099644287109375,0.33578795188069344,0.349448959095031,-0.26918445902988314
1761469120936599600,0.109599609375,0.7688555437743664,0.19599077413380145,-0.3097895142059773
1761469120946555400,0.119555419921875,1.0003022466927767,0.0591641366302967,-0.37024179095067083
1761469120956511500,0.129511474609375,1.0113403580576181,-0.000597089110314846,-0.23796231362381948
1761469120966466300,0.13946630859375,0.9227987357735633,-0.04021495987996459,-0.07574866660851985
1761469120976422700,0.149422607421875,0.7233832478880882,-0.03662365738973021,0.051066864490322765
1761469120986378500,0.15937841796875,0.45770518954396244,-0.08311126779839396,0.2186118808625266
1761469120996333300,0.169333251953125,0.23753040674626827,-0.09675956166163087,0.3272121389761567
1761469121006289400,0.179289306640625,-0.011435586249828338,-0.05742737596556544,0.36765294350124894
1761469121016245200,0.189245361328125,-0.29776714104413987,0.05751768459752202,0.2925654442152008
1761469121026200600,0.19920068359375,-0.5995885259151459,0.19726108633056283,0.2332187540922314
1761469121036156400,0.209156494140625,-0.6590794102817773,0.30785277398973704,0.1883547445637174
1761469121046112500,0.219112548828125,-0.5003764565348625,0.4458806039765477,0.16472078926432876
1761469121056067600,0.229067626953125,-0.3904074308186769,0.493595271962136,0.2532987980360165
1761469121066023400,0.2390234375,-0.1318698918789625,0.4128660769946873,0.19310226788436993
1761469121075979500,0.2489794921875,0.13613281002044678,0.26601050516888497,0.09613916474096476
1761469121085934300,0.258934326171875,0.384159476339817,0.0756774645358324,0.04921300765140913
1761469121095890400,0.268890380859375,0.5836281557172537,-0.07058890922516584,0.03141204195497557
1761469121105846500,0.278846435546875,0.723318365958333,-0.11041165491715073,-0.022305629305075854
1761469121115801300,0.28880126953125,0.6572814209491014,-0.08085749752223491,0.002840356258768588
1761469121125757400,0.29875732421875,0.5303998388767243,-0.018075608786195515,0.06684433413567022
1761469121135713300,0.30871337890625,0.38881110153794285,0.026960779900848865,-0.013405881675798445
1761469121145668600,0.318668701171875,0.14040332694649696,0.021173720932006836,-0.08880129613354802
1761469121155624400,0.32862451171875,-0.05996434709727764,0.02747369785904884,-0.06931225861916318
1761469121165580300,0.338580322265625,-0.2024012256979942,0.0012076222240924835,0.028220716834068297
1761469121175535000,0.34853515625,-0.2748059521734714,-0.058660278761386866,0.11125913859196007
1761469121185491200,0.3584912109375,-0.2839747625350952,-0.060603229522705075,0.18338188805459066
1761469121195447300,0.368447265625,-0.2630003635674715,-0.014827859036624431,0.24578913479195907
1761469121205402000,0.378402099609375,-0.1471896260857582,-0.02825271940752864,0.2395409793836996
1761469121215358200,0.388358154296875,0.05381050064265728,-0.06263093595802784,0.13574362803976983
1761469121225314000,0.39831396484375,0.12054244217872619,-0.10811945232674479,0.04768536882586777
1761469121235269400,0.408269287109375,0.057473699325323105,-0.15980404685661195,-0.00667197031090036
1761469121245225200,0.41822509765625,0.0003226560831069946,-0.12776450238674877,0.04247101344475522
1761469121255181000,0.42818115234375,0.008192074283957481,-0.06331380365565419,0.12775683053694664
1761469121265136000,0.43813623046875,0.04989829563498497,-0.04471650908291339,0.12096486884187906
1761469121275092200,0.44809228515625,0.07801029139757155,-0.05238280592709779,0.08830949402861296
1761469121285048300,0.45804833984375,0.06922434287369252,-0.062476183787733314,0.037914172124303876
1761469121295003100,0.468003173828125,-0.012293079861998558,-0.10968363290354609,0.007919212159328162
1761469121304959200,0.477959228515625,-0.027855975174903867,-0.0737865362226963,0.08166567209996282
1761469121314915000,0.4879150390625,-0.0032446810096502304,-0.017421090400218962,0.13641531675625593
1761469121324870100,0.4978701171875,0.08703940102756023,-0.00542407087534666,0.1452170473711565
1761469121334826200,0.507826171875,0.20695406669676303,-0.01875175448209047,0.10530063204634935
1761469121344782000,0.517781982421875,0.33196634776592254,-0.05026975929588079,-0.013437865982949732
1761469121354737400,0.5277373046875,0.38325639002025125,-0.06117825293168425,-0.08551555246114731
1761469121364693200,0.537693359375,0.3677729896843433,-0.06413578756302594,-0.11956415346479042
1761469121374649300,0.5476494140625,0.16733458849191665,-0.06346592547744512,-0.10897201403547077
1761469121384604200,0.557604248046875,-0.07819324674904346,-0.024969898344576358,-0.04502093538958579
1761469121394560000,0.56756005859375,-0.2675496974349022,0.005508242027461529,0.03653970543332398
1761469121404516000,0.57751611328125,-0.31058219895362854,0.04952493227794766,0.08845942389331758
1761469121414471200,0.58747119140625,-0.3124409785628319,0.08693535613119602,0.08702409386057407
1761469121424427300,0.59742724609375,-0.28037410769462584,0.08848565431311727,0.038506694657355546
1761469121434383000,0.607383056640625,-0.14946283171474933,0.08553805655390023,0.004406747058965266
1761469121444338200,0.617338134765625,0.005859831944108009,0.08865165852978825,-0.029250607871077954
1761469121454294300,0.627294189453125,0.1119236669152975,0.04018982543870806,-0.08982691285423934
1761469121464250000,0.63725,0.11495733552277088,0.00696340927183628,-0.09713036773540079
1761469121474206200,0.647206298828125,0.0031821371674537655,0.0012805413298308849,-0.05647394769825041
1761469121484161000,0.6571611328125,-0.09528817393481731,0.012369944490492344,-0.04810377690102905
1761469121494117400,0.667117431640625,-0.14853227286636828,0.02845525624230504,-0.04441546204341575
1761469121504073200,0.6770732421875,-0.15300152723491192,0.011175181747972964,-0.05027279150318354
1761469121514028000,0.687028076171875,-0.1525397549420595,0.011150193437188862,-0.03443853190299123
1761469121523984100,0.696984130859375,-0.11101882703006268,0.015359920086711644,-0.042038887371495366
1761469121533940000,0.70693994140625,-0.08727087169587612,0.02636120657250285,-0.03420656804433092
1761469121543895300,0.716895263671875,-0.10132686957716941,0.0003984977982938289,0.002456635904498398
1761469121553851100,0.72685107421875,-0.056230421265959736,0.02609481072127819,0.04062894750833511
1761469121563807200,0.73680712890625,0.04848842883706093,0.020664017844200133,0.03536600374514237
1761469121573762300,0.74676220703125,0.12041910806000232,-0.01132832648307085,0.016052249732427297
1761469121583718400,0.756718505859375,0.05392331336736679,-0.0316474764123559,-0.005746471230126917
1761469121593674200,0.76667431640625,-0.07290975338816642,0.0003077507749199867,0.053951991472579536
1761469121603629000,0.776629150390625,-0.1294043785482645,0.011773878293484448,0.08197817211523652
1761469121613585200,0.786585205078125,-0.10809329497218131,0.020190555113554,0.09623641457036138
1761469121623541000,0.796541015625,-0.05164484704136848,0.05071633401960134,0.08969736819043755
1761469121633496300,0.806496337890625,-0.0014934534281492232,0.0732296329922974,0.041270642945356664
1761469121643452200,0.8164521484375,0.01571720909178257,0.03283098710849881,0.026632022870518267
1761469121653408300,0.826408203125,-0.026265491113066673,0.023935294599831104,0.04016257210560143
1761469121663363300,0.83636328125,-0.007995090407133101,0.03981193203702569,0.05520414695814251
1761469121673319200,0.846319091796875,0.02712298472523689,0.021123744310438633,0.024701621063519266
1761469121683275300,0.856275146484375,0.0741962860673666,-0.013345511524379253,-0.011245123445335774
1761469121693230000,0.86622998046875,0.17130232307910917,-0.029957769759744405,-0.08204601318705826
1761469121703186200,0.876186279296875,0.2951490675002336,-0.059389469818770885,-0.1263996072417125
1761469121713142300,0.886142333984375,0.37902912771403785,-0.0587219458207488,-0.13289667764343321
1761469121723097000,0.89609716796875,0.3810626793682575,-0.060022068633884186,-0.12107220167387277
1761469121733053200,0.90605322265625,0.31796178781092166,-0.06136150054410099,-0.10003821800611913
1761469121743009000,0.916009033203125,0.15410978073775766,-0.06507263002172112,-0.10093768759649246
1761469121752964400,0.92596435546875,-0.03987549879252911,-0.040619887419044966,-0.040965449453704054
1761469121762920200,0.935920166015625,-0.1178361058294773,0.06381327761039138,0.015608743748627602
1761469121772876300,0.945876220703125,-0.12021744800806045,0.12224836931377649,-0.0034268691761419174
1761469121782831000,0.9558310546875,-0.1500479381263256,0.11606558902561664,-0.04134703264981508
1761469121792787200,0.965787109375,-0.11626257290244102,0.10975129131227732,-0.027279892319999634
1761469121802743300,0.975743408203125,-0.06593406915664672,0.08351429564133286,0.0009313625659793615
1761469121812698000,0.985697998046875,-0.03237257581651211,0.06700637456327677,0.03735003543552011
1761469121822654200,0.995654296875,-0.022864742758870123,0.0642448008954525,0.03236231015082448
1761469121832610000,1.005610107421875,-0.039651626908779145,0.06419350909963249,0.04197502835504711
1761469121842565400,1.0155654296875,-0.051474751171469685,0.10113485413640737,-0.00006802373491227627
1761469121852521200,1.025521240234375,-0.02102057619690895,0.11620689719244837,-0.04266684654410928
1761469121862477300,1.035477294921875,0.0015986673682928084,0.08838044037297367,-0.07006846554763614
1761469121872432000,1.04543212890625,0.026222821015119552,0.08454349255859851,-0.08303137096259743
1761469121882388200,1.05538818359375,0.08306815930902957,0.05670592982321977,-0.056711409715935586
1761469121892344300,1.06534423828125,0.11964286299049853,-0.008266308563947677,-0.015969466819800434
1761469121902299100,1.075299072265625,0.13422785318195818,0.00459404979199171,0.0010123919129371643
1761469121912255200,1.085255126953125,0.13120645953416823,0.011944120293855666,0.003219181242212653
1761469121922211000,1.095211181640625,0.013496025910973548,-0.06508855824321508,-0.04372833829578012
1761469121932166100,1.105166259765625,-0.09643383683860302,-0.03021379034742713,-0.04872158000580966
1761469121942122200,1.115122314453125,-0.18404373123049736,0.009561462941020726,-0.000018996961414813994
1761469121952078000,1.125078125,-0.22400047856569288,0.0433272466816008,0.02362648437898606
1761469121962033200,1.135033203125,-0.20183365494310854,0.07016586150750517,0.018695092391408978
1761469121971989200,1.1449892578125,-0.14420155018568037,0.07685366870835424,0.000834733791090548
1761469121981945300,1.1549453125,-0.0750631320297718,0.04299728407487273,0.008324541557207703
1761469121991900200,1.164900146484375,-0.04492869052886963,0.021162907277047633,0.03813804400805384
1761469122001856000,1.17485595703125,-0.0033732758253812787,-0.013790478812903165,0.07261150109395384
1761469122011812000,1.18481201171875,0.055009939560294145,-0.04367153007462621,0.06467603191956878
1761469122021768200,1.194768310546875,0.11955050853192806,-0.055234103704988956,0.03289159472193569
1761469122031723300,1.20472314453125,0.14528466924726963,-0.06858882144913077,0.008785290936753154
1761469122041679000,1.21467919921875,0.12356851200163364,-0.06839622148647904,-0.007755071106180548
1761469122051635200,1.22463525390625,0.06002864450514316,-0.053199675267934794,-0.00394333079829812
1761469122061590300,1.23459033203125,-0.07162906592786311,-0.02736351548284292,-0.0008825549881905317
1761469122071546000,1.244546142578125,-0.15099311002194882,0.014499942256510258,-0.006659311758726835
1761469122081502200,1.254502197265625,-0.19245675478875635,0.03254077199026942,0.007576755397208035
1761469122091457000,1.26445703125,-0.22858663731217382,0.02314166000410914,-0.014015812001377343
1761469122101413400,1.274413330078125,-0.20845921056270597,0.011752250983566045,-0.019785043052583932
1761469122111369200,1.284369140625,-0.11923311314582824,0.020978344490379094,0.018783099468424914
1761469122121324300,1.29432421875,-0.015060791009664535,-0.006112491530925035,0.007976860630698501
1761469122131280100,1.304280029296875,0.03518880228102207,-0.059307344493269916,-0.051452429741807276
1761469122141236200,1.314236328125,0.03664601535201072,-0.0948985900953412,-0.101511103570275
1761469122151191300,1.32419140625,0.033786534267663954,-0.09315992973446846,-0.0918667846513912
1761469122161147100,1.334147216796875,0.11438450407087802,-0.07506342429071665,-0.09015267420988529
1761469122171103200,1.344103271484375,0.18784429255723953,-0.08100684286504983,-0.12318948608878999
1761469122181058000,1.35405810546875,0.19379472539424894,-0.08783946536406874,-0.17273578994832933
1761469122191014400,1.364014404296875,0.13473755626976489,-0.08440876026302575,-0.180199440359883
1761469122200970200,1.37397021484375,0.12135492760539054,-0.04673340186327696,-0.13554598657581954
1761469122210925000,1.383925048828125,0.06092179395258426,-0.03473258294612169,-0.1003513390759006
1761469122220881200,1.393881103515625,0.000027472528815269467,-0.032342619069665665,-0.12353435400370508
1761469122230837000,1.4038369140625,0.019727613776922226,-0.007605944959074258,-0.1179805923340842
1761469122240792300,1.413792236328125,0.09090309071838855,0.01667348690330982,-0.1295036011390388
1761469122250748200,1.423748046875,0.06074877547323703,0.002707505393028259,-0.1700414728304371
1761469122260704300,1.433704345703125,-0.017988076633214948,-0.004699555993080139,-0.14087638781834394
1761469122270659300,1.443659423828125,-0.08184826212525367,-0.026291648467630147,-0.05471110274419188
1761469122280615200,1.453615234375,-0.10704583174586295,-0.004133446542918682,0.04091211183127016
1761469122290571300,1.4635712890625,-0.0876508109241724,-0.006977437797188758,0.05600139828305691
1761469122300526000,1.473526123046875,-0.04224982670843601,-0.04462196266725659,0.04267112086042762
1761469122310482200,1.483482177734375,-0.008224222987890243,-0.029897271744161843,0.04392572403140366
1761469122320438300,1.493438232421875,0.014780220502614974,-0.0054505204908549786,0.060076721430569885
1761469122330393000,1.50339306640625,-0.04741583116948604,0.02494958620890975,0.035342969929426905
1761469122340349200,1.51334912109375,-0.17359364888668058,0.07706979567706584,0.053686801197752355
1761469122350305000,1.523304931640625,-0.25190496905744075,0.12644026804566383,0.0390181147782132
1761469122360260400,1.53326025390625,-0.2588151868373155,0.1643286846742034,0.00034680414367467164
1761469122370216200,1.54321630859375,-0.17523907800614832,0.19379180278480052,-0.02774878847338259
1761469122380172300,1.55317236328125,-0.032303602233529086,0.2097596256367862,-0.031733328064903615
1761469122390127000,1.563127197265625,0.0773807613223791,0.20797581095993517,-0.06678326986450701
1761469122400083200,1.573083251953125,0.15546470247805116,0.19908990919291972,-0.07752006019521504
1761469122410039300,1.583039306640625,0.1687748504281044,0.15957184553593395,-0.07268328768853098
1761469122419994000,1.592994140625,0.12410627214014529,0.1058452237844467,-0.030908969537355002
1761469122429950200,1.6029501953125,0.07707447185218334,0.0900913359440863,0.013322495974972844
1761469122439906000,1.612906005859375,0.07338087803125382,0.08239639752730726,0.03703030196186155
1761469122449861400,1.622861328125,0.1138403141915798,0.054610418848693366,0.04607340358458459
1761469122459817200,1.632817138671875,0.15138649325370787,0.0307280234798789,0.03379124697539955
1761469122469773300,1.642773193359375,0.1740156736910343,-0.013197335225343703,-0.013755955488793551
1761469122479729200,1.652729248046875,0.15968261243402956,-0.034141923576593396,-0.05234959777723998
1761469122489684200,1.662684326171875,0.07238660629689693,-0.032528789291530844,-0.021632241821847854
1761469122499640300,1.672640380859375,0.0404769718170166,-0.028968758722394704,0.033869536375999446
1761469122509596200,1.68259619140625,-0.007307108142971992,-0.06373086002394557,0.07899462625980377
1761469122519551200,1.69255126953125,-0.04690729712545871,-0.12483385576233268,0.11554803142491728
1761469122529507000,1.702507080078125,-0.011439677903056144,-0.14143091642856598,0.09804602127559482
1761469122539463200,1.712463134765625,0.03071487173736095,-0.1267924424842,0.08010306242574006
1761469122549418200,1.722418212890625,0.05281447534263134,-0.12092252753749488,0.057205586441047486
1761469122559374000,1.7323740234375,0.040372926920652384,-0.11249372188821434,-0.012881876068003475
1761469122569330200,1.742330078125,-0.007644377273321151,-0.0630661125048995,0.01430189893376082
1761469122579285200,1.75228515625,-0.011979776129126547,-0.037004035009443756,0.04481423383634537
1761469122589241300,1.762241455078125,0.04084872773885727,-0.055831923467665905,0.06962612860761583
1761469122599197200,1.772197265625,0.11173369730114936,-0.11807649045661091,0.056436501764692365
1761469122609152000,1.782152099609375,0.2005453686982393,-0.19155965981855988,0.029974245970509943
1761469122619108000,1.792108154296875,0.2469751114398241,-0.21801848154664039,-0.009180902658216654
1761469122629064200,1.802064208984375,0.21215221986174582,-0.20658172625303267,-0.03418086734749377
1761469122639019300,1.812019287109375,0.09443594101965427,-0.1329277303688228,-0.04546568348240107
1761469122648975000,1.82197509765625,-0.07714519900083541,-0.06773337366357446,-0.04752382158860564
1761469122658931200,1.83193115234375,-0.249300924038887,0.021193302415311335,-0.05355637975111603
1761469122668886300,1.84188623046875,-0.36857787632644173,0.11228913922682404,-0.06176584356129169
1761469122678842400,1.85184228515625,-0.41517596137225626,0.19835107352435588,-0.07359437465146183
1761469122688798200,1.861798095703125,-0.3987356987029314,0.19024112456589937,-0.1301266284082085
1761469122698753000,1.8717529296875,-0.3100783410847187,0.1701743419624865,-0.1708738320013508
1761469122708709000,1.881709228515625,-0.22125205664038658,0.14779022232741115,-0.19263616647627205
1761469122718665200,1.891665283203125,-0.13471300635039807,0.11539061237350105,-0.20586316618751732
1761469122728620300,1.901620361328125,-0.10254793580472468,0.08774725703597068,-0.18629534608218817
1761469122738576100,1.911576171875,-0.09831365923583507,0.06240268016010522,-0.13797182548325507
1761469122748532200,1.9215322265625,-0.08873276094198226,0.039417379761487244,-0.06486359038092196
1761469122758487300,1.9314873046875,-0.045637131059169764,0.022928747905790803,0.031111287176422774
1761469122768443100,1.941443115234375,-0.013901684102416038,-0.003775719146430492,0.090066274568066
1761469122778399200,1.951399169921875,-0.043609424623847,-0.02799026907905936,0.14051449570339172
1761469122788354000,1.96135400390625,-0.04503682707846164,-0.020161767410486937,0.1762920576578006
1761469122798310400,1.971310302734375,-0.04344108231961727,-0.0336254984870553,0.2019150861488655
1761469122808266200,1.981266357421875,-0.002810381245613098,-0.06373334424197673,0.16194080315697937
1761469122818221000,1.991220947265625,0.09548691137731075,-0.0703381493344903,0.10300492232460529
1761469122828177200,2.00117724609375,0.1077408282727003,-0.080427435541898,0.07955569420866668
1761469122838133000,2.011133056640625,0.14280921904444693,-0.08644289643913507,0.03553231848906725
1761469122848089300,2.02108935546875,0.2105319251835346,-0.08402619068622588,0.04266319328229874
1761469122858044200,2.031044189453125,0.24290742360949516,-0.08299041789770126,0.046448958898708224
1761469122868000300,2.041000244140625,0.2877484358549118,-0.06943477075397968,0.04872084935344755
1761469122877956000,2.0509560546875,0.28940087923705576,-0.09321531318351625,0.06736326170954852
1761469122887911200,2.0609111328125,0.23333120149075984,-0.11931509234085678,0.04980013249013573
1761469122897867300,2.0708671875,0.14833704255521296,-0.1321804191328585,0.028431144714355466
1761469122907823000,2.080822998046875,0.0573386747688055,-0.12553440524712203,0.08121562677752227
1761469122917778200,2.090778076171875,-0.0035457097828388213,-0.12009791328161955,0.12696816437728703
1761469122927734000,2.100734130859375,-0.033356910678744314,-0.1152308917671442,0.15119371062796563
1761469122937690400,2.1106904296875,-0.05753799673318863,-0.10071925907284021,0.12390220093540846
1761469122947645200,2.120645263671875,-0.01989595608115196,-0.06008607378080487,0.0658001771112904
1761469122957601300,2.130601318359375,0.001059153664112091,-0.03102262251228094,-0.029872246900759635
1761469122967557000,2.14055712890625,-0.03260989170372486,0.008999737405031918,-0.07381802733950317
1761469122977512200,2.15051220703125,-0.08096154241859913,0.06126330086663365,-0.12230466607827692
1761469122987468300,2.16046826171875,-0.12935060253441333,0.08728124695941805,-0.1686251032264903
1761469122997424000,2.170424072265625,-0.1456213538557291,0.11217355002313852,-0.16264836690444498
1761469123007379200,2.180379150390625,-0.1522393106907606,0.043415217225998635,-0.20860084752310065
1761469123017335300,2.190335205078125,-0.19677637155354022,0.08464432258456944,-0.20005473563708365
1761469123027291400,2.20029150390625,-0.22911738318800925,0.1162219486311078,-0.15813940158002077
1761469123037246200,2.21024609375,-0.25313012693822384,0.09275412541255354,-0.17778653399925679
1761469123047202000,2.2202021484375,-0.28692718259990213,0.10534092752411961,-0.11917246899977325
1761469123057158100,2.230158203125,-0.309011004114151,0.10539777227789163,-0.06478778519835322
1761469123067113200,2.24011328125,-0.29161972433030603,0.10921411569565534,-0.030173677532747387
1761469123077069300,2.2500693359375,-0.22987550807893276,0.1104154543094337,-0.018056100368127225
1761469123087025200,2.260025146484375,-0.12402268550992011,0.06936784299761056,-0.029142873180285096
1761469123096981200,2.269981201171875,0.05219079048633575,0.03774374746084213,-0.04926317606922239
1761469123106936300,2.279936279296875,0.17629589358270167,0.015669862818717954,-0.08122439460586756
1761469123116892200,2.28989208984375,0.22630291028916835,0.00008840893581509589,-0.10057853542789816
1761469123126848300,2.29984814453125,0.2036217074036598,0.003093143709748983,-0.1361672968119383
1761469123136803000,2.309802978515625,0.1341968735218048,0.023732173243165015,-0.13687920794095843
1761469123146759200,2.31975927734375,0.0042430443972349165,0.0024468086302280425,-0.10155139904804528
1761469123156715300,2.32971533203125,-0.08292845857739448,0.01712254584506154,-0.03947996013630181
1761469123166670000,2.339670166015625,-0.19539923798143863,0.03683788466230035,0.0249013266203925
1761469123176626200,2.349626220703125,-0.2660726106196642,0.04579349066466093,0.040248898682184515
1761469123186582000,2.35958203125,-0.3275497003674507,0.04840075055360794,0.11563117966372519
1761469123196537300,2.369537353515625,-0.22594226028323172,0.055781654585152864,0.07567355554569512
1761469123206493200,2.3794931640625,-0.09038461980223655,0.04463409149646759,0.056744581333175295
1761469123216449300,2.38944921875,0.0033978257447481153,0.04331672528758645,0.02853613945879042
1761469123226404000,2.399404052734375,0.08667758197784424,0.019542174207419157,-0.021110665633156896
1761469123236360200,2.409360107421875,0.13135901974737643,0.045104631617665286,-0.00034052053336054087
1761469123246316300,2.41931640625,0.18501345304548739,0.05156389075964689,0.01999634771570563
1761469123256271000,2.42927099609375,0.17375263884067535,0.021956688003242016,-0.0030320977048948405
1761469123266227200,2.439227294921875,0.08638356746733188,0.030930852575600146,-0.051507082538492975
1761469123276183000,2.44918310546875,0.046676410979032516,0.05853109942376613,-0.09599767391104251
1761469123286138400,2.459138427734375,0.08285422429740429,0.10442921950668096,-0.1293787691829726
1761469123296094200,2.46909423828125,0.14970073212385177,0.10272022363170981,-0.15906400561165063
1761469123306050300,2.47905029296875,0.1682861901283264,0.07769318827241659,-0.22816866762842983
1761469123316005000,2.489005126953125,0.14486556705236434,0.06182926418632269,-0.2263870449086651
1761469123325961200,2.498961181640625,0.10974456931054591,0.09072817254289985,-0.1956252287570387
1761469123335917300,2.508917236328125,0.08713409357368945,0.08051540608629584,-0.13669150334913283
1761469123345873200,2.518873046875,0.04949380648732185,0.05994593465775251,-0.07955028738118708
1761469123355828200,2.528828125,0.0441150360584259,0.032251872046291825,-0.0728076081879437
1761469123365784000,2.5387841796875,-0.003736848440766334,0.020312720188498497,-0.052545047284103925
1761469123375740400,2.548740478515625,-0.0777560243755579,-0.00025718963146209714,0.007589578346163034
1761469123385695200,2.5586953125,-0.1516653101950884,0.0055693245649337765,0.022786782151833176
1761469123395651000,2.568651123046875,-0.2151256827145815,0.02974368861764669,0.11284772295765579
1761469123405607200,2.578607177734375,-0.1937742671281099,0.058159197371453045,0.17462138449922204
1761469123415562200,2.588562255859375,-0.2069377000838518,0.0708782475605607,0.15780856219045816
1761469123425518300,2.598518310546875,-0.21533611059486865,0.10585559904798865,0.1111695606123656
1761469123435474200,2.60847412109375,-0.16156477291882038,0.12148293789923191,0.029167532697506247
1761469123445429000,2.618428955078125,-0.11074410174190998,0.12208470318466424,-0.040157165278121826
1761469123455385000,2.628385009765625,-0.05755611691176891,0.1446891875721514,-0.08519698803126811
1761469123465341200,2.638341064453125,-0.015293430721759795,0.14152443993091582,-0.1523581147648394
1761469123475296300,2.648296142578125,-0.019085808742046354,0.14051555514931677,-0.19606391243524848
1761469123485252000,2.658252197265625,-0.03882803556621074,0.15809563550353048,-0.16402981132548303
1761469123495208200,2.668208251953125,-0.04237257630527019,0.14047200826853512,-0.17425035922974347
1761469123505163300,2.678163330078125,-0.004883095866441726,0.11299670297428965,-0.1419854815714061
1761469123515119000,2.688119140625,0.08175649218857288,0.0917857187718153,-0.08347820141464471
1761469123525075200,2.6980751953125,0.1667915676563978,0.034096476999670264,-0.032005715265497565
1761469123535030000,2.708030029296875,0.22301380561590192,-0.03899827756658196,0.02322385839484632
1761469123544986400,2.717986328125,0.30646073510944843,-0.052618222118169064,0.051716085646674036
1761469123554942200,2.727942138671875,0.31322949859201904,-0.06954992156624794,0.09227284470163286
1761469123564897300,2.737897216796875,0.20426058982908724,-0.10179697130694985,0.05610610076654702
1761469123574853000,2.74785302734375,0.1242062253832817,-0.07837824792712926,0.07496314225401729
1761469123584809200,2.757809326171875,0.03995324020385742,-0.06009878713190555,0.0736825278589502
1761469123594765300,2.767765380859375,-0.04390694626569747,-0.007801613661646842,0.07421915548630058
1761469123604720000,2.77772021484375,-0.09970131420195102,-0.0020193769983947274,0.05429101416859775
1761469123614676200,2.78767626953125,-0.08464578388929367,0.02183203871026635,0.048550132429040965
1761469123624632000,2.797632080078125,-0.04838204585313797,0.05239055084213614,0.031773696607910094
1761469123634587400,2.80758740234375,-0.08211012793183327,0.03487213754728436,-0.044391661042720076
1761469123644543200,2.817543212890625,-0.13107552663087843,0.025485592781752345,-0.055207982883043585
1761469123654499300,2.827499267578125,-0.10218611675500869,0.0831378635443747,-0.028907091663032767
1761469123664454100,2.8374541015625,-0.0738210230141878,0.07176701309382916,-0.06812734141722321
1761469123674410000,2.847409912109375,-0.03435118241310119,0.08130611807256936,-0.13485855230093002
1761469123684366300,2.857366455078125,0.028732758009433746,0.05969312894046306,-0.20620496536251157
1761469123694321200,2.867321044921875,0.06318330914378166,0.05619929547533393,-0.2612464691048488
1761469123704277200,2.87727734375,0.10115151301026344,0.09983253936618566,-0.24589754533618688
1761469123714233000,2.887233154296875,0.1371422793239355,0.11556947607174516,-0.2154945160269737
1761469123724188200,2.897188232421875,0.11807166815102099,0.06510331742092966,-0.2154046092538163
1761469123734144300,2.907144287109375,0.06387596758306026,0.0295277077794075,-0.20188991517499089
1761469123744100000,2.91710009765625,0.09807400526106357,0.022545447676628826,-0.1475359553053975
1761469123754055200,2.92705517578125,0.14715455477237702,-0.005192892467975616,-0.12522844457048923
1761469123764011300,2.93701123046875,0.16479484088122845,-0.0505459458887577,-0.1459279355868697
1761469123773967400,2.94696728515625,0.1532148777246475,-0.08732698579728602,-0.07893043844979256
1761469123783923200,2.956923095703125,0.1091875199496746,-0.109130821326375,-0.003626227673143148
1761469123793878000,2.9668779296875,-0.000180032742023468,-0.1395218679368496,0.033151816560700535
1761469123803834000,2.976834228515625,-0.10072072037756442,-0.10556319197267293,0.08754037281963974
1761469123813790200,2.986790283203125,-0.1815840631186962,-0.08691182912513613,0.12311437502596527
1761469123823745300,2.996745361328125,-0.22960896609723566,-0.06188420924395322,0.13485526436530051
1761469123833701000,3.006701171875,-0.25896599348485466,-0.058707917295396324,0.09514613511562346
1761469123843657200,3.0166572265625,-0.264922271540761,-0.10616115786582231,-0.007303308750689029
1761469123853612300,3.0266123046875,-0.22559739236831663,-0.10287029962688683,0.005738507119379938
1761469123863568400,3.036568359375,-0.17419278382360934,-0.07408668821305037,0.05206449722554534
1761469123873524200,3.046524169921875,-0.14580723181664942,-0.07740238863229751,-0.020626243117079137
1761469123883479000,3.05647900390625,-0.1652373239517212,-0.09607654783353209,-0.07793618498174473
1761469123893435100,3.06643505859375,-0.16035831973850725,-0.0620811931207776,-0.1192740296781063
1761469123903391200,3.07639111328125,-0.1439917068272829,-0.022783348085731268,-0.13994447726309298
1761469123913346300,3.08634619140625,-0.126240361559391,-0.002667465643584728,-0.12160897543169558
1761469123923302100,3.09630224609375,-0.07332710201740264,-0.00625584552437067,-0.09993216381575912
1761469123933258200,3.10625830078125,-0.046590486261248586,-0.03844312790185213,-0.10117966139251365
1761469123943213300,3.11621337890625,-0.10494915172755717,-0.06205941968038678,-0.09516180760879069
1761469123953169200,3.126169189453125,-0.15988953318297863,-0.05978416822478175,-0.0366370648605749
1761469123963125200,3.136125244140625,-0.18957272378504275,-0.030721301478147504,0.020779680113121864
1761469123973081000,3.1460810546875,-0.22307342684864997,0.032739655563235284,0.05027565931370481
1761469123983036200,3.1560361328125,-0.1864811875104904,0.08519099668189883,0.042553814623691136
1761469123992992300,3.1659921875,-0.13072130636572837,0.12608794747665525,0.012783128401264547
1761469124002948400,3.1759482421875,-0.03305646642744541,0.1555959276422858,0.010347060360759497
1761469124012903200,3.185903076171875,0.031684009030461306,0.19222192311957478,0.026251700049731878
1761469124022859000,3.19585888671875,0.07123568269610404,0.21808102538883684,0.04215564561896026
1761469124032815000,3.205815185546875,0.11341127512454986,0.23142244525998829,0.06693363812062889
1761469124042770200,3.215770263671875,0.1220277123004198,0.19947569364011286,0.059569265098776664
1761469124052726300,3.225726318359375,0.1469973183840513,0.21803236394152045,0.06641613531885668
1761469124062682000,3.23568212890625,0.17763795584142206,0.20498773505985735,0.06023792160796001
1761469124072637200,3.24563720703125,0.19889643244743346,0.15408274660035967,0.009980747799016535
1761469124082593300,3.25559326171875,0.20744389604032037,0.13150105856657027,0.047743199960328636
1761469124092549000,3.265549072265625,0.20609072786569593,0.09161723033711314,0.0961549102993682
1761469124102504200,3.275504150390625,0.1286591131389141,0.03468362923786044,0.14677403102219103
1761469124112460000,3.2854599609375,0.06741349405944347,0.02420037527680397,0.20699728478398172
1761469124122416400,3.29541650390625,0.023116087171435356,-0.007170914542675018,0.22322310098502784
1761469124132372200,3.305372314453125,0.018502455896139143,-0.04093903637081384,0.213355238975957
1761469124142327300,3.315327392578125,0.0692769498437643,-0.03278115661740303,0.20839155215397476
1761469124152283100,3.325283203125,0.0790589236676693,-0.02680164381638169,0.14940215103607624
1761469124162239000,3.335239013671875,0.03744564129710197,-0.011692922011762856,0.08890018993075936
1761469124172194600,3.345194580078125,-0.0153629888266325,-0.012175883223116397,0.04138590335547924
1761469124182150700,3.355150634765625,-0.09879939692616461,0.026722002708911893,0.03654076487924903
1761469124192106500,3.3651064453125,-0.09353869991898536,0.016833645901083945,0.01134567947667092
1761469124202061600,3.3750615234375,-0.046747722649574275,-0.0013739187017083167,0.018998532317392527
1761469124212017700,3.385017578125,0.004520692294836044,-0.035300445961952205,0.0388304467190057
1761469124221973800,3.394973876953125,0.09229425281584262,-0.06714417559877038,0.015433094920776784
1761469124231928600,3.404928466796875,0.12848317205011844,-0.11289543455690144,0.01930719640776515
1761469124241884400,3.414884521484375,0.0810059660822153,-0.11983780104070901,0.008113163828849792
1761469124251840500,3.424840576171875,0.058657940673828124,-0.1113093344092369,0.0037678646335378286
1761469124261795600,3.434795654296875,0.020189970591664313,-0.10514891208335757,-0.018366371893696484
1761469124271751700,3.444751708984375,-0.036411037552356716,-0.09330679085925221,-0.06781582778263837
1761469124281707500,3.45470751953125,-0.0828010328054428,-0.06722995418608188,-0.0948526685943827
1761469124291662300,3.464662353515625,-0.11417933688759803,-0.05835340476930141,-0.151828063008748
1761469124301618700,3.47461865234375,-0.10867723233997821,-0.04122691340148449,-0.19590378997009247
1761469124311574500,3.484574462890625,-0.11786299383640289,-0.01661649601906538,-0.26191936339773236
1761469124321530600,3.494530517578125,-0.1430938812047243,0.004462824627757072,-0.27771767490170896
1761469124331485400,3.5044853515625,-0.15296587139964102,0.007128828966617584,-0.2636003752872348
1761469124341441500,3.514441650390625,-0.21121932292580603,0.037377544496953484,-0.2287850094284862
1761469124351397600,3.524397705078125,-0.2940326306909323,0.031020284424722194,-0.16063085306957364
1761469124361352700,3.534352783203125,-0.3447387355774641,-0.005772445921599864,-0.05009323368519544
1761469124371308500,3.54430859375,-0.3232663239598274,0.00742138217240572,0.1168261981345713
1761469124381264400,3.554264404296875,-0.2599398069530725,0.013610299940407276,0.22253796826507896
1761469124391219700,3.5642197265625,-0.18342998324632642,0.02902238860577345,0.23683595820870249
1761469124401175600,3.574175537109375,-0.08443301792144775,0.03936871831417083,0.2392534311465919
1761469124411131600,3.584131591796875,0.027984569990634915,0.04418678612038493,0.19715828354321419
1761469124421086500,3.59408642578125,0.1633715300798416,0.03526698208376765,0.11516644822880626
1761469124431042600,3.60404248046875,0.2567863113582134,0.04401420603245496,0.020203341529890895
1761469124440998700,3.61399853515625,0.31161738722026344,0.022863719845563173,-0.03752418642602861
1761469124450953500,3.623953369140625,0.3614870412826538,0.018910744436085224,-0.06052658408991992
1761469124460909600,3.63390966796875,0.30659459062218664,0.06269494110494851,-0.06655735215414316
1761469124470865400,3.643865478515625,0.21562954058349132,0.08563391814380884,-0.06859053848218172
1761469124480821500,3.653821533203125,0.1479828222900629,0.15664543669521808,-0.06604918343629687
1761469124490776600,3.663776611328125,0.10436755244731903,0.18153627845421433,-0.05464972794577479
1761469124500732700,3.673732666015625,0.049533553975820536,0.1538251185774803,-0.06318667014464735
1761469124510688500,3.6836884765625,0.022921441382169724,0.1173905540190637,-0.046650363222323354
1761469124520643600,3.6936435546875,-0.0785831228494644,0.07850216656774282,-0.02803414475340396
1761469124530599700,3.703599609375,-0.17209201215207576,0.07719137623012065,0.013295242641866207
1761469124540555500,3.713555419921875,-0.16038111609220504,0.0987809844866395,0.04123728866502643
1761469124550510600,3.723510498046875,-0.1531196006566286,0.06654679422751068,0.026985402885451912
1761469124560466400,3.733466552734375,-0.1339046125769615,0.04285042295008897,-0.008849844072945416
1761469124570422500,3.743422607421875,-0.07699848400652408,0.03435775828436017,-0.0662977513698861
1761469124580377600,3.753377685546875,-0.05014204126298427,0.002932546320557594,-0.07939104169886559
1761469124590333400,3.76333349609375,-0.04558686217665672,-0.002589578101783991,-0.08379577946383505
1761469124600289500,3.77328955078125,-0.009397358420491218,-0.008506985452026128,-0.0684012995203957
1761469124610244600,3.78324462890625,-0.008014964151382446,0.00748977123349905,-0.060375704377144575
1761469124620200700,3.79320068359375,0.007945406046509743,-0.03655146893635392,-0.057494047993607814
1761469124630156500,3.803156494140625,0.10640811836421489,-0.05688084799870848,-0.021250329832173884
1761469124640112600,3.813112548828125,0.14178572121560573,-0.06066285075545311,-0.04816051205694675
1761469124650067500,3.8230673828125,0.10380115073621272,-0.09661708445101976,-0.053807724163681264
1761469124660023600,3.8330234375,0.061443772000074386,-0.060269321393221616,-0.02301770483087748
1761469124669979600,3.842979736328125,0.012683540484309195,-0.046062516864389176,-0.03308247765153646
1761469124679934500,3.8529345703125,-0.015815993291139602,-0.040008915913850064,-0.052467598133720456
1761469124689890600,3.862890625,0.02080138048827648,0.011117460211366415,-0.022758396307565272
1761469124699846400,3.872846435546875,-0.020796704313158988,-0.007082943998277187,-0.02439345016349107
1761469124709801700,3.8828017578125,-0.056709729215502734,-0.004137099804729223,-0.02134312268216163
1761469124719757600,3.892757568359375,-0.07376666247844696,0.05032324304878712,0.008230031674169004
1761469124729713700,3.902713623046875,-0.10737608661353587,0.07910057085230945,-0.0035873569674789905
1761469124739668500,3.91266845703125,-0.12077040571570395,0.07938450236022472,-0.044485805599577724
1761469124749624600,3.92262451171875,-0.06525193211138249,0.04047112659811973,-0.10009108070451765
1761469124759580700,3.93258056640625,0.0014794249027967451,0.0210107854552567,-0.15549498801846057
1761469124769536500,3.94253662109375,0.05884440315663814,0.07424056360051036,-0.19133878360949455
1761469124779491600,3.95249169921875,0.06088730716109275,0.07642389898896217,-0.2364834915092215
1761469124789447400,3.962447509765625,0.06122165368199348,0.09928893400877714,-0.23258915095180271
1761469124799403800,3.97240380859375,0.04450549668073654,0.12127075645327567,-0.13044157610889523
1761469124809358600,3.982358642578125,0.02516892804801464,0.08955693680644035,-0.03246723183002323
1761469124819314400,3.992314453125,-0.003938508492708206,0.030015345165878532,0.05505761462692171
1761469124829892600,4.002892578125,-0.005645896932482719,-0.018863105902075766,0.12117431034147738
1761469124839847700,4.01284765625,-0.009922843599319458,-0.051243134372681375,0.1825263489374891
1761469124849803500,4.022803466796875,0.01382277364730835,-0.08269464982151985,0.1791657864632085
1761469124859759600,4.032759521484375,0.09339256944656371,-0.09768091429024935,0.14256350065506995
1761469124869714400,4.04271435546875,0.12120996617674827,-0.07315715227797627,0.08875365759953856
1761469124879670500,4.05267041015625,0.12517360911071299,-0.036707390150427816,0.013834646748192608
1761469124889626600,4.062626708984375,0.17393033349514006,0.02876344540864229,-0.05858732312303036
1761469124899581700,4.072581787109375,0.19247545948922634,0.10164221913665532,-0.11913867632802574
1761469124909537500,4.08253759765625,0.15589841772019863,0.11647563113123177,-0.17303692831937223
1761469124919493600,4.09249365234375,0.10172668254971504,0.10031666962131858,-0.15760668294280766
1761469124929449500,4.102449462890625,0.006543138033151626,0.09122530841007828,-0.10583298535738139
1761469124939404500,4.112404541015625,-0.04622749816775322,0.05010960029810667,-0.03058145461603999
1761469124949360600,4.122360595703125,-0.08061784354746342,0.028248627754300832,0.031521219684183595
1761469124959316500,4.13231640625,-0.06451368096470833,0.03075023531168699,0.01062960362918675
1761469124969271600,4.142271484375,-0.10063128852844237,0.009840864404290914,-0.011864734914712608
1761469124979227600,4.1522275390625,-0.1273643971532583,0.0295101721227169,0.0020903598753735423
1761469124989183700,4.162183837890625,-0.11002046364247799,0.0428580217346549,-0.009787709444947541
1761469124999138600,4.172138671875,-0.05239128149449825,0.05651756764426827,-0.08215239617098122
1761469125009094400,4.182094482421875,0.0055979661375284194,0.02772840327247977,-0.09926683177482336
1761469125019050500,4.192050537109375,0.019741642302274702,-0.03418050202131271,-0.08221249232776462
1761469125029005600,4.202005615234375,0.028961890590190886,-0.06036649815738201,-0.016076434325613082
1761469125038961700,4.211961669921875,0.00010813654959201812,-0.07908493489176034,0.09105415309425442
1761469125048917500,4.22191748046875,-0.05042319629192352,-0.12475436078533529,0.162163871323131
1761469125058873600,4.23187353515625,-0.07992167797684668,-0.15607129006907344,0.1900456019937992
1761469125068828700,4.24182861328125,-0.08549977037012577,-0.15229747061878443,0.24285014046430586
1761469125078784500,4.251784423828125,-0.09421499174535274,-0.1545806131199002,0.25970428116414696
1761469125088740600,4.26174072265625,-0.07465805836021899,-0.11176774570122361,0.2284419681444764
1761469125098695400,4.2716953125,-0.03885258548557758,-0.0606857932396233,0.13986845288481561
1761469125108651500,4.281651611328125,-0.00989654011428356,-0.028395781140029427,0.05101761852111667
1761469125118607600,4.291607666015625,0.05432897155880928,-0.004847440031170845,0.01678816279154271
1761469125128562400,4.3015625,0.06610884120166301,-0.028669045123457908,-0.043828108875826
1761469125138518500,4.3115185546875,0.07116963172256946,-0.010116758736222982,-0.11454400548152625
1761469125148474400,4.321474365234375,0.04929799165427685,0.03524477025195956,-0.12214479934144765
1761469125158430500,4.331430419921875,0.047529812937974925,0.04355594087094068,-0.17704627355858682
1761469125169009700,4.342009765625,0.019233108258247374,0.04754252628907561,-0.13734846942052245
1761469125178964700,4.35196484375,-0.049663902357220645,0.052797816468775266,-0.0926755072183907
1761469125188920800,4.3619208984375,-0.0786146870315075,0.055853112386167046,-0.05486669516470283
1761469125198876700,4.371876708984375,-0.10001637150049209,0.03922434140741825,-0.027550745150633153
1761469125208831700,4.381831787109375,-0.12729834617972374,0.0327985461436212,-0.07389938548002392
1761469125218787600,4.39178759765625,-0.14019815976321695,0.05333586886823177,-0.11410641778185963
1761469125228743700,4.40174365234375,-0.14608546423614024,0.08229995141550898,-0.12666720866933465
1761469125238698800,4.41169873046875,-0.11551438488364218,0.08294234097227454,-0.16233100805096326
1761469125248654600,4.421654541015625,-0.048072249251604075,0.11419015054255724,-0.20466811118405312
1761469125258610700,4.431610595703125,-0.02461947747170925,0.09973770068958401,-0.20493107296917587
1761469125268566500,4.44156640625,0.032843115937709805,0.07277268300503492,-0.16438395852539686
1761469125278521900,4.45152197265625,0.03645838382542133,0.033967589922994375,-0.09597871348224579
1761469125288477700,4.461477783203125,0.050064299851655954,-0.02767944956421852,0.0035643779506906864
1761469125298433800,4.471433837890625,0.04487783712446689,-0.07869564331322908,0.10235434946138411
1761469125308388600,4.481388671875,0.0341027606099844,-0.11288915094658732,0.16284904057569802
1761469125318344700,4.4913447265625,0.03885667713880539,-0.13620266038626433,0.15882782223559916
1761469125328300800,4.50130078125,0.024449381601810455,-0.0992901030525565,0.18061646019555627
1761469125338255600,4.511255615234375,0.05614098941683769,-0.09311389863565564,0.1631582526553422
1761469125348211700,4.521211669921875,0.09735679690241814,-0.03137976538687944,0.12191194043364376
1761469125358167600,4.53116748046875,0.13420505682826042,0.010567717374116182,0.07110902410913258
1761469125368123600,4.54112353515625,0.15643559333682058,0.042830841466784474,0.021133571584708986
1761469125378078700,4.55107861328125,0.164831081238389,0.05030979904532432,-0.08582523946482688
1761469125388034600,4.56103466796875,0.15199907219409942,0.05130348625779152,-0.10851528324391692
1761469125397990700,4.57099072265625,0.14253800088763235,0.04925327572971582,-0.1289811481675133
1761469125407945700,4.58094580078125,0.07499123583734035,0.039601942548155786,-0.16434274973217397
1761469125417901800,4.59090185546875,0.015962123763561247,0.04556201999634504,-0.1403577342391014
1761469125427857700,4.600857666015625,-0.04745616317987442,0.07092837031260132,-0.10579148430321365
1761469125437812700,4.610812744140625,-0.1462000305265188,0.09434490173533558,-0.08686722279842943
1761469125447768600,4.6207685546875,-0.19332067814171314,0.08552402802854776,-0.08792447676640003
1761469125457725000,4.630724853515625,-0.19526129081547258,0.09769538120701908,-0.08646218566149473
1761469125467680800,4.6406806640625,-0.17269465422034264,0.10140285742282867,-0.10295658967085182
1761469125477635600,4.650635498046875,-0.19359248082041738,0.0764430420808494,-0.12114263656157999
1761469125487591700,4.660591796875,-0.1713894168406725,0.06904036460891366,-0.11657229643873869
1761469125497547500,4.670547607421875,-0.06063888535797596,0.03835881061926484,-0.10201861470099538
1761469125507502800,4.6805029296875,0.029066520008444785,-0.012396394106000661,-0.06930285147000104
1761469125517458700,4.690458740234375,0.09199731569588183,-0.04636909859552979,-0.042395811050385236
1761469125527414800,4.700414794921875,0.14486907418370246,-0.04661839718148112,0.0036486221680417656
1761469125537369900,4.710369873046875,0.11326280656456947,-0.07138210542947053,0.01087473749667406
1761469125547325700,4.72032568359375,0.09690086982846259,-0.06468728396594524,0.04697356729470193
1761469125557281800,4.73028173828125,0.0878992327272892,-0.03080678780451417,0.09147614136599004
1761469125567237600,4.740237548828125,0.07233283028304577,-0.03757701259180903,0.11603797036632894
1761469125577192700,4.750192626953125,0.04448796102404594,-0.024464725301414726,0.1141824786927551
1761469125587148500,4.7601484375,0.008936170649528502,-0.00022547931894659995,0.09738722857329994
1761469125597105000,4.77010498046875,-0.06778641902506351,0.024983634608983993,0.047986434131674464
1761469125607059700,4.780059814453125,-0.11212532696723937,0.034625615440309045,-0.012386493766494094
1761469125617015600,4.790015625,-0.08130407224595547,0.058566024606674906,-0.026407676062732935
1761469125626971600,4.7999716796875,-0.04728022209107875,0.06903627295568585,-0.03780424547642469
1761469125636926700,4.8099267578125,-0.012274375161528586,0.06248831261694431,-0.040946927416324615
1761469125646882800,4.8198828125,0.030577509093284605,0.051880409362912175,-0.05272255927547812
1761469125656838700,4.829838623046875,0.043137130936980246,0.03858428993821144,-0.03146214644070715
1761469125666794800,4.839794677734375,-0.0024584990680217743,0.03389642438292503,0.010172544044069946
1761469125676749800,4.849749755859375,-0.029953239715099333,0.016064122833311555,0.03579685117676854
1761469125686705700,4.85970556640625,-0.06173311033546924,0.00595934679582715,0.06060925740469247
1761469125696661800,4.869661865234375,-0.07914718647301197,-0.018465046495199203,0.07240889119394123
1761469125706616600,4.879616455078125,-0.0745230338037014,0.010257190120220184,0.060661572113819416
1761469125716572700,4.88957275390625,-0.07670330045223235,0.013820143298804759,0.06617547669708729
1761469125726528800,4.89952880859375,-0.07489186711609364,0.02394128594920039,0.047851701836101705
1761469125736483600,4.909483642578125,-0.09473813883662223,0.03910188407152891,0.012848266059346497
1761469125746439700,4.919439697265625,-0.10113806900680064,0.03958747563138604,-0.020058453166484833
1761469125756395500,4.9293955078125,-0.10739537583589553,0.05026902864351868,-0.0206003414908424
1761469125766351600,4.9393515625,-0.0673252312541008,0.05871127829626202,-0.008580562144890428
1761469125776306700,4.949306640625,-0.03092237700819969,0.038315263738483187,-0.01322181207947433
1761469125786262800,4.9592626953125,0.03917816417813301,-0.001145516773313284,-0.0037329759832471607
1761469125796218600,4.969218505859375,0.0737035341143608,-0.028292466896027324,0.008643982769921421
1761469125806173700,4.979173583984375,0.0756996763676405,-0.030595921532809732,0.007929916216433047
1761469125816129800,4.9891298828125,0.06524316428303718,-0.03363777344673872,0.0023359321342781183
1761469125826086000,4.9990859375,0.03847206173539162,-0.02003726424798369,-0.0002949278259649873
1761469125836040700,5.009040771484375,-0.0019265841484069823,0.01604030356630683,-0.008572634566761553
1761469125845996500,5.01899658203125,-0.06291442907452582,0.046067485300451516,0.013221519818529487
1761469125855952600,5.02895263671875,-0.058333531025052066,0.06347030939161777,0.05155132353901863
1761469125865908700,5.03890869140625,-0.054393853488564486,0.06630246407762169,0.06250208541397005
1761469125875863800,5.04886376953125,0.010907178461551665,0.047620121569931506,0.05529840111285448
1761469125885819600,5.058819580078125,0.046692777591943735,-0.011937252161651849,0.022813852821849286
1761469125895775700,5.068775634765625,0.061014148411154746,-0.033530367549508805,-0.028341347539052365
1761469125905730800,5.078730712890625,0.12226444366574286,-0.012929624199867248,-0.04512750103659927
1761469125915686700,5.088686767578125,0.16237725834548472,-0.018433190052211283,-0.08904580894652754
1761469125925642800,5.098642822265625,0.17010931390225886,-0.018427052572369575,-0.1250406669134274
1761469125935597600,5.10859765625,0.14921674799919127,-0.00835530202165246,-0.15185955412555485
1761469125945553700,5.1185537109375,0.088901103246212,-0.003042874827235937,-0.16292108289860188
1761469125955509800,5.128509765625,-0.019859131202101706,0.009895224940031767,-0.1549875864855945
1761469125965465900,5.1384658203125,-0.13133739243745804,0.048113019653409715,-0.11602664525471627
1761469125975420700,5.148420654296875,-0.16828385204076765,0.06946750397980213,-0.10474402107689529
1761469125985376500,5.15837646484375,-0.20074936683773995,0.08289441017732024,-0.12505323413405567
1761469125995332600,5.16833251953125,-0.20808920820653437,0.06496537025496363,-0.14984109044261276
1761469126005287700,5.17828759765625,-0.2018184573739767,0.05649199481159448,-0.1445302706833929
1761469126015243800,5.188243896484375,-0.16931319508850573,0.06038111120462417,-0.09932564928997308
1761469126025199600,5.19819970703125,-0.10562076737880706,0.04679477666169405,-0.09696359633374958
1761469126035155700,5.20815576171875,-0.07373276020884513,0.011261983248591423,-0.10971490482464433
1761469126045110800,5.21811083984375,-0.05675882905423641,0.008260024953633547,-0.12252466550450772
1761469126055066600,5.228066650390625,-0.06576455780863762,0.01387611126974225,-0.09592756781689822
1761469126065022700,5.238022705078125,-0.049185178929567336,0.016350830820202826,-0.03733706635609269
1761469126074977500,5.2479775390625,0.014990063861012457,0.03305485899224877,0.001542261005938053
1761469126084933600,5.25793359375,0.05049450796246528,0.005360357989370823,0.0014940744826570152
1761469126094889700,5.2678896484375,0.084714172950387,-0.02802460974007845,0.013523388841934502
1761469126104844800,5.2778447265625,0.06417933444380759,-0.017138181805610657,0.032482612062245605
1761469126114800600,5.287800537109375,0.07671265280246733,-0.0030421441748738286,0.07421020499486476
1761469126124756500,5.297756591796875,0.10461597425043583,-0.005757102221995592,0.08969210749343037
1761469126134712600,5.307712646484375,0.09918225876390933,-0.03650426879376173,0.043724137044698
1761469126144667600,5.317667724609375,0.06693477063179015,-0.04173296322748065,0.019214293959923086
1761469126154623700,5.327623779296875,0.05890460891127586,0.014649725990742444,0.025729082681424913
1761469126164579600,5.33757958984375,0.05399813216924667,0.0473689232878387,0.005405950696766376
1761469126174535000,5.347534912109375,0.031142157238721845,0.03538096385225654,-0.027923852779343724
1761469126184490800,5.35749072265625,0.060706105375289914,0.049865416278690095,-0.05509568161498755
1761469126194446800,5.36744677734375,0.07385784789323806,0.048255642994493246,-0.06972491280697286
1761469126204401700,5.377401611328125,0.04187222556769848,0.04845832595974207,-0.047119332440942525
1761469126214357500,5.387357421875,0.013408932149410246,0.03238499690666795,-0.00673968351855874
1761469126224313900,5.39731396484375,0.04443827666342258,0.033262072002142665,0.009012998745404184
1761469126234269700,5.407269775390625,0.03074994305074215,0.03994885628968477,-0.0033340032609179616
1761469126244224800,5.417224853515625,0.0005669862329959869,0.03498290444537997,-0.008039514070749283
1761469126254180600,5.4271806640625,0.003713467565178871,0.02894099393263459,-0.010539441127702593
1761469126264136700,5.43713671875,0.026437925070524212,0.018106003924459216,-0.030665077778883276
1761469126274091800,5.447091796875,0.04430559019446373,0.007148118188977241,-0.06573427226822823
1761469126284047600,5.457047607421875,0.0329477453559637,0.019839988110214472,-0.09853851750027388
1761469126294003700,5.467003662109375,0.036712650847435,0.036314737571030854,-0.1288933968188241
1761469126303958500,5.47695849609375,0.03392974213063717,0.06821005126461387,-0.128347161112912
1761469126313915000,5.486914794921875,-0.011525602620840071,0.04864975687861442,-0.11701748292297125
1761469126323870700,5.49687060546875,-0.03283434810936451,0.05088394567146897,-0.06388495460711419
1761469126333826800,5.506826904296875,-0.05941781913042068,0.0277826176777482,-0.005625329068489372
1761469126343781600,5.51678173828125,-0.07725801172554493,0.004462093975394964,0.0037506212377920746
1761469126353737500,5.526737548828125,-0.10245265873670577,0.003945668885856866,0.013578662693127989
1761469126363693800,5.53669384765625,-0.12847440422177314,0.013142390167713165,0.05807126335967332
1761469126373648600,5.546648681640625,-0.10955635326206684,0.020311989536136388,0.028934418061375616
1761469126383604700,5.556604736328125,-0.0786357298195362,0.017457915279269216,-0.013565145624428987
1761469126393560600,5.566560546875,-0.01855798547565937,0.027116847245395183,-0.013198138942942023
1761469126403515600,5.576515625,0.03379413305222988,0.009857815539091826,-0.026077896119095383
1761469126413471700,5.5864716796875,0.024942133554816243,-0.0025640052691102027,-0.0363224459534511
1761469126423427600,5.596427490234375,-0.0433832146525383,0.0022191373541951176,-0.038758477461338044
1761469126433383700,5.6063837890625,-0.07180149988532065,0.021849428236484527,-0.014978921412490307
1761469126443338800,5.6163388671875,-0.07219839024841786,0.041081659711897374,0.0071843220135197035
1761469126453294800,5.626294921875,-0.052448564639687535,0.05235737922489643,0.00033471184708178044
1761469126463250700,5.636250732421875,-0.00789104551076889,0.04211392536908388,-0.050228550502657884
1761469126473205800,5.646205810546875,0.034836920103430744,0.0401481782540679,-0.08612221311740577
1761469126483161600,5.65616162109375,0.060654082927107805,0.028593641799688336,-0.08526519442927091
1761469126493117700,5.66611767578125,0.02959785040616989,0.000977758990973234,-0.07989573981799185
1761469126503073800,5.67607373046875,-0.007235211950540542,-0.01432443955913186,-0.04761179213300347
1761469126513028600,5.686028564453125,-0.02767769599854946,-0.012102087334543465,-0.011343414454348385
1761469126522984700,5.695984619140625,-0.015611410629749297,-0.020727000077813862,0.009855002527497709
1761469126532940500,5.7059404296875,-0.028689503389596936,-0.03697641635015607,0.032073921663500364
1761469126542895900,5.715895751953125,-0.02194996600151062,-0.052546910447627306,0.06522069672290236
1761469126552851700,5.725851806640625,-0.03480067974627018,-0.040400399449467654,0.09791468651350586
1761469126562807800,5.735807861328125,-0.03235270207226276,-0.033807723186165095,0.11567118288055062
1761469126572762600,5.7457626953125,-0.010972644913196564,-0.06555836771205067,0.07484989113789052
1761469126582718700,5.75571875,-0.015468202766776084,-0.046717473641783,0.05818710829168558
1761469126592674800,5.7656748046875,0.008761398604512215,-0.059435062526166434,0.027644999305345117
1761469126602630700,5.775630615234375,-0.00897767170369625,-0.05842457030937075,0.006306808526627719
1761469126612585700,5.785585693359375,-0.0407207174450159,-0.02463715925887227,0.010595555229112505
1761469126622541600,5.79554150390625,-0.017197218516469,0.018133184192329645,-0.0099609471200034
1761469126632497700,5.80549755859375,-0.028472645768523215,0.01732420589700341,-0.035094767322018744
1761469126642452700,5.81545263671875,0.0008253449082374572,0.033115210877358914,-0.049772440765611825
1761469126652408600,5.82540869140625,0.0305079509884119,0.05467588530033826,-0.07025624320469796
1761469126662364700,5.83536474609375,0.008648001357913018,0.04018851026445627,-0.08496453098226338
1761469126672320500,5.845320556640625,-0.04749357258081436,0.03328004605025053,-0.0806271958976984
1761469126682275800,5.85527587890625,-0.07783201222121715,0.06692775636911392,-0.06662172262724489
1761469126692231700,5.865231689453125,-0.0905962167263031,0.07320917472615837,-0.07634791114330292
1761469126702187800,5.875187744140625,-0.06819441530406474,0.0772848997324705,-0.0881929549768567
1761469126712142600,5.885142578125,-0.0557528668820858,0.07577171869054436,-0.06031568128559738
1761469126722098700,5.8950986328125,0.008567337337136268,0.05838832995221018,-0.058940337811782956
1761469126732054800,5.9050546875,0.03703589145243168,0.06267433670833707,-0.06224149824902415
1761469126742009600,5.915009521484375,0.06371405501961708,0.04848901335895061,-0.050813108924962574
1761469126751965700,5.924965576171875,0.10156126285493373,0.05488455961495638,-0.05499079646840691
1761469126761921500,5.934921630859375,0.08391045535206794,0.021779285609722136,-0.07267093966361135
1761469126771878000,5.9448779296875,0.01760463027358055,0.02690466579943895,-0.02463920508548617
1761469126781832700,5.954832763671875,-0.0033119010269641873,0.057146367067098615,0.018111739545501767
1761469126791788500,5.96478857421875,-0.03892915785312653,0.05414937720820307,-0.006453085129521786
1761469126801744600,5.97474462890625,-0.07984218299984931,0.044780806490778924,0.010202025866881013
1761469126811699700,5.98469970703125,-0.05195815077424049,0.05522811235561967,0.04531608241125941
1761469126821655800,5.99465576171875,-0.0269657483369112,0.037521336881816386,0.07794190233647823
1761469126831611600,6.004611572265625,-0.005233809000253677,0.008323591709136963,0.0804395278384909
1761469126841566700,6.014566650390625,0.002364975565671921,-0.013455986161530016,0.07518204570170492
1761469126851522600,6.0245224609375,0.016729601004719732,-0.024746172591298816,0.08797090972401202
1761469126861479000,6.03447900390625,0.005723638343811035,-0.031150048284232616,0.10884071580599992
1761469126871434800,6.044434814453125,0.020175357544422148,-0.016557313177734612,0.0989261651109904
1761469126881389600,6.0543896484375,0.0878472102791071,0.010118658432364463,0.12452774895522743
1761469126891345700,6.064345703125,0.15494798512756824,-0.023661299964040518,0.10715941165555268
1761469126901301500,6.074301513671875,0.19251228436827658,-0.05287146622687578,0.06486907027363777
1761469126911256800,6.0842568359375,0.13097908051908017,-0.05380962385982275,0.042290377914533016
1761469126921212700,6.094212646484375,0.06186696584820747,-0.03710471890494227,0.005778546868823469
1761469126931168800,6.104168701171875,0.03502396710813045,-0.02891352140381932,-0.008560615335404873
1761469126941124600,6.11412451171875,-0.028178046736121176,-0.015670593471080064,-0.0240574596747756
1761469126951079700,6.12407958984375,-0.03906476693153381,-0.011395692630857228,-0.056675973076373336
1761469126961035800,6.134035888671875,-0.030753450182080266,-0.0016837153032422064,-0.07104757624547928
1761469126970991600,6.14399169921875,-0.029122634109854696,0.012864742270112037,-0.07458842719011008
1761469126980946700,6.15394677734375,-0.08305588434934616,0.020722762294113635,-0.10411719441544263
1761469126990902800,6.16390283203125,-0.10731003564000129,0.013534896616637706,-0.057509318627975876
1761469127000859000,6.17385888671875,-0.13057926754653454,0.039935850677639245,-0.06156648506429046
1761469127010813700,6.183813720703125,-0.17851356963217258,0.021812603357434273,-0.04604202206563204
1761469127020769500,6.19376953125,-0.20156652843952177,0.018651801238954067,0.0014685016499832273
1761469127030725600,6.2037255859375,-0.12227788766920566,0.04449731337428093,-0.022990451497770844
1761469127040681700,6.213681640625,-0.13775368922054768,0.04062792459502816,-0.04444865192696452
1761469127050636800,6.22363671875,-0.07781389204263686,-0.0047777357958257195,-0.09449614677429198
1761469127060592600,6.233592529296875,0.01709317362010479,-0.008079699950665235,-0.052294031665101645
1761469127070548700,6.243548828125,0.07416530640721321,-0.020243892735987902,-0.05862517091538757
1761469127080503800,6.25350390625,0.12308102074563503,-0.051813627737015484,-0.10074245728533715
1761469127090459600,6.263459716796875,0.1344493869781494,-0.047993923318386075,-0.07360032946821302
1761469127100415700,6.273415771484375,0.1358130765467882,-0.021006693802028895,-0.03936327495407313
1761469127110371600,6.28337158203125,0.0698129564166069,-0.01834843437820673,-0.04794668664317578
1761469127120326700,6.29332666015625,0.009067103552818298,0.010085194554179906,-0.056532399887219066
1761469127130282800,6.30328271484375,-0.0457446830868721,0.029071050053089856,-0.051252048331499094
1761469127140238800,6.31323876953125,-0.05835691190063953,0.03916895795837044,-0.08552519707232713
1761469127150193700,6.323193603515625,-0.04354220460653305,0.042813890331983566,-0.09416077734008431
1761469127160149500,6.3331494140625,-0.05835457381308078,0.0398072558619082,-0.07978011408168822
1761469127170104800,6.343104736328125,-0.07293196521997451,0.039536768357455725,-0.06545238658692687
1761469127180059600,6.3530595703125,-0.07719020718634129,0.028862521868944165,-0.02169230144601315
1761469127190015700,6.363015625,-0.08386369360089302,0.006639145753532648,0.017584829594567416
1761469127199971600,6.3729716796875,-0.09779927997291088,0.011039134278148411,0.023440606418065724
1761469127209927700,6.382927734375,-0.09292787454426288,0.008168401147425175,0.02401066139098257
1761469127219882800,6.3928828125,-0.04368658151328563,0.02366334579065442,0.013067790561541915
1761469127229838800,6.4028388671875,0.013022563180327415,0.017119330974668265,0.02139909065309912
1761469127239794700,6.412794677734375,0.05454524465799331,0.011846505138278007,-0.016627346206642687
1761469127249749800,6.422749755859375,0.0546200634598732,0.00854629454910755,-0.016031827998906373
1761469127259705900,6.432705810546875,0.047210079464316365,0.007146218492835759,0.010253829119354485
1761469127269661700,6.44266162109375,0.04070084370076656,0.02598565125837922,0.022770086745359002
1761469127279617800,6.45261767578125,0.009337737187743186,0.0099177290327847,0.010425970815867184
1761469127289572600,6.462572509765625,-0.013179799568653106,0.017582856833189726,-0.001256941258534789
1761469127299529000,6.472529052734375,-0.01973871969282627,0.012092296592891216,-0.019744089987687764
1761469127309484800,6.48248486328125,0.018850830942392347,0.014016250392794609,-0.040023894287273286
1761469127319439600,6.492439697265625,0.028604747715592384,0.020780483830720186,-0.061422400418482716
1761469127329395700,6.502395751953125,0.027701076874136924,0.019648118799924848,-0.059697585919871926
1761469127339351600,6.5123515625,-0.011482348001003265,0.011748159330338239,-0.03571750233024359
1761469127349307600,6.5223076171875,-0.0019786065965890884,0.03521539802700281,-0.025502872710116205
1761469127359262700,6.5322626953125,0.006849427503347397,0.02876972901895642,-0.03410718105677515
1761469127369218800,6.54221875,0.028887071788311004,-0.007165361584722995,-0.061807308082841336
1761469127379174700,6.552174560546875,0.0387993939936161,-0.011654928088933229,-0.09624152913689613
1761469127389129700,6.562129638671875,0.060164838105440134,0.008480681966990231,-0.10748517301119863
1761469127399085800,6.5720859375,0.12917933762073516,-0.0038338790744543074,-0.11476546621248125
1761469127409041700,6.582041748046875,0.09588029460906981,-0.010592267293483018,-0.11684592574834823
1761469127418996700,6.591996826171875,-0.025374095231294632,-0.016588731229305265,-0.08462236648108809
1761469127428952600,6.60195263671875,-0.10418576613962649,0.015306144072860479,-0.033726584241352976
1761469127438909000,6.611908935546875,-0.14255612106621265,0.026539924140274524,0.014665508081763982
1761469127448864800,6.62186474609375,-0.17666180428564549,0.008179068671911954,0.016429193286038934
1761469127458819600,6.631819580078125,-0.1594984880387783,0.00989201006963849,-0.010245791943371295
1761469127468775700,6.641775634765625,-0.11088964769244193,0.018202303905785082,-0.060640492793172594
1761469127478731500,6.6517314453125,-0.04976794725358486,0.020749358040094375,-0.0777208799969405
1761469127488686800,6.661686767578125,0.0025765724897384643,0.03624985564127564,-0.09177991008553653
1761469127498642700,6.671642578125,0.011281856992840766,0.020522271285951136,-0.10301953537184745
1761469127508598800,6.681598876953125,0.014940964022278784,0.016530279040336607,-0.07149612373057752
1761469127518554600,6.6915546875,0.01567278542816639,0.008439327043294906,-0.03603796645626425
1761469127528509700,6.701509765625,0.039060675278306006,0.017637509629875422,-0.015509192364290356
1761469127538465800,6.7114658203125,0.023372692281007766,0.0020319442190229894,0.008089782953262329
1761469127548421600,6.721421630859375,-0.015581015491485595,0.01145531386360526,0.012409765044227241
1761469127558376700,6.731376708984375,-0.024943302598595618,0.054755234146863216,0.06425130370147526
1761469127568332800,6.741332763671875,-0.009435352343320847,0.07475333542823791,0.09780545398537069
1761469127578289000,6.751288818359375,0.01128653316795826,0.04026669006720185,0.11031210353281348
1761469127588243700,6.76124365234375,0.0789016872793436,0.022020839280635116,0.08344418954718857
1761469127598199800,6.77119970703125,0.128763742557168,-0.002624649415165186,0.06997369993627071
1761469127608155600,6.78115576171875,0.08429390171170234,-0.03317980054616928,0.06586158844232559
1761469127618111700,6.79111181640625,0.04206102613806724,-0.04315919663831591,0.10038600853048264
1761469127628066800,6.80106689453125,0.016306407156586645,-0.01872588938847184,0.11424432841520755
1761469127638022700,6.811022705078125,0.03142681939899921,0.0011287117689847946,0.07877185035459697
1761469127647978800,6.820978759765625,0.04790332242548465,0.022021423802524805,0.001155745906382799
1761469127657933800,6.830933837890625,0.052069209933280944,0.04756693007797003,-0.030661935973726212
1761469127667890000,6.840889892578125,0.06171966633200645,0.04343684453591704,-0.03726586428340524
1761469127677845800,6.850845703125,0.032413492348790165,0.04055690518543124,-0.03734839146770537
1761469127687801900,6.8608017578125,-0.03268880215883255,0.02309972055852413,-0.024452779135294256
1761469127697756700,6.870756591796875,-0.08002046217620372,0.02191357951387763,0.02439136780425906
1761469127707712800,6.880712646484375,-0.11155074194967746,0.029136662635207176,0.06410575775094329
1761469127717668900,6.8906689453125,-0.17641747413575648,0.014306319380551576,0.05710837314426899
1761469127727623700,6.900623779296875,-0.16115268498659133,0.017569558960199357,0.05104457959327847
1761469127737579800,6.910579833984375,-0.13014789039194583,0.019479191973805425,0.02996010784730315
1761469127747535600,6.92053564453125,-0.10078852491676807,0.008095774302631616,0.0032157837087288497
1761469127757491700,6.93049169921875,-0.1098673189073801,0.020041209770739078,-0.03803834649324417
1761469127767446800,6.94044677734375,-0.1120370641618967,0.011614596078544854,-0.03233344938252121
1761469127777402600,6.950402587890625,-0.0656213499456644,0.02759060223698616,-0.027993593547306954
1761469127787358700,6.960358642578125,-0.027942484414577484,0.02328252977952361,-0.0008975333616137504
1761469127797313800,6.970313720703125,0.058811085408926,-0.00665887336730957,0.007605031643621623
1761469127807270000,6.980269775390625,0.1179319674193859,-0.02899243185892701,-0.005344868159294128
1761469127817225700,6.990225830078125,0.10957271987497806,-0.06525602376461029,0.008283077035658061
1761469127827181800,7.000181884765625,0.08872516215741634,-0.06581979512721299,0.008357567043974995
1761469127837136600,7.01013671875,0.034171734192967415,-0.03248334271460771,0.01809836860727519
1761469127847092700,7.0200927734375,-0.017194880428910254,-0.014248305583000182,0.03557655948959291
1761469127857048800,7.030048828125,-0.06223989081382751,0.017662205679714677,0.008797565896436571
1761469127867003600,7.040003662109375,-0.08553191907405852,0.04007379784360528,-0.00935180224571377
1761469127876959700,7.049959716796875,-0.03296586553454399,0.06007511399537325,-0.029281514465995133
1761469127886915600,7.05991552734375,0.011171966877579688,0.05551116708070039,-0.05985343406870961
1761469127896871000,7.069870849609375,0.0327256270378828,0.021363982807099818,-0.06273096226640046
1761469127906826800,7.07982666015625,0.04290858287811279,0.019781682051718232,-0.05426120355222374
1761469127916782600,7.089782470703125,0.041081367450952526,0.010861293493211268,-0.06346285673752426
1761469127926738700,7.09973876953125,0.049861470755934716,0.0206644562356174,-0.029301643938571213
1761469127936693800,7.10969384765625,0.002716273221373558,0.0201338564902544,-0.04967263365294784
1761469127946649900,7.11964990234375,0.039300913774967194,0.0159881349876523,-0.05139668096657842
1761469127956605700,7.129605712890625,0.04476560892164707,0.03786532801389694,-0.06601882483065127
1761469127966560800,7.139560791015625,0.05734919616281986,0.031608897967636586,-0.0901237038437277
1761469127976516600,7.1495166015625,0.040166006171703336,0.030000732118636367,-0.09904215617347509
1761469127986473000,7.159472900390625,0.0660837067604065,0.029980127722024914,-0.14344773614369333
1761469127996428800,7.1694287109375,0.04254384121894836,0.03444660561159253,-0.16153357406295835
1761469128006383600,7.179383544921875,-0.05800210711359977,0.01993950296193361,-0.14852441835347563
1761469128016339700,7.189339599609375,-0.10115385109782218,0.03553863863199949,-0.13115728663019835
1761469128026295600,7.199295654296875,-0.15707038410902022,0.06381985348165035,-0.10157331861890852
1761469128036251000,7.2092509765625,-0.14927987636327741,0.07529810982942581,-0.08907905362900347
1761469128046206700,7.219206787109375,-0.11121697995066641,0.04170081452354789,-0.09768858614005148
1761469128056162800,7.229162841796875,-0.08893675908148288,0.03420417515784502,-0.12278828487675636
1761469128066118700,7.23911865234375,-0.04603811307549476,0.035224458116292955,-0.12269845116883515
1761469128076073700,7.24907373046875,-0.010759878945350645,0.011513327661156654,-0.15184472188260406
1761469128086029800,7.25902978515625,-0.04884440266788006,-0.005267272878438234,-0.16613021767083555
1761469128095985700,7.268985595703125,-0.09816226806640624,-0.01404649940058589,-0.13284337655361741
1761469128105940700,7.278940673828125,-0.06952887877821921,0.02089519625157118,-0.08492189741693437
1761469128115896600,7.288896484375,-0.02104629516005516,0.053375470226258034,-0.08348470422066748
1761469128125853000,7.29885302734375,-0.022886370068788527,0.05662117414921522,-0.12921225350964813
1761469128135808800,7.308808837890625,-0.02257774251103401,0.03395750692039728,-0.14811083258390426
1761469128145763600,7.318763671875,-0.012090250766277313,0.03646992813274264,-0.11113996919170022
1761469128155719700,7.3287197265625,-0.024837504136562345,0.03213657510355115,-0.010784063538536429
1761469128165675500,7.338675537109375,-0.021598083823919294,0.008001227886974811,0.054710993146337566
1761469128175631400,7.34863134765625,-0.023604162949323652,-0.013405132757127285,0.09099632195979357
1761469128185587200,7.358587158203125,0.01433773743212223,-0.015075550187379121,0.111659755282104
1761469128195543300,7.368543212890625,0.07610708812475205,-0.03771685945391655,0.10712463260311633
1761469128205499100,7.3784990234375,0.059062429821491236,-0.0203059981867671,0.09933631681445985
1761469128215454500,7.388454345703125,0.0388864877551794,0.030825054113566872,0.07151789717096835
1761469128225410300,7.398410400390625,0.021110592567920684,0.030303806718438863,0.06607402561660855
1761469128235366400,7.408366455078125,0.029020342779159543,0.04793313304185867,0.07540368909575045
1761469128245321200,7.4183212890625,0.07396773800849914,0.07033917224779725,0.08634973826296627
1761469128255277000,7.428277099609375,0.12342705770432949,0.04246200815439224,0.06587287702132016
1761469128265233200,7.438233154296875,0.1359270583152771,0.009021218584477901,0.052518634201213714
1761469128275188200,7.448188232421875,0.12890402781069277,-0.017241057658195495,0.037429201618954536
1761469128285144300,7.458144287109375,0.14519114574491976,-0.005103460618853569,0.05487568218875676
1761469128295100200,7.46810009765625,0.1444271756350994,0.0070784139536321155,0.04844225160777568
1761469128305056300,7.47805615234375,0.07835866644382476,0.004462093975394964,0.03838566209357232
1761469128315011300,7.48801123046875,0.04463818314969539,0.023523645059019327,0.038138591997325416
1761469128324967200,7.49796728515625,-0.029561025527119634,0.027093027978390454,0.04859649232141673
1761469128334923300,7.50792333984375,-0.11189853247404098,0.02735372474119067,0.05906027439702302
1761469128344878000,7.517878173828125,-0.181588154771924,0.06631137803643941,0.10103427983876317
1761469128354834400,7.52783447265625,-0.15189794990718364,0.06599719752073288,0.11589414144884794
1761469128364790300,7.537790283203125,-0.11115969680547713,0.04680822066515684,0.10501538536418228
1761469128374746400,7.547746337890625,-0.13359189336597918,0.03695698099732399,0.03868939428050071
1761469128384701200,7.557701171875,-0.14973112726211546,0.035337709232419724,0.05071947582475841
1761469128394657000,7.567656982421875,-0.1321796884804964,0.057807899715751405,0.08504066495839506
1761469128404613400,7.57761328125,-0.12615677492916583,0.07191665069758892,0.06824103092476726
1761469128414568200,7.587568115234375,-0.14045651843845844,0.05595131206363439,0.035687180257216095
1761469128424524300,7.597524169921875,-0.06697568716406822,0.037108664427697655,0.014681618966348469
1761469128434480000,7.607480224609375,-0.006413958695530891,0.046898675427585836,0.026321824410185216
1761469128444436200,7.617436279296875,0.05690905117988586,0.05582344790026545,0.01077449199259281
1761469128454391300,7.627391357421875,0.1728659191340208,0.04446238819137215,0.006495207238197327
1761469128464347100,7.63734716796875,0.219729377117753,0.012553045972436666,-0.008163432711362838
1761469128474303200,7.64730322265625,0.13633914624750612,0.0025815409258008,-0.007041735205054283
1761469128484258000,7.657258056640625,0.05370294861495495,0.011309037260711193,-0.019263905255310236
1761469128494214400,7.66721435546875,-0.017954758885502815,0.042255525796860455,-0.03392824429329484
1761469128504170200,7.677170166015625,-0.07783610387444495,0.07315481419041753,-0.06124477882925421
1761469128514126300,7.687126220703125,-0.0005576338827610015,0.0949377530619502,-0.06377886388413607
1761469128524081200,7.6970810546875,0.059300914752483364,0.0877453573398292,-0.08554211167450994
1761469128534037200,7.707037353515625,0.017436287969350813,0.04531052945330739,-0.09336053034048528
1761469128543993300,7.716993408203125,-0.017708675169944763,0.02733779651969671,-0.06986413861457258
1761469128553948200,7.7269482421875,-0.00550035098195076,0.03607376842200756,-0.03244370482396334
1761469128563904300,7.736904296875,0.0019295067578554152,0.013853314916044473,-0.023387268795631824
1761469128573860000,7.746860107421875,0.01734276446700096,-0.0007119476616382598,-0.052682409928180275
1761469128583816200,7.756816162109375,0.03345686392188072,0.01080021095573902,-0.06837528829630464
1761469128593771300,7.766771240234375,-0.00955284124314785,0.00799129101485014,-0.062890573274903
1761469128603727400,7.776727294921875,-0.05211246455311775,0.025005261918902396,-0.02352057631909847
1761469128613683200,7.78668310546875,-0.03299509162902832,0.057806146150082345,0.04176226238720119
1761469128623638300,7.79663818359375,-0.053126025509834286,0.01006517467945814,0.08588292446881532
1761469128633594400,7.806594482421875,-0.09250117356479168,-0.009533844281733036,0.06276899272184819
1761469128643550200,7.81655029296875,-0.08592647134959697,0.013599778546392917,0.06329911754317581
1761469128653506300,7.82650634765625,-0.06481587878167629,0.014702332960814237,0.006180953657254577
1761469128663461000,7.836461181640625,-0.08535422441959381,0.025299130298942325,-0.09720434628706424
1761469128673417200,7.846417236328125,-0.09034078066051006,0.06906403774544596,-0.1001663013651967
1761469128683373300,7.856373291015625,-0.11040741713345051,0.0696219638891518,-0.11190280679035931
1761469128693328100,7.866328125,-0.11135025094151496,0.08504267425239086,-0.09213971984125673
1761469128703284200,7.8762841796875,-0.10693886424005031,0.06642156041264534,-0.07028700366914271
1761469128713240000,7.886239990234375,-0.0463023169696331,0.0764693455658853,0.007596811804547905
1761469128723196200,7.896196044921875,0.06747603790163993,0.023239421290159223,0.06439827442411333
1761469128733151200,7.906151123046875,0.0872802240461111,-0.04193959171548486,0.015468641158193349
1761469128743107300,7.916107421875,0.060869771504402155,-0.10227101855948567,-0.07045059673301875
1761469128753063200,7.926063232421875,0.08238602226376533,-0.04783507949486374,-0.1223598668642342
1761469128763018200,7.936018310546875,0.08470715868771075,0.049654988398402926,-0.04133680351674557
1761469128772974300,7.945974365234375,0.1213917524844408,-0.04058744645416736,-0.03194211197737604
1761469128782930200,7.95593017578125,0.08790098629295826,-0.05985884089618921,0.04928133278042078
1761469128792886300,7.96588623046875,0.05963350770771503,-0.0780415633186698,0.11898326657060533
1761469128802841000,7.975841064453125,0.018908114087581633,-0.0821292710237205,0.12390366224013268
1761469128812797200,7.985797119140625,-0.08161971406638621,-0.04704261394292116,0.14329671030044555
1761469128825863200,7.99886328125,-0.22265490917563438,-0.01085427923053503,0.07236081426851451
1761469128835818200,8.008818359375,-0.4144020543903112,0.030292554672062395,0.021878398602642117
1761469128845774000,8.018774169921874,-0.38940848290920255,0.11460559947565198,0.02276122758546844
1761469128855730200,8.028730224609374,-0.30238544849455357,0.16595730878934264,-0.03173009492820129
1761469128865686300,8.038686279296876,-0.15371756654977797,0.1382569625675678,-0.011373973989393561
1761469128875641300,8.048641357421875,0.04280219989418983,0.057564154087752104,-0.06503710205061361
1761469128885597200,8.05859716796875,0.18194997382164,-0.010328355660289525,-0.15674434875873847
1761469128895553300,8.06855322265625,0.23245734126567838,-0.0005175941333174705,-0.1817975780052133
1761469128905508400,8.07850830078125,0.09790098678171634,-0.05703107012435794,-0.250576314269565
1761469128915464200,8.088464111328125,0.03564648292064666,-0.0027656653210520743,-0.16175156419519335
1761469128925420300,8.098420166015625,-0.05516542238295078,0.06267126796841621,-0.0304954385667108
1761469128935376100,8.108376220703125,-0.14830664741694927,0.024746026460826395,0.003317326120752841
1761469128945331500,8.11833154296875,-0.16449205854237078,0.03759542503133416,-0.01392869997350499
1761469128955287300,8.128287353515624,-0.04458732974529266,0.02935278960391879,0.03178862931556068
1761469128965243400,8.138243408203126,0.042107203367352485,-0.014312310729920863,0.05321583181829191
1761469128975198200,8.1481982421875,0.08143851228058338,-0.00995864556506276,0.015557040960853918
1761469128985154000,8.158154052734375,0.1811392419606447,0.0194411980509758,0.0376137370061595
1761469128995110400,8.1681103515625,0.241259071880579,-0.0066100657895207405,-0.023372244756435973
1761469129005066200,8.178066162109374,0.23347557839751243,0.014687719913572072,-0.033759755858592685
1761469129015021300,8.188021240234375,0.2346405305236578,0.02438523032441735,-0.040432548153400416
1761469129024977200,8.19797705078125,0.16637538807094096,0.004328238462656736,-0.05721860118624754
1761469129034933200,8.207933349609375,0.02031564279794693,0.009538958848267793,-0.045961202781228346
1761469129044888300,8.217888427734374,-0.05773556513190269,0.03567264027521014,-0.014470213838526978
1761469129054844200,8.22784423828125,-0.08209376131892204,0.028520576563477514,0.03507744172788225
1761469129064800300,8.23780029296875,-0.14342296702861784,0.012834347131848334,0.0343848015549127
1761469129074756000,8.247756103515625,-0.2383399695634842,0.01254895431920886,-0.02538626059312373
1761469129084711400,8.25771142578125,-0.1992693574130535,0.049990942354500294,0.03551322106295265
1761469129094667300,8.267667236328125,-0.05188859266936779,0.013001082000881433,0.1173938784873113
1761469129104623400,8.277623291015624,-0.06629588820636272,-0.06776435332372784,-0.0032605544322170314
1761469129114578200,8.287578125,-0.0486854127138853,-0.0694524525411427,0.050272828035801645
1761469129124534000,8.297533935546875,0.029891280394792556,-0.06050868310704827,0.15585101664820686
1761469129135113200,8.30811328125,-0.025145547172427177,-0.11708821007162332,0.06268664363406133
1761469129145069000,8.318069091796875,-0.1002168625086546,-0.05639876357018947,0.023707335629430597
1761469129155024400,8.3280244140625,0.005167758026719093,0.015337269863486288,0.037026776564214374
1761469129164980200,8.337980224609375,0.03544949904382229,-0.03943286959156394,0.049644403072306886
1761469129174936800,8.347936767578124,0.020032149681448935,-0.03816197287291288,0.008378858710464555
1761469129184891600,8.3578916015625,0.05181903456449508,-0.04126739154234528,-0.034263225568435154
1761469129194847500,8.367847412109375,0.10121697946190833,-0.056533934257179494,-0.05247004581913352
1761469129204803600,8.377803466796875,0.16149287672638893,-0.013585603890568017,0.01455756561170565
1761469129214759700,8.387759765625,0.2791571331202984,0.020551497380435466,0.0536840795177035
1761469129224714800,8.39771484375,0.3864350200563669,0.028893501529097556,0.010081847253045999
1761469129234670600,8.407670654296876,0.48404374589323995,0.00782894005998969,0.03050022662297124
1761469129244626700,8.417626708984375,0.5700058730781078,0.007571750428527593,0.016968942168948706
1761469129254581800,8.427581787109375,0.5094049816429614,0.0062644672222435475,0.0063425168775371275
1761469129264537600,8.43753759765625,0.3475783429175615,0.02410012977272272,-0.004436190065869596
1761469129274493700,8.44749365234375,0.13061609242558478,0.04810688217356801,0.0671349328463897
1761469129284449500,8.457449462890626,0.014044891965389251,0.11249459867104887,0.09511860778788105
1761469129294404900,8.46740478515625,-0.03830898012816906,0.114131844484061,0.10727698275377041
1761469129304360700,8.477360595703125,0.04332476246356964,0.14229820078238845,0.11297695709420368
1761469129314316800,8.48731689453125,0.13912439305186272,0.12374328404664993,0.0808948521242477
1761469129324271600,8.497271728515624,0.06593348463475704,0.045534839728474615,0.010667282458185217
1761469129334227700,8.507227783203126,-0.03982464538812637,0.06775105545073747,0.008957907557301224
1761469129344183800,8.517183837890625,-0.12779051361083985,0.13688655099719763,0.002116444164700806
1761469129354140000,8.527139892578125,-0.25530454836785793,0.1434558463849127,0.005736479559075087
1761469129364094700,8.5370947265625,-0.3407680783808231,0.13010872742533683,-0.006481333976471796
1761469129374050600,8.547050537109374,-0.3755822021305561,0.0989005192130804,-0.01844129116027616
1761469129384006700,8.557006591796876,-0.40273207486271856,0.02703954422548413,-0.011371179244108498
1761469129393961700,8.566961669921875,-0.3378811247676611,-0.040785307113826275,0.006429485058225691
1761469129403917800,8.576917724609375,-0.24701602797210215,-0.0495360381938517,0.03585428958558477
1761469129413873700,8.586873779296875,-0.25023908167183395,-0.07054784656241536,-0.001165089123463258
1761469129423829800,8.596829833984375,-0.354420171636343,-0.11199439406394958,-0.007793704349827021
1761469129433784800,8.606784912109376,-0.391927187731862,-0.10650164186656474,-0.03792060186509043
1761469129443740700,8.61674072265625,-0.3186480165094137,-0.056920887748152016,0.019815840049646795
1761469129453696800,8.62669677734375,-0.24673019676804542,-0.07564312387481331,0.011989361374801956
1761469129463652600,8.636652587890625,-0.1857984659433365,-0.0776966954037547,-0.0036770856441231442
1761469129473607700,8.646607666015624,-0.19370470902323722,-0.1221586452037096,-0.09940289751095696
1761469129483563800,8.656563720703126,-0.1371592304587364,-0.10848930855244397,-0.10329774039187468
1761469129493520000,8.666519775390626,-0.036574119159579276,-0.048522184976190326,-0.06797712842472829
1761469129503474700,8.676474609375,-0.02127718130648136,-0.07347834705635904,-0.08688346154717728
1761469129513430500,8.686430419921875,-0.009777882170677184,-0.05168707874789834,-0.10252260043406858
1761469129523386600,8.69638671875,0.028088614886999128,-0.021754297298938036,-0.06691813002424314
1761469129533342700,8.7063427734375,0.04631576097309589,-0.023766952295601367,-0.0238223814104218
1761469129543297800,8.7162978515625,0.06578033989965916,-0.00377820336446166,-0.006070426504465285
1761469129553253600,8.726253662109375,0.18742986653745172,0.019491613063961265,0.018328622282750437
1761469129563209700,8.736209716796875,0.2718184607952833,-0.015120266111940145,0.0055847419005964185
1761469129573164800,8.746164794921874,0.23965865094661712,-0.045969139492511746,-0.013909308003156911
1761469129583120600,8.75612060546875,0.16704291206896305,0.004499649506807327,0.04784460080845747
1761469129593076700,8.76607666015625,0.12527823852896688,0.04678396300673485,0.14353335946737789
1761469129603032600,8.776032470703125,0.061895607420802114,0.055740299661457535,0.0985849321915768
1761469129612987600,8.785987548828125,0.04975859490334987,0.10355769736915826,0.09793118099058046
1761469129622943700,8.79594384765625,0.10242927786111831,0.09464256950765848,0.04364634996759705
1761469129632899800,8.80589990234375,0.07366320210397242,0.03666910396665334,-0.06321353075210936
1761469129642855700,8.815855712890626,-0.05317278726100921,0.058321694456785915,-0.08771292550810612
1761469129652810500,8.825810546875,-0.11517653123140334,0.10676438445597887,-0.036721172080608086
1761469129662766600,8.8357666015625,-0.14859949288368224,0.13800386458933353,-0.038722273636795576
1761469129672722700,8.84572265625,-0.16052373943328857,0.13932371501624582,-0.0603944638765417
1761469129682677800,8.855677734375,-0.09229191472828388,0.11348624005690217,-0.08683686419278383
1761469129692633600,8.865633544921875,0.015937573844194412,0.04636763729080558,-0.12484898026622832
1761469129702589700,8.875589599609375,0.13565876276791095,-0.004613046753406525,-0.07180972885754891
1761469129712545500,8.885545654296875,0.19917115773558616,-0.04334522072970867,-0.04830308059910312
1761469129722500900,8.8955009765625,0.16891630472540856,-0.039805648426711554,-0.06181893915513064
1761469129732456700,8.905456787109374,0.13001228131353854,-0.05705620456561446,-0.09561305850762873
1761469129742412800,8.915412841796876,0.11474573859870434,-0.08213029393702745,-0.11950698905060998
1761469129752367600,8.92536767578125,0.11791676985025405,-0.07906053110286593,-0.09576351809529587
1761469129762323700,8.93532373046875,0.11064648658633232,-0.1340450439609587,-0.11422494786130263
1761469129772279800,8.94527978515625,0.10840309157371521,-0.1698212907411158,-0.09174643707419745
1761469129782235600,8.955235595703124,0.03204758164584637,-0.2080307560175657,-0.10432304658531211
1761469129792190700,8.965190673828126,-0.0760831227272749,-0.21453619238883256,-0.06512312723309732
1761469129802146600,8.975146484375,-0.13529285206496713,-0.15119126294255256,0.00010022952106082812
1761469129812103000,8.98510302734375,-0.2749520826458931,-0.049001785186678165,0.04852286082962528
1761469129822058800,8.995058837890625,-0.42175475524067874,0.003294073109328747,0.050420940402755514
