time,seconds_elapsed,z,y,x
1761469120886821600,0.059821533203125,-0.11085149645805359,0.12800250947475433,0.5035627484321594
1761469120896777500,0.069777587890625,-0.1362987905740738,0.16203583776950836,0.6173396110534668
1761469120906732500,0.079732666015625,-0.1770353466272354,0.17377877235412598,0.6679844856262207
1761469120916688400,0.0896884765625,-0.221389502286911,0.19145390391349792,0.6295729279518127
1761469120926644200,0.099644287109375,-0.27372458577156067,0.20459839701652527,0.506896436214447
1761469120936599600,0.109599609375,-0.3341516852378845,0.20662932097911835,0.3338002562522888
1761469120946555400,0.119555419921875,-0.38859960436820984,0.20095869898796082,0.14997082948684692
1761469120956511500,0.129511474609375,-0.427548348903656,0.17474520206451416,-0.002130568027496338
1761469120966466300,0.13946630859375,-0.4504002332687378,0.1495031863451004,-0.10900911688804626
1761469120976422700,0.149422607421875,-0.4470081627368927,0.14846082031726837,-0.16229523718357086
1761469120986378500,0.15937841796875,-0.426567405462265,0.1638256460428238,-0.16378983855247498
1761469120996333300,0.169333251953125,-0.37893596291542053,0.21314765512943268,-0.12050095200538635
1761469121006289400,0.179289306640625,-0.32154297828674316,0.29369574785232544,-0.03704307600855827
1761469121016245200,0.189245361328125,-0.2719637155532837,0.3836229741573334,0.09677224606275558
1761469121026200600,0.19920068359375,-0.2470589578151703,0.4196980893611908,0.265121191740036
1761469121036156400,0.209156494140625,-0.2016105204820633,0.3258211314678192,0.4160337448120117
1761469121046112500,0.219112548828125,-0.17052774131298065,0.2653775215148926,0.548628568649292
1761469121056067600,0.229067626953125,-0.14339731633663177,0.21590346097946167,0.6297969222068787
1761469121066023400,0.2390234375,-0.1346418857574463,0.20257088541984558,0.6506385803222656
1761469121075979500,0.2489794921875,-0.13427142798900604,0.2213251292705536,0.6114153265953064
1761469121085934300,0.258934326171875,-0.13421285152435303,0.25744789838790894,0.5187031030654907
1761469121095890400,0.268890380859375,-0.12589846551418304,0.2835457921028137,0.38658663630485535
1761469121105846500,0.278846435546875,-0.1164909303188324,0.2886955440044403,0.2444874793291092
1761469121115801300,0.28880126953125,-0.10234315693378448,0.2599877417087555,0.11580674350261688
1761469121125757400,0.29875732421875,-0.11176177859306335,0.19499103724956512,0.024071428924798965
1761469121135713300,0.30871337890625,-0.13708309829235077,0.15237753093242645,-0.024121666327118874
1761469121145668600,0.318668701171875,-0.1595451682806015,0.13779330253601074,-0.04428098723292351
1761469121155624400,0.32862451171875,-0.16988836228847504,0.1312083750963211,-0.04128812626004219
1761469121165580300,0.338580322265625,-0.1647624671459198,0.10078959912061691,-0.02581794373691082
1761469121175535000,0.34853515625,-0.1450481414794922,0.04958978667855263,0.000662132864817977
1761469121185491200,0.3584912109375,-0.11241408437490463,0.00787144061177969,0.025950009003281593
1761469121195447300,0.368447265625,-0.08009688556194305,-0.02566920779645443,0.040577687323093414
1761469121205402000,0.378402099609375,-0.06764501333236694,-0.04487112909555435,0.03579406067728996
1761469121215358200,0.388358154296875,-0.06821359694004059,-0.02169949561357498,0.020530950278043747
1761469121225314000,0.39831396484375,-0.07330592721700668,0.03637043386697769,0.013093531131744385
1761469121235269400,0.408269287109375,-0.07080734521150589,0.08912552148103714,0.024928618222475052
1761469121245225200,0.41822509765625,-0.05871879309415817,0.10104376077651978,0.04428103193640709
1761469121255181000,0.42818115234375,-0.047232843935489655,0.08417902886867523,0.06492452323436737
1761469121265136000,0.43813623046875,-0.04191550612449646,0.07012049853801727,0.07643156498670578
1761469121275092200,0.44809228515625,-0.04093626141548157,0.0796482190489769,0.0798899456858635
1761469121285048300,0.45804833984375,-0.0377587266266346,0.08152596652507782,0.08382897824048996
1761469121295003100,0.468003173828125,-0.025150788947939873,0.05955169349908829,0.08306518197059631
1761469121304959200,0.477959228515625,-0.00833328440785408,0.00817697774618864,0.08449537307024002
1761469121314915000,0.4879150390625,0.005546045955270529,-0.058376215398311615,0.079884372651577
1761469121324870100,0.4978701171875,0.011453745886683464,-0.11396642029285431,0.05833500251173973
1761469121334826200,0.507826171875,0.01100340485572815,-0.1259586364030838,0.02613632008433342
1761469121344782000,0.517781982421875,0.005567834712564945,-0.09873484075069427,-0.01000235229730606
1761469121354737400,0.5277373046875,0.004624542780220509,-0.04179299995303154,-0.04314379394054413
1761469121364693200,0.537693359375,0.008991102688014507,0.0250682532787323,-0.056965164840221405
1761469121374649300,0.5476494140625,0.025560226291418076,0.08650844544172287,-0.048424940556287766
1761469121384604200,0.557604248046875,0.047258831560611725,0.10869407653808594,-0.018334241583943367
1761469121394560000,0.56756005859375,0.069486103951931,0.08659303188323975,0.02257457561790943
1761469121404516000,0.57751611328125,0.08297643810510635,0.04926344379782677,0.0570741631090641
1761469121414471200,0.58747119140625,0.08559326082468033,0.017723362892866135,0.0817859023809433
1761469121424427300,0.59742724609375,0.07865124195814133,-0.004458191804587841,0.08689673244953156
1761469121434383000,0.607383056640625,0.06523743271827698,-0.025072922930121422,0.06375892460346222
1761469121444338200,0.617338134765625,0.04274504631757736,-0.04288950189948082,0.02588868886232376
1761469121454294300,0.627294189453125,0.01903199404478073,-0.057788290083408356,-0.019037239253520966
1761469121464250000,0.63725,0.002386238658800721,-0.06425157934427261,-0.039091456681489944
1761469121474206200,0.647206298828125,-0.0029704435728490353,-0.06416928768157959,-0.032658059149980545
1761469121484161000,0.6571611328125,0.00009088747901841998,-0.05768955871462822,-0.008755316957831383
1761469121494117400,0.667117431640625,0.0018144852947443724,-0.04548109322786331,0.023080110549926758
1761469121504073200,0.6770732421875,0.0021877000108361244,-0.02448938973248005,0.04827769845724106
1761469121514028000,0.687028076171875,0.005404531955718994,-0.0026424142997711897,0.06499729305505753
1761469121523984100,0.696984130859375,0.0032811688724905252,0.013228686526417732,0.07032865285873413
1761469121533940000,0.70693994140625,-0.0016134550096467137,0.021931365132331848,0.07430288940668106
1761469121543895300,0.716895263671875,-0.0027948995120823383,0.013633019290864468,0.07763511687517166
1761469121553851100,0.72685107421875,-0.0009860806167125702,0.004634730517864227,0.07010822743177414
1761469121563807200,0.73680712890625,0.0005574800306931138,0.007620570249855518,0.05488259345293045
1761469121573762300,0.74676220703125,-0.004438610281795263,0.02162187546491623,0.038672998547554016
1761469121583718400,0.756718505859375,-0.006426469422876835,0.04916932433843613,0.03563294559717178
1761469121593674200,0.76667431640625,-0.005995037499815226,0.05092141777276993,0.052311260253190994
1761469121603629000,0.776629150390625,0.0036199481692165136,0.04579196125268936,0.06464096158742905
1761469121613585200,0.786585205078125,0.017322445288300514,0.04368859902024269,0.06721224635839462
1761469121623541000,0.796541015625,0.017831431701779366,0.02354908362030983,0.053218770772218704
1761469121633496300,0.806496337890625,0.0037454410921782255,-0.011977484449744225,0.035240836441516876
1761469121643452200,0.8164521484375,-0.006705360487103462,-0.05091184377670288,0.02246936410665512
1761469121653408300,0.826408203125,-0.0047964067198336124,-0.08092965930700302,0.02499403990805149
1761469121663363300,0.83636328125,-0.0011866581626236439,-0.09067120403051376,0.03394413739442825
1761469121673319200,0.846319091796875,0.0013614543713629246,-0.06368566304445267,0.04091363027691841
1761469121683275300,0.856275146484375,0.0003433033125475049,-0.020431675016880035,0.03707706183195114
1761469121693230000,0.86622998046875,-0.005348138511180878,0.01599770598113537,0.022729014977812767
1761469121703186200,0.876186279296875,-0.01703563518822193,0.04520193487405777,0.002056318102404475
1761469121713142300,0.886142333984375,-0.024399008601903915,0.06803800910711288,-0.029360193759202957
1761469121723097000,0.89609716796875,-0.02401469275355339,0.08762850612401962,-0.06608788669109344
1761469121733053200,0.90605322265625,-0.019357090815901756,0.10264714062213898,-0.09100975096225739
1761469121743009000,0.916009033203125,-0.013379599899053574,0.10470923781394958,-0.09535547345876694
1761469121752964400,0.92596435546875,-0.006112366449087858,0.08661279082298279,-0.08672496676445007
1761469121762920200,0.935920166015625,-0.011890167370438576,0.05597841367125511,-0.07747713476419449
1761469121772876300,0.945876220703125,-0.024179857224225998,0.025228222832083702,-0.06315811723470688
1761469121782831000,0.9558310546875,-0.03209638223052025,0.018419237807393074,-0.05072688311338425
1761469121792787200,0.965787109375,-0.026232898235321045,0.025041189044713974,-0.048003800213336945
1761469121802743300,0.975743408203125,-0.020470257848501205,0.01944875717163086,-0.04517105966806412
1761469121812698000,0.985697998046875,-0.014559638686478138,0.0027904189191758633,-0.039617571979761124
1761469121822654200,0.995654296875,-0.010329032316803932,-0.013941898010671139,-0.028203196823596954
1761469121832610000,1.005610107421875,-0.0007632242632098496,-0.01854809932410717,-0.010827138088643551
1761469121842565400,1.0155654296875,0.007359009236097336,-0.011058717966079712,-0.0006242729723453522
1761469121852521200,1.025521240234375,0.006590953562408686,-0.007068770006299019,-0.0026522697880864143
1761469121862477300,1.035477294921875,-0.0002934176300186664,-0.005520175211131573,-0.015105221420526505
1761469121872432000,1.04543212890625,-0.004880180116742849,-0.004083400126546621,-0.04360504075884819
1761469121882388200,1.05538818359375,0.0004247707547619939,-0.01427951455116272,-0.07787478715181351
1761469121892344300,1.06534423828125,0.007302117999643087,-0.02150333859026432,-0.11193661391735077
1761469121902299100,1.075299072265625,0.01488531194627285,-0.036519188433885574,-0.13970524072647095
1761469121912255200,1.085255126953125,0.009972578845918179,-0.048369187861680984,-0.14648272097110748
1761469121922211000,1.095211181640625,0.006401744205504656,-0.03011181205511093,-0.13556240499019623
1761469121932166100,1.105166259765625,0.010165057145059109,0.00364588457159698,-0.11097238212823868
1761469121942122200,1.115122314453125,0.01734522357583046,0.028096545487642288,-0.06805506348609924
1761469121952078000,1.125078125,0.015216825529932976,0.04286590591073036,-0.026555825024843216
1761469121962033200,1.135033203125,0.009079735726118088,0.042442698031663895,0.006353053264319897
1761469121971989200,1.1449892578125,0.004020795226097107,0.031913623213768005,0.02415814809501171
1761469121981945300,1.1549453125,0.004945020191371441,0.02323557250201702,0.028764497488737106
1761469121991900200,1.164900146484375,0.01357605867087841,0.0158945694565773,0.023999303579330444
1761469122001856000,1.17485595703125,0.026396984234452248,0.001390791148878634,0.010141625069081783
1761469122011812000,1.18481201171875,0.03656679764389992,-0.004724892321974039,-0.012504031881690025
1761469122021768200,1.194768310546875,0.03937693312764168,-0.0015334616182371974,-0.04213818162679672
1761469122031723300,1.20472314453125,0.03949730843305588,0.0032916534692049026,-0.0721200555562973
1761469122041679000,1.21467919921875,0.03454738110303879,-0.002851516706869006,-0.08806419372558594
1761469122051635200,1.22463525390625,0.03167382627725601,-0.0010235230438411236,-0.08068590611219406
1761469122061590300,1.23459033203125,0.03335241973400116,0.006064480170607567,-0.05604926869273186
1761469122071546000,1.244546142578125,0.03257504105567932,0.012964730150997639,-0.025713201612234116
1761469122081502200,1.254502197265625,0.02954472228884697,0.022456446662545204,0.0034041404724121094
1761469122091457000,1.26445703125,0.02496381849050522,0.017064344137907028,0.028458893299102783
1761469122101413400,1.274413330078125,0.01920752041041851,-0.005829476285725832,0.0444171167910099
1761469122111369200,1.284369140625,0.014882281422615051,-0.03732295706868172,0.04059388116002083
1761469122121324300,1.29432421875,0.010425972752273083,-0.04704661667346954,0.024616878479719162
1761469122131280100,1.304280029296875,0.0035571479238569736,-0.032564081251621246,0.009630205109715462
1761469122141236200,1.314236328125,0.0018471067305654287,-0.012364543043076992,0.004232759587466717
1761469122151191300,1.32419140625,0.00372010818682611,-0.0046277944929897785,-0.0004983460530638695
1761469122161147100,1.334147216796875,0.0024885640013962984,0.0025597703643143177,-0.009897452779114246
1761469122171103200,1.344103271484375,-0.00461222231388092,0.023475438356399536,-0.024825002998113632
1761469122181058000,1.35405810546875,-0.01823827065527439,0.03349896892905235,-0.03073999658226967
1761469122191014400,1.364014404296875,-0.022950466722249985,0.02368335798382759,-0.03452887758612633
1761469122200970200,1.37397021484375,-0.023815438151359558,0.018416164442896843,-0.032662250101566315
1761469122210925000,1.383925048828125,-0.023213829845190048,0.019672110676765442,-0.02703099697828293
1761469122220881200,1.393881103515625,-0.02581353299319744,0.018634304404258728,-0.018199162557721138
1761469122230837000,1.4038369140625,-0.03193027898669243,0.016889134421944618,-0.021228507161140442
1761469122240792300,1.413792236328125,-0.04380955919623375,0.02530437335371971,-0.03244899585843086
1761469122250748200,1.423748046875,-0.05685718357563019,0.03881458938121796,-0.04189655929803848
1761469122260704300,1.433704345703125,-0.06582440435886383,0.02212008833885193,-0.03590545058250427
1761469122270659300,1.443659423828125,-0.05377786234021187,-0.015325820073485374,-0.020466305315494537
1761469122280615200,1.453615234375,-0.03430081531405449,-0.03136932849884033,-0.01593073457479477
1761469122290571300,1.4635712890625,-0.015069864690303802,-0.02377372421324253,-0.018477249890565872
1761469122300526000,1.473526123046875,-0.0015820960979908705,-0.008511696942150593,-0.03405705839395523
1761469122310482200,1.483482177734375,0.009057764895260334,-0.0044253431260585785,-0.05710645020008087
1761469122320438300,1.493438232421875,0.011163052171468735,-0.01920338347554207,-0.06851452589035034
1761469122330393000,1.50339306640625,0.020544836297631264,-0.02016425132751465,-0.06377249956130981
1761469122340349200,1.51334912109375,0.02939945086836815,-0.012886508367955685,-0.04408545419573784
1761469122350305000,1.523304931640625,0.03321229666471481,-0.010615896433591843,-0.01533077098429203
1761469122360260400,1.53326025390625,0.029177838936448097,-0.005651851650327444,0.002916793804615736
1761469122370216200,1.54321630859375,0.016605854034423828,-0.0080782575532794,0.006381300278007984
1761469122380172300,1.55317236328125,-0.004477193113416433,-0.01952386274933815,-0.004604610614478588
1761469122390127000,1.563127197265625,-0.024715885519981384,-0.019450627267360687,-0.023435555398464203
1761469122400083200,1.573083251953125,-0.04041893035173416,-0.006247284356504679,-0.03864604979753494
1761469122410039300,1.583039306640625,-0.04636390507221222,0.012648110277950764,-0.04803688824176788
1761469122419994000,1.592994140625,-0.04459001496434212,0.020861636847257614,-0.05229278653860092
1761469122429950200,1.6029501953125,-0.041876256465911865,0.012305433861911297,-0.05444036051630974
1761469122439906000,1.612906005859375,-0.04155941307544708,-0.01394484844058752,-0.05440786853432655
1761469122449861400,1.622861328125,-0.04617546871304512,-0.02624146081507206,-0.06426262855529785
1761469122459817200,1.632817138671875,-0.04991839826107025,-0.0164400115609169,-0.08313275128602982
1761469122469773300,1.642773193359375,-0.06249384582042694,0.003255661344155669,-0.09473960846662521
1761469122479729200,1.652729248046875,-0.07479946315288544,0.025177238509058952,-0.09088283777236938
1761469122489684200,1.662684326171875,-0.07586392760276794,0.030053487047553062,-0.07582399249076843
1761469122499640300,1.672640380859375,-0.07038332521915436,0.02122309058904648,-0.055435504764318466
1761469122509596200,1.68259619140625,-0.059965845197439194,0.01666855253279209,-0.03916279226541519
1761469122519551200,1.69255126953125,-0.04540114477276802,0.0043901680037379265,-0.028188278898596764
1761469122529507000,1.702507080078125,-0.03211916238069534,0.003939561080187559,-0.027967235073447227
1761469122539463200,1.712463134765625,-0.022851714864373207,0.007832740433514118,-0.04134447127580643
1761469122549418200,1.722418212890625,-0.02335558459162712,0.003352503990754485,-0.045432690531015396
1761469122559374000,1.7323740234375,-0.023199521005153656,0.0046361335553228855,-0.04298572614789009
1761469122569330200,1.742330078125,-0.022292181849479675,-0.005997069645673037,-0.030024118721485138
1761469122579285200,1.75228515625,-0.014815558679401875,-0.02715008519589901,-0.018674606457352638
1761469122589241300,1.762241455078125,0.0008691283874213696,-0.04317725449800491,-0.023882949724793434
1761469122599197200,1.772197265625,0.018254408612847328,-0.04707321897149086,-0.04435979574918747
1761469122609152000,1.782152099609375,0.035873349756002426,-0.03281572088599205,-0.07604476064443588
1761469122619108000,1.792108154296875,0.05506819486618042,0.004206069745123386,-0.10720332711935043
1761469122629064200,1.802064208984375,0.07475188374519348,0.045089054852724075,-0.13174356520175934
1761469122639019300,1.812019287109375,0.0899183452129364,0.06768384575843811,-0.14214105904102325
1761469122648975000,1.82197509765625,0.09043526649475098,0.05114136263728142,-0.13591085374355316
1761469122658931200,1.83193115234375,0.08104879409074783,-0.000327573245158419,-0.11381925642490387
1761469122668886300,1.84188623046875,0.06718677282333374,-0.05272553488612175,-0.08199980854988098
1761469122678842400,1.85184228515625,0.04873545467853546,-0.08104047924280167,-0.05143042281270027
1761469122688798200,1.861798095703125,0.02302556298673153,-0.08684537559747696,-0.025212932378053665
1761469122698753000,1.8717529296875,0.0032343147322535515,-0.06798103451728821,-0.008701241575181484
1761469122708709000,1.881709228515625,-0.020362889394164085,-0.04023675620555878,0.0006371329072862864
1761469122718665200,1.891665283203125,-0.04317470267415047,-0.00375623838044703,0.004574366845190525
1761469122728620300,1.901620361328125,-0.06534365564584732,0.033072616904973984,0.01005009189248085
1761469122738576100,1.911576171875,-0.07463225722312927,0.061520766466856,0.020644662901759148
1761469122748532200,1.9215322265625,-0.07256218045949936,0.07240696251392365,0.02620507776737213
1761469122758487300,1.9314873046875,-0.06574172526597977,0.07029885053634644,0.018148228526115417
1761469122768443100,1.941443115234375,-0.059657465666532516,0.04823482409119606,0.010832258500158787
1761469122778399200,1.951399169921875,-0.05605842545628548,0.002938630757853389,0.0065794144757092
1761469122788354000,1.96135400390625,-0.04640073701739311,-0.030285635963082314,0.011043671518564224
1761469122798310400,1.971310302734375,-0.039555758237838745,-0.049614012241363525,0.013331090100109577
1761469122808266200,1.981266357421875,-0.03664812073111534,-0.051293931901454926,0.018350616097450256
1761469122818221000,1.991220947265625,-0.036154378205537796,-0.025299716740846634,0.02166724018752575
1761469122828177200,2.00117724609375,-0.031525805592536926,0.0050587221048772335,0.023252354934811592
1761469122838133000,2.011133056640625,-0.03187597543001175,0.015752481296658516,0.022013012319803238
1761469122848089300,2.02108935546875,-0.031921517103910446,0.01144801452755928,0.017520524561405182
1761469122858044200,2.031044189453125,-0.03200620412826538,0.010155849158763885,0.00794592872262001
1761469122868000300,2.041000244140625,-0.026240909472107887,0.01665833406150341,-0.007300009485334158
1761469122877956000,2.0509560546875,-0.017107104882597923,0.03769044578075409,-0.025415534153580666
1761469122887911200,2.0609111328125,-0.008045699447393417,0.0677812322974205,-0.04234631732106209
1761469122897867300,2.0708671875,0.011387349106371403,0.07783406227827072,-0.05107364058494568
1761469122907823000,2.080822998046875,0.03752387687563896,0.05976850539445877,-0.05654110759496689
1761469122917778200,2.090778076171875,0.06245078518986702,0.01474810391664505,-0.06133388727903366
1761469122927734000,2.100734130859375,0.08447486162185669,-0.025342056527733803,-0.06665434688329697
1761469122937690400,2.1106904296875,0.1065421774983406,-0.051723822951316833,-0.07612400501966476
1761469122947645200,2.120645263671875,0.11977942287921906,-0.061485905200242996,-0.08261838555335999
1761469122957601300,2.130601318359375,0.11785302311182022,-0.05478484183549881,-0.08644021302461624
1761469122967557000,2.14055712890625,0.11051494628190994,-0.04340062662959099,-0.08496002852916718
1761469122977512200,2.15051220703125,0.09942486882209778,-0.031457796692848206,-0.07449954748153687
1761469122987468300,2.16046826171875,0.08537936210632324,-0.0016935085877776146,-0.06940199434757233
1761469122997424000,2.170424072265625,0.07130128890275955,0.00937244389206171,-0.059721458703279495
1761469123007379200,2.180379150390625,0.06351952999830246,0.019903380423784256,-0.044489771127700806
1761469123017335300,2.190335205078125,0.05599994212388992,0.03140712156891823,-0.033716265112161636
1761469123027291400,2.20029150390625,0.04183725267648697,0.03154800459742546,-0.019799651578068733
1761469123037246200,2.21024609375,0.025089487433433533,0.02336714416742325,-0.0037449421361088753
1761469123047202000,2.2202021484375,0.011842657811939716,0.001162240980193019,0.016149403527379036
1761469123057158100,2.230158203125,0.005641954950988293,-0.016288060694932938,0.04087533801794052
1761469123067113200,2.24011328125,0.0038986492436379194,-0.025736156851053238,0.06406693905591965
1761469123077069300,2.2500693359375,0.001718222047202289,-0.035098277032375336,0.07523836195468903
1761469123087025200,2.260025146484375,-0.002599028404802084,-0.03254164382815361,0.06971070170402527
1761469123096981200,2.269981201171875,-0.012458037585020065,-0.02235352247953415,0.0509539395570755
1761469123106936300,2.279936279296875,-0.022020382806658745,0.003400044050067663,0.025476546958088875
1761469123116892200,2.28989208984375,-0.029949912801384926,0.04119839146733284,0.0014541272539645433
1761469123126848300,2.29984814453125,-0.041674211621284485,0.07532840222120285,-0.01571846753358841
1761469123136803000,2.309802978515625,-0.05396502837538719,0.08715672045946121,-0.020609473809599876
1761469123146759200,2.31975927734375,-0.05970919877290726,0.07638370245695114,-0.009392504580318928
1761469123156715300,2.32971533203125,-0.05420267954468727,0.05769945681095123,0.010793177410960197
1761469123166670000,2.339670166015625,-0.04276067391037941,0.03290276601910591,0.040086619555950165
1761469123176626200,2.349626220703125,-0.02627103589475155,0.020929140970110893,0.07153186202049255
1761469123186582000,2.35958203125,-0.011983176693320274,-0.005151194054633379,0.0974351018667221
1761469123196537300,2.369537353515625,0.001811588415876031,-0.022636929526925087,0.10272124409675598
1761469123206493200,2.3794931640625,0.007238844409584999,-0.02860640548169613,0.08937187492847443
1761469123216449300,2.38944921875,0.00568776810541749,-0.030226947739720345,0.06448247283697128
1761469123226404000,2.399404052734375,0.006831062957644463,-0.036971136927604675,0.038505733013153076
1761469123236360200,2.409360107421875,0.013511186465620995,-0.053634319454431534,0.009706794284284115
1761469123246316300,2.41931640625,0.018192758783698082,-0.06845694780349731,-0.008788593113422394
1761469123256271000,2.42927099609375,0.028413578867912292,-0.05871008336544037,-0.012428632006049156
1761469123266227200,2.439227294921875,0.03845369815826416,-0.04263630881905556,-0.003552315291017294
1761469123276183000,2.44918310546875,0.04427960142493248,-0.033256132155656815,0.0072249481454491615
1761469123286138400,2.459138427734375,0.04137462377548218,-0.025671713054180145,0.009018054232001305
1761469123296094200,2.46909423828125,0.023130714893341064,-0.017891522496938705,0.00396816385909915
1761469123306050300,2.47905029296875,0.0015950631350278854,-0.004991437308490276,-0.002228479366749525
1761469123316005000,2.489005126953125,-0.01562458649277687,0.00447967741638422,-0.005426542833447456
1761469123325961200,2.498961181640625,-0.023350415751338005,0.019144907593727112,-0.006320299580693245
1761469123335917300,2.508917236328125,-0.02473355457186699,0.042451146990060806,-0.006809111684560776
1761469123345873200,2.518873046875,-0.026229452341794968,0.05734434351325035,-0.005741983652114868
1761469123355828200,2.528828125,-0.019496597349643707,0.07362312823534012,-0.0042157722637057304
1761469123365784000,2.5387841796875,-0.00696589145809412,0.09399924427270889,-0.0005190384108573198
1761469123375740400,2.548740478515625,0.00816743727773428,0.099617600440979,0.003966663498431444
1761469123385695200,2.5586953125,0.022905902937054634,0.08418191224336624,0.0060117049142718315
1761469123395651000,2.568651123046875,0.03778018429875374,0.027360616251826286,0.005755698774009943
1761469123405607200,2.578607177734375,0.0470527783036232,-0.04692826047539711,0.008183170109987259
1761469123415562200,2.588562255859375,0.06006442382931709,-0.08724666386842728,0.004812390543520451
1761469123425518300,2.598518310546875,0.0646892711520195,-0.10213426500558853,0.003090124111622572
1761469123435474200,2.60847412109375,0.05879228934645653,-0.10472460836172104,-0.0004022354260087013
1761469123445429000,2.618428955078125,0.045658644288778305,-0.08626064658164978,-0.006365053355693817
1761469123455385000,2.628385009765625,0.02628428488969803,-0.06037913262844086,-0.007864787243306637
1761469123465341200,2.638341064453125,0.008656822144985199,-0.030098194256424904,0.0007747740019112825
1761469123475296300,2.648296142578125,-0.014672339893877506,-0.001041893265210092,0.015090703964233398
1761469123485252000,2.658252197265625,-0.03530118241906166,0.015630029141902924,0.038969673216342926
1761469123495208200,2.668208251953125,-0.05188123509287834,0.029123099520802498,0.05908578261733055
1761469123505163300,2.678163330078125,-0.06291177868843079,0.04503682255744934,0.06635887175798416
1761469123515119000,2.688119140625,-0.07104212045669556,0.04365517571568489,0.06573598086833954
1761469123525075200,2.6980751953125,-0.08971460908651352,0.025396276265382767,0.046568941324949265
1761469123535030000,2.708030029296875,-0.0758964940905571,0.017228998243808746,0.02269566059112549
1761469123544986400,2.717986328125,-0.05212991312146187,0.02711571753025055,-0.003071489278227091
1761469123554942200,2.727942138671875,-0.02388221211731434,0.06704939156770706,-0.019386952742934227
1761469123564897300,2.737897216796875,-0.004221692215651274,0.08344514667987823,-0.028812944889068604
1761469123574853000,2.74785302734375,0.008474226109683514,0.07775641232728958,-0.028664061799645424
1761469123584809200,2.757809326171875,0.02020997740328312,0.06889261305332184,-0.025599295273423195
1761469123594765300,2.767765380859375,0.031619999557733536,0.0523810088634491,-0.014336004853248596
1761469123604720000,2.77772021484375,0.040327735245227814,0.02912735380232334,-0.00942406989634037
1761469123614676200,2.78767626953125,0.050203848630189896,0.0093618119135499,-0.012707792222499847
1761469123624632000,2.797632080078125,0.053444914519786835,0.005339373368769884,-0.016180820763111115
1761469123634587400,2.80758740234375,0.05617643520236015,0.00153280736412853,-0.014835250563919544
1761469123644543200,2.817543212890625,0.0615813210606575,-0.025219177827239037,-0.016184940934181213
1761469123654499300,2.827499267578125,0.06693338602781296,-0.06839694827795029,-0.01925843209028244
1761469123664454100,2.8374541015625,0.059283722192049026,-0.10133253037929535,-0.02641967311501503
1761469123674410000,2.847409912109375,0.043437410145998,-0.10649310052394867,-0.03534862399101257
1761469123684366300,2.857366455078125,0.026634730398654938,-0.09955424070358276,-0.0415191687643528
1761469123694321200,2.867321044921875,0.005631035193800926,-0.09281692653894424,-0.03292005509138107
1761469123704277200,2.87727734375,-0.01489820796996355,-0.07782545685768127,-0.019507845863699913
1761469123714233000,2.887233154296875,-0.033579252660274506,-0.03919481113553047,-0.0028104521334171295
1761469123724188200,2.897188232421875,-0.04484815150499344,0.011774630285799503,0.018457552418112755
1761469123734144300,2.907144287109375,-0.04599311947822571,0.050103627145290375,0.02876207046210766
1761469123744100000,2.91710009765625,-0.045190975069999695,0.06354247778654099,0.02968059480190277
1761469123754055200,2.92705517578125,-0.049565814435482025,0.06478116661310196,0.01796303316950798
1761469123764011300,2.93701123046875,-0.04585443437099457,0.0740060955286026,-0.011661970987915993
1761469123773967400,2.94696728515625,-0.034352123737335205,0.0815260112285614,-0.05568646639585495
1761469123783923200,2.956923095703125,-0.019543884322047234,0.060610875487327576,-0.08888357132673264
1761469123793878000,2.9668779296875,-0.013534344732761383,0.021308956667780876,-0.10572171211242676
1761469123803834000,2.976834228515625,-0.007196553982794285,-0.03866036981344223,-0.10527537763118744
1761469123813790200,2.986790283203125,0.0029839444905519485,-0.10189089924097061,-0.0858115702867508
1761469123823745300,2.996745361328125,0.019940823316574097,-0.1261616200208664,-0.057102955877780914
1761469123833701000,3.006701171875,0.028913838788866997,-0.11539898067712784,-0.0208037868142128
1761469123843657200,3.0166572265625,0.0440824031829834,-0.09946689009666443,0.005811045411974192
1761469123853612300,3.0266123046875,0.05286451056599617,-0.10192930698394775,0.020903898403048515
1761469123863568400,3.036568359375,0.05401739478111267,-0.10736321657896042,0.032763220369815826
1761469123873524200,3.046524169921875,0.04929868504405022,-0.09510011225938797,0.03519073873758316
1761469123883479000,3.05647900390625,0.044181954115629196,-0.07013484090566635,0.03424505144357681
1761469123893435100,3.06643505859375,0.03084569424390793,-0.05014780908823013,0.0340631902217865
1761469123903391200,3.07639111328125,0.0187541451305151,-0.042221177369356155,0.03310498222708702
1761469123913346300,3.08634619140625,0.0028325149323791265,-0.04498792439699173,0.029098840430378914
1761469123923302100,3.09630224609375,-0.009374350309371948,-0.04365527629852295,0.01643257960677147
1761469123933258200,3.10625830078125,-0.018205756321549416,-0.028577975928783417,0.003745291382074356
1761469123943213300,3.11621337890625,-0.026851974427700043,-0.01993388868868351,0.006587416864931583
1761469123953169200,3.126169189453125,-0.03032616712152958,-0.023672740906476974,0.025965096428990364
1761469123963125200,3.136125244140625,-0.03015572391450405,-0.02111690491437912,0.04797079414129257
1761469123973081000,3.1460810546875,-0.030567441135644913,-0.011776834726333618,0.07272735238075256
1761469123983036200,3.1560361328125,-0.035940103232860565,0.005170989781618118,0.09157401323318481
1761469123992992300,3.1659921875,-0.043083224445581436,0.01902618072926998,0.10204137116670609
1761469124002948400,3.1759482421875,-0.051269516348838806,0.028616756200790405,0.10584836453199387
1761469124012903200,3.185903076171875,-0.05837060883641243,0.04113128408789635,0.09904621541500092
1761469124022859000,3.19585888671875,-0.05986384302377701,0.04913168400526047,0.08592774718999863
1761469124032815000,3.205815185546875,-0.06422168761491776,0.04040559008717537,0.07153452932834625
1761469124042770200,3.215770263671875,-0.07304420322179794,0.03240305930376053,0.05653293803334236
1761469124052726300,3.225726318359375,-0.08192317932844162,0.04560791328549385,0.043875012546777725
1761469124062682000,3.23568212890625,-0.09045515209436417,0.07188691943883896,0.03445727750658989
1761469124072637200,3.24563720703125,-0.09190395474433899,0.10555123537778854,0.0251849927008152
1761469124082593300,3.25559326171875,-0.08729082345962524,0.1319650113582611,0.019496215507388115
1761469124092549000,3.265549072265625,-0.07366973906755447,0.14976158738136292,0.018715690821409225
1761469124102504200,3.275504150390625,-0.04932738468050957,0.14910273253917694,0.018174270167946815
1761469124112460000,3.2854599609375,-0.01869375817477703,0.1382720172405243,0.015109630301594734
1761469124122416400,3.29541650390625,0.012202107347548008,0.10755991190671921,0.0016598686343058944
1761469124132372200,3.305372314453125,0.032362982630729675,0.05147480219602585,-0.02361196279525757
1761469124142327300,3.315327392578125,0.04317834600806236,-0.0017255701823160052,-0.04895726963877678
1761469124152283100,3.325283203125,0.043347761034965515,-0.03139937296509743,-0.058196667581796646
1761469124162239000,3.335239013671875,0.040694985538721085,-0.03780907019972801,-0.051767800003290176
1761469124172194600,3.345194580078125,0.041152819991111755,-0.003521301783621311,-0.03062433749437332
1761469124182150700,3.355150634765625,0.04001884162425995,0.02312069572508335,-0.001059786882251501
1761469124192106500,3.3651064453125,0.0466088242828846,0.03133102506399155,0.020282898098230362
1761469124202061600,3.3750615234375,0.0499899722635746,0.030044984072446823,0.02310984581708908
1761469124212017700,3.385017578125,0.054259318858385086,0.0136187095195055,0.0066747721284627914
1761469124221973800,3.394973876953125,0.0627332329750061,-0.0008012423058971763,-0.021268179640173912
1761469124231928600,3.404928466796875,0.06970606744289398,-0.007773612625896931,-0.04971388727426529
1761469124241884400,3.414884521484375,0.0722413957118988,-0.023011155426502228,-0.06717410683631897
1761469124251840500,3.424840576171875,0.07129677385091782,-0.04553617164492607,-0.07417262345552444
1761469124261795600,3.434795654296875,0.07094496488571167,-0.0535871721804142,-0.06916534900665283
1761469124271751700,3.444751708984375,0.0698772445321083,-0.04730365425348282,-0.05506729334592819
1761469124281707500,3.45470751953125,0.06675735116004944,-0.036026496440172195,-0.04059887304902077
1761469124291662300,3.464662353515625,0.050409093499183655,-0.023964829742908478,-0.027758240699768066
1761469124301618700,3.47461865234375,0.026999907568097115,-0.01035341341048479,-0.017829444259405136
1761469124311574500,3.484574462890625,-0.003295613918453455,0.01065514050424099,-0.013134103268384933
1761469124321530600,3.494530517578125,-0.034986961632966995,0.0368230938911438,-0.0031318021938204765
1761469124331485400,3.5044853515625,-0.06054280698299408,0.07812920212745667,0.01584317348897457
1761469124341441500,3.514441650390625,-0.07879957556724548,0.12974153459072113,0.03858337178826332
1761469124351397600,3.524397705078125,-0.08550817519426346,0.16158011555671692,0.06897401809692383
1761469124361352700,3.534352783203125,-0.07306881248950958,0.15018577873706818,0.0917951837182045
1761469124371308500,3.54430859375,-0.0545816570520401,0.09869168698787689,0.09936763346195221
1761469124381264400,3.554264404296875,-0.03185024857521057,0.027224700897932053,0.10779839754104614
1761469124391219700,3.5642197265625,-0.013148536905646324,-0.0392272062599659,0.11718500405550003
1761469124401175600,3.574175537109375,0.003759340150281787,-0.07815942168235779,0.12628236413002014
1761469124411131600,3.584131591796875,0.021768368780612946,-0.07924725860357285,0.13126707077026367
1761469124421086500,3.59408642578125,0.039761751890182495,-0.03696238994598389,0.12126078456640244
1761469124431042600,3.60404248046875,0.050877224653959274,0.0119002191349864,0.09641800075769424
1761469124440998700,3.61399853515625,0.053241580724716187,0.03848469257354736,0.06239638477563858
1761469124450953500,3.623953369140625,0.055275943130254745,0.04946889728307724,0.019891254603862762
1761469124460909600,3.63390966796875,0.0534849688410759,0.04279820993542671,-0.008709230460226536
1761469124470865400,3.643865478515625,0.05174581706523895,0.015968048945069313,-0.022999044507741928
1761469124480821500,3.653821533203125,0.042138997465372086,-0.016336094588041306,-0.025876857340335846
1761469124490776600,3.663776611328125,0.03683945909142494,-0.025896525010466576,-0.02609279192984104
1761469124500732700,3.673732666015625,0.035893235355615616,-0.01412695087492466,-0.026846466585993767
1761469124510688500,3.6836884765625,0.039708420634269714,0.004073518328368664,-0.026104886084794998
1761469124520643600,3.6936435546875,0.043155085295438766,-0.003201172687113285,-0.021227307617664337
1761469124530599700,3.703599609375,0.03856320306658745,-0.03997420519590378,-0.006166441366076469
1761469124540555500,3.713555419921875,0.033964987844228745,-0.06716375052928925,0.01265997625887394
1761469124550510600,3.723510498046875,0.03158516436815262,-0.07145224511623383,0.030893025919795036
1761469124560466400,3.733466552734375,0.026190930977463722,-0.055485524237155914,0.04651832580566406
1761469124570422500,3.743422607421875,0.020621338859200478,-0.015667855739593506,0.054276615381240845
1761469124580377600,3.753377685546875,0.014088072814047337,0.012988556176424026,0.06177873909473419
1761469124590333400,3.76333349609375,0.007634551264345646,0.02100648358464241,0.06356833875179291
1761469124600289500,3.77328955078125,-0.0032271509990096092,0.0152274239808321,0.055967140942811966
1761469124610244600,3.78324462890625,-0.015686575323343277,-0.0043739196844398975,0.04349535331130028
1761469124620200700,3.79320068359375,-0.021689072251319885,-0.024626461789011955,0.020577790215611458
1761469124630156500,3.803156494140625,-0.02745315432548523,-0.02576315402984619,-0.007231283001601696
1761469124640112600,3.813112548828125,-0.03261915221810341,-0.017850635573267937,-0.023855000734329224
1761469124650067500,3.8230673828125,-0.03345021232962608,-0.0022349779028445482,-0.024822307750582695
1761469124660023600,3.8330234375,-0.033455003052949905,0.022318035364151,-0.010868409648537636
1761469124669979600,3.842979736328125,-0.027238348498940468,0.04821215569972992,0.0107148177921772
1761469124679934500,3.8529345703125,-0.02088031731545925,0.0677027627825737,0.02274671383202076
1761469124689890600,3.862890625,-0.015031073242425919,0.07089504599571228,0.020048102363944054
1761469124699846400,3.872846435546875,-0.013299220241606236,0.057324379682540894,0.019041959196329117
1761469124709801700,3.8828017578125,-0.010844883508980274,0.01816888339817524,0.01761760748922825
1761469124719757600,3.892757568359375,-0.00583840673789382,-0.026551982387900352,0.021513011306524277
1761469124729713700,3.902713623046875,-0.00022728671319782734,-0.05310209468007088,0.026041781529784203
1761469124739668500,3.91266845703125,-0.0001503213425166905,-0.07020144909620285,0.03140325844287872
1761469124749624600,3.92262451171875,-0.009233579970896244,-0.06819508969783783,0.03606100007891655
1761469124759580700,3.93258056640625,-0.014478408731520176,-0.024552537128329277,0.036761943250894547
1761469124769536500,3.94253662109375,-0.025062967091798782,0.0290585495531559,0.028651881963014603
1761469124779491600,3.95249169921875,-0.04627477750182152,0.06311478465795517,0.026685405522584915
1761469124789447400,3.962447509765625,-0.0648634284734726,0.07433457672595978,0.024715885519981384
1761469124799403800,3.97240380859375,-0.06872022151947021,0.06386809051036835,0.024226665496826172
1761469124809358600,3.982358642578125,-0.06012754514813423,0.037296295166015625,0.026288673281669617
1761469124819314400,3.992314453125,-0.03977460041642189,0.004529826808720827,0.025132860988378525
1761469124829892600,4.002892578125,-0.00994598213583231,-0.03504948690533638,0.020754404366016388
1761469124839847700,4.01284765625,0.0213653352111578,-0.07205730676651001,0.013528449460864067
1761469124849803500,4.022803466796875,0.0487309955060482,-0.10132001340389252,-0.0021409322507679462
1761469124859759600,4.032759521484375,0.06821681559085846,-0.10284573584794998,-0.016984060406684875
1761469124869714400,4.04271435546875,0.07536548376083374,-0.08338655531406403,-0.02708706073462963
1761469124879670500,4.05267041015625,0.07698095589876175,-0.06409621238708496,-0.03527015447616577
1761469124889626600,4.062626708984375,0.06937894225120544,-0.04170798882842064,-0.04202200844883919
1761469124899581700,4.072581787109375,0.0481351800262928,-0.016409823670983315,-0.04680078476667404
1761469124909537500,4.08253759765625,0.024393415078520775,0.005879511591047049,-0.04767240211367607
1761469124919493600,4.09249365234375,0.010432325303554535,0.025388766080141068,-0.0468156635761261
1761469124929449500,4.102449462890625,0.006232007406651974,0.019334234297275543,-0.04796275123953819
1761469124939404500,4.112404541015625,-0.0009105901117436588,-0.013380569405853748,-0.04668842628598213
1761469124949360600,4.122360595703125,-0.008372079581022263,-0.046089623123407364,-0.048633743077516556
1761469124959316500,4.13231640625,-0.01671416498720646,-0.06668198853731155,-0.04283523932099342
1761469124969271600,4.142271484375,-0.019411031156778336,-0.0638287290930748,-0.029764492064714432
1761469124979227600,4.1522275390625,-0.023817764595150948,-0.04319428652524948,-0.00935402698814869
1761469124989183700,4.162183837890625,-0.03599320352077484,-0.017847120761871338,0.006925078108906746
1761469124999138600,4.172138671875,-0.055745869874954224,0.01583920419216156,0.008794084191322327
1761469125009094400,4.182094482421875,-0.07709141075611115,0.05039031431078911,0.003170648356899619
1761469125019050500,4.192050537109375,-0.08569075912237167,0.07099838554859161,-0.0021199872717261314
1761469125029005600,4.202005615234375,-0.08245223760604858,0.07243034988641739,-0.002354975324124098
1761469125038961700,4.211961669921875,-0.06453902274370193,0.06734024733304977,0.004331157077103853
1761469125048917500,4.22191748046875,-0.04168820008635521,0.06201953813433647,0.01613461971282959
1761469125058873600,4.23187353515625,-0.010942003689706326,0.05148380622267723,0.032648347318172455
1761469125068828700,4.24182861328125,0.0240646842867136,0.03195740282535553,0.040783412754535675
1761469125078784500,4.251784423828125,0.055142976343631744,0.011549067683517933,0.04106304422020912
1761469125088740600,4.26174072265625,0.0710415169596672,-0.013413704000413418,0.03497406840324402
1761469125098695400,4.2716953125,0.0733661875128746,-0.042726583778858185,0.02434353157877922
1761469125108651500,4.281651611328125,0.0756850615143776,-0.05253250524401665,0.002704391023144126
1761469125118607600,4.291607666015625,0.07484537363052368,-0.04537659138441086,-0.019367089495062828
1761469125128562400,4.3015625,0.07968604564666748,-0.02260272391140461,-0.02906724624335766
1761469125138518500,4.3115185546875,0.07077963650226593,0.01010142732411623,-0.036023952066898346
1761469125148474400,4.321474365234375,0.05181938037276268,0.025382695719599724,-0.04087007790803909
1761469125158430500,4.331430419921875,0.03841036558151245,0.026337172836065292,-0.04597775638103485
1761469125169009700,4.342009765625,0.03347085043787956,0.014819481410086155,-0.044245682656764984
1761469125178964700,4.35196484375,0.03526342287659645,-0.008237900212407112,-0.039009373635053635
1761469125188920800,4.3619208984375,0.03821692615747452,-0.027997488155961037,-0.0335053876042366
1761469125198876700,4.371876708984375,0.036447253078222275,-0.0390770360827446,-0.0223587267100811
1761469125208831700,4.381831787109375,0.03105919063091278,-0.03999817743897438,-0.00814065895974636
1761469125218787600,4.39178759765625,0.01943901926279068,-0.033763717859983444,0.010316112078726292
1761469125228743700,4.40174365234375,0.006061316933482885,-0.016463927924633026,0.02420957200229168
1761469125238698800,4.41169873046875,-0.014532641507685184,0.004172641318291426,0.027732400223612785
1761469125248654600,4.421654541015625,-0.04470908269286156,0.031133951619267464,0.02284966967999935
1761469125258610700,4.431610595703125,-0.0712653174996376,0.05435911566019058,0.015944093465805054
1761469125268566500,4.44156640625,-0.08660729229450226,0.06712993234395981,0.010695974342525005
1761469125278521900,4.45152197265625,-0.08753088116645813,0.06641380488872528,0.01237962394952774
1761469125288477700,4.461477783203125,-0.06847666203975677,0.06737914681434631,0.010939057916402817
1761469125298433800,4.471433837890625,-0.042318835854530334,0.06289012730121613,0.006948577240109444
1761469125308388600,4.481388671875,-0.01677761971950531,0.04564211145043373,0.00360789243131876
1761469125318344700,4.4913447265625,0.005631817039102316,0.03065250813961029,-0.00069471076130867
1761469125328300800,4.50130078125,0.028104806318879128,0.014142453670501709,-0.006010663229972124
1761469125338255600,4.511255615234375,0.04618101194500923,-0.011957324109971523,-0.009736692532896996
1761469125348211700,4.521211669921875,0.05171220004558563,-0.04430535435676575,-0.019432194530963898
1761469125358167600,4.53116748046875,0.049135323613882065,-0.06273842602968216,-0.030293630436062813
1761469125368123600,4.54112353515625,0.0417763814330101,-0.06195897236466408,-0.03974786773324013
1761469125378078700,4.55107861328125,0.03425641357898712,-0.04772304370999336,-0.045682456344366074
1761469125388034600,4.56103466796875,0.02673363871872425,-0.019061250612139702,-0.05086946487426758
1761469125397990700,4.57099072265625,0.023044362664222717,0.020386822521686554,-0.05140369385480881
1761469125407945700,4.58094580078125,0.01765252649784088,0.05024618282914162,-0.04750828817486763
1761469125417901800,4.59090185546875,0.013933837413787842,0.05766287446022034,-0.042241040617227554
1761469125427857700,4.600857666015625,0.016185540705919266,0.051075279712677,-0.040451664477586746
1761469125437812700,4.610812744140625,0.008137733675539494,0.019266217947006226,-0.03284114599227905
1761469125447768600,4.6207685546875,0.0019678131211549044,-0.019210655242204666,-0.02329777367413044
1761469125457725000,4.630724853515625,-0.00724352803081274,-0.04612962156534195,-0.012844866141676903
1761469125467680800,4.6406806640625,-0.021867569535970688,-0.05358455330133438,0.0048023671843111515
1761469125477635600,4.650635498046875,-0.034419313073158264,-0.040241848677396774,0.02927335537970066
1761469125487591700,4.660591796875,-0.043555136770009995,-0.018630512058734894,0.04934591427445412
1761469125497547500,4.670547607421875,-0.04765986651182175,0.007913214154541492,0.056083180010318756
1761469125507502800,4.6805029296875,-0.047103241086006165,0.030301077291369438,0.04969320446252823
1761469125517458700,4.690458740234375,-0.04141393303871155,0.04336468502879143,0.031801022589206696
1761469125527414800,4.700414794921875,-0.03633132204413414,0.04940702021121979,0.015392128378152847
1761469125537369900,4.710369873046875,-0.026915445923805237,0.05124087631702423,0.0006504675839096308
1761469125547325700,4.72032568359375,-0.008905702270567417,0.051911406219005585,-0.017662808299064636
1761469125557281800,4.73028173828125,0.0025722552090883255,0.03269004076719284,-0.036013051867485046
1761469125567237600,4.740237548828125,0.008417898789048195,-0.003756011137738824,-0.04256701096892357
1761469125577192700,4.750192626953125,0.014046489261090755,-0.03171813488006592,-0.03648301959037781
1761469125587148500,4.7601484375,0.018510369583964348,-0.032029036432504654,-0.025761542841792107
1761469125597105000,4.77010498046875,0.023427896201610565,-0.008971389383077621,-0.005972124636173248
1761469125607059700,4.780059814453125,0.023110318928956985,0.00875977985560894,0.010795559734106064
1761469125617015600,4.790015625,0.01743086241185665,0.022504355758428574,0.017538417130708694
1761469125626971600,4.7999716796875,0.009667394682765007,0.038119424134492874,0.015779806300997734
1761469125636926700,4.8099267578125,0.0027663458604365587,0.03768559545278549,0.0038166213780641556
1761469125646882800,4.8198828125,-0.002701235469430685,0.03414668142795563,-0.01101146824657917
1761469125656838700,4.829838623046875,-0.005094618070870638,0.018561063334345818,-0.021767975762486458
1761469125666794800,4.839794677734375,-0.004108279477804899,0.004517365247011185,-0.02380291186273098
1761469125676749800,4.849749755859375,0.005861796438694,0.00896883849054575,-0.019613493233919144
1761469125686705700,4.85970556640625,0.01795494556427002,0.02037116326391697,-0.015506366267800331
1761469125696661800,4.869661865234375,0.025506604462862015,0.017885368317365646,-0.004946666304022074
1761469125706616600,4.879616455078125,0.027979109436273575,0.011577937752008438,0.001059309346601367
1761469125716572700,4.88957275390625,0.029655037447810173,0.005502202082425356,0.005759522318840027
1761469125726528800,4.89952880859375,0.026483947411179543,0.00008751481072977185,0.009955676272511482
1761469125736483600,4.909483642578125,0.01937676966190338,0.000034251585020683706,0.019184064120054245
1761469125746439700,4.919439697265625,0.014740093611180782,0.005281905643641949,0.02878088876605034
1761469125756395500,4.9293955078125,0.010465454310178757,0.008752270601689816,0.03577488288283348
1761469125766351600,4.9393515625,0.007717568427324295,0.00842821504920721,0.034890007227659225
1761469125776306700,4.949306640625,0.005931385792791843,0.005127759650349617,0.02733675017952919
1761469125786262800,4.9592626953125,0.006044750567525625,0.002383799757808447,0.016414202749729156
1761469125796218600,4.969218505859375,0.006362465675920248,0.010921361856162548,0.00437058974057436
1761469125806173700,4.979173583984375,0.007434356492012739,0.03201375529170036,-0.001871687825769186
1761469125816129800,4.9891298828125,0.011108987033367157,0.06393253803253174,-0.0038434923626482487
1761469125826086000,4.9990859375,0.01486318651586771,0.08613254874944687,0.000013987068086862564
1761469125836040700,5.009040771484375,0.014450929127633572,0.0855059027671814,0.00985330156981945
1761469125845996500,5.01899658203125,0.016391661018133163,0.05829808861017227,0.017453555017709732
1761469125855952600,5.02895263671875,0.016835074871778488,0.008983536623418331,0.02636076509952545
1761469125865908700,5.03890869140625,0.018640976399183273,-0.028639523312449455,0.027136968448758125
1761469125875863800,5.04886376953125,0.02228604257106781,-0.04067621007561684,0.020437253639101982
1761469125885819600,5.058819580078125,0.023950988426804543,-0.03316391259431839,0.01273760013282299
1761469125895775700,5.068775634765625,0.026596305891871452,-0.018894165754318237,0.005161705426871777
1761469125905730800,5.078730712890625,0.0279964841902256,-0.0008955635130405426,-0.006792566739022732
1761469125915686700,5.088686767578125,0.026887543499469757,0.019070422276854515,-0.01752377487719059
1761469125925642800,5.098642822265625,0.023698382079601288,0.0398489348590374,-0.027990544214844704
1761469125935597600,5.10859765625,0.01969032548367977,0.05911983549594879,-0.040168117731809616
1761469125945553700,5.1185537109375,0.01347350049763918,0.05726984143257141,-0.03942658007144928
1761469125955509800,5.128509765625,0.008555173873901367,0.048694729804992676,-0.026951003819704056
1761469125965465900,5.1384658203125,0.0051129963248968124,0.03042273037135601,-0.011783488094806671
1761469125975420700,5.148420654296875,-0.001289508887566626,0.015196106396615505,-0.0003390861675143242
1761469125985376500,5.15837646484375,-0.008543305099010468,0.005467634182423353,0.01141454093158245
1761469125995332600,5.16833251953125,-0.019651882350444794,-0.0013756246771663427,0.024125542491674423
1761469126005287700,5.17828759765625,-0.022242210805416107,-0.006704984698444605,0.03449653461575508
1761469126015243800,5.188243896484375,-0.024506431072950363,-0.012064330279827118,0.04052140191197395
1761469126025199600,5.19819970703125,-0.03010491095483303,-0.003795427968725562,0.04353436082601547
1761469126035155700,5.20815576171875,-0.032487910240888596,0.015398506075143814,0.04153086617588997
1761469126045110800,5.21811083984375,-0.0360126830637455,0.030686652287840843,0.04514659568667412
1761469126055066600,5.228066650390625,-0.03347975015640259,0.03372878208756447,0.04845903441309929
1761469126065022700,5.238022705078125,-0.032144710421562195,0.020432308316230774,0.046795547008514404
1761469126074977500,5.2479775390625,-0.031499963253736496,0.010283002629876137,0.03823348134756088
1761469126084933600,5.25793359375,-0.030243810266256332,0.006271533202379942,0.026230692863464355
1761469126094889700,5.2678896484375,-0.02439870499074459,0.00010924466187134385,0.01494394987821579
1761469126104844800,5.2778447265625,-0.015860963612794876,-0.01576915942132473,0.010746682994067669
1761469126114800600,5.287800537109375,-0.004472753964364529,-0.029177110642194748,0.007214265875518322
1761469126124756500,5.297756591796875,0.0014445162378251553,-0.019353995099663734,-0.0005298338364809752
1761469126134712600,5.307712646484375,0.005025934893637896,-0.006177207920700312,-0.0032968581654131413
1761469126144667600,5.317667724609375,0.011704767122864723,-0.0015808481257408857,-0.0035142311826348305
1761469126154623700,5.327623779296875,0.01650032214820385,-0.0011486170114949346,-0.002358952071517706
1761469126164579600,5.33757958984375,0.0122727295383811,-0.0023613679222762585,-0.0021618157625198364
1761469126174535000,5.347534912109375,0.007431900594383478,0.0027822612319141626,-0.004058518912643194
1761469126184490800,5.35749072265625,0.0011007955763489008,0.00952884554862976,-0.011277800425887108
1761469126194446800,5.36744677734375,-0.004197829402983189,0.018138844519853592,-0.015240050852298737
1761469126204401700,5.377401611328125,-0.007351035252213478,0.017341338098049164,-0.0190187469124794
1761469126214357500,5.387357421875,-0.004870033822953701,0.005843672901391983,-0.020113838836550713
1761469126224313900,5.39731396484375,-0.004654146730899811,-0.009836276061832905,-0.019826235249638557
1761469126234269700,5.407269775390625,-0.004160929471254349,-0.014632096514105797,-0.01839771494269371
1761469126244224800,5.417224853515625,-0.0017027683788910508,-0.019568316638469696,-0.013493314385414124
1761469126254180600,5.4271806640625,0.0023953039199113846,-0.026499193161725998,-0.010662641376256943
1761469126264136700,5.43713671875,0.004122626036405563,-0.016054118052124977,-0.0090038375928998
1761469126274091800,5.447091796875,0.002314073033630848,-0.0010325585026293993,-0.008786522783339024
1761469126284047600,5.457047607421875,-0.004758660215884447,0.011853094212710857,-0.011308865621685982
1761469126294003700,5.467003662109375,-0.01333403866738081,0.01990089938044548,-0.018434684723615646
1761469126303958500,5.47695849609375,-0.026320524513721466,0.025192229077219963,-0.018832702189683914
1761469126313915000,5.486914794921875,-0.029385022819042206,0.027988549321889877,-0.018343478441238403
1761469126323870700,5.49687060546875,-0.02536987140774727,0.027609260752797127,-0.023856239393353462
1761469126333826800,5.506826904296875,-0.024812471121549606,0.005458151455968618,-0.024942543357610703
1761469126343781600,5.51678173828125,-0.020361028611660004,-0.012882348150014877,-0.021236315369606018
1761469126353737500,5.526737548828125,-0.013477555476129055,-0.02204681932926178,-0.014635405503213406
1761469126363693800,5.53669384765625,-0.010721035301685333,-0.030302295461297035,-0.008393973112106323
1761469126373648600,5.546648681640625,-0.006927894428372383,-0.027594393119215965,-0.0014116973616182804
1761469126383604700,5.556604736328125,-0.005928887985646725,-0.015799526125192642,0.0005385642871260643
1761469126393560600,5.566560546875,-0.008164078928530216,-0.012732096947729588,-0.002651370130479336
1761469126403515600,5.576515625,-0.008573849685490131,-0.007450833451002836,-0.006834459025412798
1761469126413471700,5.5864716796875,-0.008124574087560177,0.007520659361034632,-0.007370553445070982
1761469126423427600,5.596427490234375,-0.005579825025051832,0.008660657331347466,-0.0029171183705329895
1761469126433383700,5.6063837890625,-0.0030397020746022463,-0.007532692980021238,-0.000146365724503994
1761469126443338800,5.6163388671875,-0.004007638897746801,-0.022916391491889954,0.001460616709664464
1761469126453294800,5.626294921875,-0.012493269518017769,-0.035193294286727905,-0.0019378429278731346
1761469126463250700,5.636250732421875,-0.023917468264698982,-0.033497340977191925,-0.011426592245697975
1761469126473205800,5.646205810546875,-0.03575921431183815,-0.017439013347029686,-0.01970183104276657
1761469126483161600,5.65616162109375,-0.04590011388063431,0.0001477568584959954,-0.020503396168351173
1761469126493117700,5.66611767578125,-0.051902081817388535,0.017769893631339073,-0.011557573452591896
1761469126503073800,5.67607373046875,-0.0520586222410202,0.03296642005443573,-0.001294518355280161
1761469126513028600,5.686028564453125,-0.05410446226596832,0.04170318692922592,0.007817220874130726
1761469126522984700,5.695984619140625,-0.05147342383861542,0.043751854449510574,0.012548686936497688
1761469126532940500,5.7059404296875,-0.050015874207019806,0.04246767610311508,0.009393907152116299
1761469126542895900,5.715895751953125,-0.043059054762125015,0.034439947456121445,0.0042032808996737
1761469126552851700,5.725851806640625,-0.03249695897102356,0.016859358176589012,-0.0025414410047233105
1761469126562807800,5.735807861328125,-0.026614446192979813,-0.00635216711089015,-0.0054716854356229305
1761469126572762600,5.7457626953125,-0.018307248130440712,-0.010406031273305416,-0.00676172086969018
1761469126582718700,5.75571875,-0.013501081615686417,-0.0002818158536683768,-0.006736407522112131
1761469126592674800,5.7656748046875,-0.007261828053742647,0.005768886301666498,-0.009380126371979713
1761469126602630700,5.775630615234375,-0.0026847117114812136,0.007892651483416557,-0.003857905976474285
1761469126612585700,5.785585693359375,0.0010791339445859194,0.0015751003520563245,0.003568052314221859
1761469126622541600,5.79554150390625,0.005471603013575077,-0.0008202010649256408,0.010994495823979378
1761469126632497700,5.80549755859375,0.0023879287764430046,0.00491678062826395,0.010894094593822956
1761469126642452700,5.81545263671875,-0.0009620259515941143,0.009316008538007736,0.00539244432002306
1761469126652408600,5.82540869140625,-0.0046430472284555435,0.01529587060213089,-0.00123882619664073
1761469126662364700,5.83536474609375,-0.005510054994374514,0.01684284582734108,-0.005515909753739834
1761469126672320500,5.845320556640625,-0.004643462598323822,0.01561779249459505,-0.001498531550168991
1761469126682275800,5.85527587890625,-0.0038519075606018305,0.00823439285159111,0.007176904007792473
1761469126692231700,5.865231689453125,-0.004220489412546158,-0.00407287385314703,0.014194067567586899
1761469126702187800,5.875187744140625,-0.004420266021043062,-0.016126934438943863,0.0157427079975605
1761469126712142600,5.885142578125,-0.008109808899462223,-0.027388110756874084,0.012591389939188957
1761469126722098700,5.8950986328125,-0.010498903691768646,-0.037141941487789154,0.010519997216761112
1761469126732054800,5.9050546875,-0.01434237789362669,-0.028318891301751137,0.0066730608232319355
1761469126742009600,5.915009521484375,-0.016247747465968132,-0.014440566301345825,0.0037944831419736147
1761469126751965700,5.924965576171875,-0.01575346477329731,0.006577633786946535,0.0022943243384361267
1761469126761921500,5.934921630859375,-0.006947934161871672,0.030386818572878838,0.006762338802218437
1761469126771878000,5.9448779296875,0.0006335526122711599,0.04258036985993385,0.00955279916524887
1761469126781832700,5.954832763671875,-0.0006262055248953402,0.041086345911026,0.016797618940472603
1761469126791788500,5.96478857421875,-0.009031674824655056,0.024922287091612816,0.01822507381439209
1761469126801744600,5.97474462890625,-0.015827998518943787,-0.0025402787141501904,0.020659657195210457
1761469126811699700,5.98469970703125,-0.01668846607208252,-0.024728406220674515,0.01814456842839718
1761469126821655800,5.99465576171875,-0.010209080763161182,-0.03193875402212143,0.016503671184182167
1761469126831611600,6.004611572265625,-0.0047631822526454926,-0.026441987603902817,0.016125502064824104
1761469126841566700,6.014566650390625,0.002211279235780239,-0.009028857573866844,0.01776820234954357
1761469126851522600,6.0245224609375,0.009355476126074791,0.0010906222742050886,0.020244408398866653
1761469126861479000,6.03447900390625,0.01623208075761795,0.006287887692451477,0.021862920373678207
1761469126871434800,6.044434814453125,0.021002069115638733,0.0029323045164346695,0.0163445845246315
1761469126881389600,6.0543896484375,0.02765827812254429,-0.0057007684372365475,-0.005286505911499262
1761469126891345700,6.064345703125,0.030715318396687508,-0.017924943938851357,-0.030453911051154137
1761469126901301500,6.074301513671875,0.034224722534418106,-0.02069701813161373,-0.04728754237294197
1761469126911256800,6.0842568359375,0.03438691049814224,-0.01199434045702219,-0.048041485249996185
1761469126921212700,6.094212646484375,0.03593047335743904,-0.002125840401276946,-0.041684865951538086
1761469126931168800,6.104168701171875,0.03509930148720741,0.006894286256283522,-0.02564730867743492
1761469126941124600,6.11412451171875,0.03278468921780586,0.012753667309880257,-0.01201070286333561
1761469126951079700,6.12407958984375,0.028000587597489357,0.018021931871771812,-0.003570346627384424
1761469126961035800,6.134035888671875,0.021294191479682922,0.03073490597307682,-0.001645882148295641
1761469126970991600,6.14399169921875,0.01372575480490923,0.049000732600688934,-0.0036429869942367077
1761469126980946700,6.15394677734375,0.009058117866516113,0.0553591325879097,-0.003879883326590061
1761469126990902800,6.16390283203125,0.003919548355042934,0.0426609143614769,-0.007592595648020506
1761469127000859000,6.17385888671875,0.0012194280279800296,0.03782019391655922,-0.00730220228433609
1761469127010813700,6.183813720703125,-0.0015113773988559842,0.02289796806871891,-0.003068575169891119
1761469127020769500,6.19376953125,-0.006509073078632355,-0.015181994065642357,0.0031859653536230326
1761469127030725600,6.2037255859375,-0.010683312080800533,-0.005557063035666943,0.007796163205057383
1761469127040681700,6.213681640625,-0.015731772407889366,-0.0015244444366544485,0.019766025245189667
1761469127050636800,6.22363671875,-0.01421856414526701,-0.004383880645036697,0.026968810707330704
1761469127060592600,6.233592529296875,-0.011979405768215656,0.0015291376039385796,0.023676330223679543
1761469127070548700,6.243548828125,-0.012537337839603424,0.008340971544384956,0.019702095538377762
1761469127080503800,6.25350390625,-0.011575227603316307,0.01981472037732601,0.009637804701924324
1761469127090459600,6.263459716796875,-0.003909585531800985,0.021893318742513657,-0.0016611889004707336
1761469127100415700,6.273415771484375,0.0006316605140455067,0.017698457464575768,-0.010339164175093174
1761469127110371600,6.28337158203125,0.00019170634914189577,0.011223780922591686,-0.013227628543972969
1761469127120326700,6.29332666015625,-0.002916488330811262,0.009089479222893715,-0.010912664234638214
1761469127130282800,6.30328271484375,-0.008287550881505013,0.01218567043542862,-0.00812167301774025
1761469127140238800,6.31323876953125,-0.012371774762868881,0.020413773134350777,-0.013700993731617928
1761469127150193700,6.323193603515625,-0.02079269103705883,0.02416137419641018,-0.016455501317977905
1761469127160149500,6.3331494140625,-0.028839409351348877,0.019818978384137154,-0.015295494347810745
1761469127170104800,6.343104736328125,-0.025632429867982864,0.015990417450666428,-0.0054769511334598064
1761469127180059600,6.3530595703125,-0.023893386125564575,0.005553756840527058,0.007433254737406969
1761469127190015700,6.363015625,-0.019093837589025497,-0.005785183981060982,0.02199328877031803
1761469127199971600,6.3729716796875,-0.014025607146322727,-0.011047432199120522,0.03837429732084274
1761469127209927700,6.382927734375,-0.009264407679438591,-0.0122109679505229,0.048245836049318314
1761469127219882800,6.3928828125,-0.005514762829989195,-0.009208889678120613,0.0456954687833786
1761469127229838800,6.4028388671875,-0.007002937141805887,-0.002052443102002144,0.0310137290507555
1761469127239794700,6.412794677734375,-0.008526148274540901,0.005539375822991133,0.012846928089857101
1761469127249749800,6.422749755859375,-0.011690249666571617,-0.00022743307636119425,-0.003961612470448017
1761469127259705900,6.432705810546875,-0.011137827299535275,-0.013615155592560768,-0.01587735116481781
1761469127269661700,6.44266162109375,-0.007284765597432852,-0.021416885778307915,-0.01629120483994484
1761469127279617800,6.45261767578125,-0.007123672403395176,-0.024246223270893097,-0.011432016268372536
1761469127289572600,6.462572509765625,-0.005278368014842272,-0.017657827585935593,-0.002918955869972706
1761469127299529000,6.472529052734375,-0.005708789918571711,-0.007550859823822975,0.008080136962234974
1761469127309484800,6.48248486328125,-0.007658223621547222,0.0008548755431547761,0.012017354369163513
1761469127319439600,6.492439697265625,-0.010351274162530899,0.008875299245119095,0.01531762070953846
1761469127329395700,6.502395751953125,-0.011835187673568726,0.010182112455368042,0.015700848773121834
1761469127339351600,6.5123515625,-0.01717665046453476,-0.0018358719535171986,0.015909893438220024
1761469127349307600,6.5223076171875,-0.018364153802394867,-0.01680656522512436,0.016812173649668694
1761469127359262700,6.5322626953125,-0.022178635001182556,-0.022979723289608955,0.014572547748684883
1761469127369218800,6.54221875,-0.02322392538189888,-0.01126767322421074,0.011763178743422031
1761469127379174700,6.552174560546875,-0.025554606691002846,0.008200779557228088,0.0034418185241520405
1761469127389129700,6.562129638671875,-0.028379954397678375,0.01994212344288826,-0.008689146488904953
1761469127399085800,6.5720859375,-0.034658148884773254,0.025831330567598343,-0.025709252804517746
1761469127409041700,6.582041748046875,-0.03944145143032074,0.03356488421559334,-0.035317935049533844
1761469127418996700,6.591996826171875,-0.038987405598163605,0.018346628174185753,-0.028269018977880478
1761469127428952600,6.60195263671875,-0.03714077174663544,-0.014683227986097336,-0.013791808858513832
1761469127438909000,6.611908935546875,-0.02630135603249073,-0.03486146777868271,0.0029006642289459705
1761469127448864800,6.62186474609375,-0.021944958716630936,-0.03794407844543457,0.01749505288898945
1761469127458819600,6.631819580078125,-0.016999049112200737,-0.037277061492204666,0.028337441384792328
1761469127468775700,6.641775634765625,-0.022657467052340508,-0.03097628802061081,0.03123283013701439
1761469127478731500,6.6517314453125,-0.03256818652153015,-0.024641532450914383,0.028815917670726776
1761469127488686800,6.661686767578125,-0.04146713763475418,-0.01842731237411499,0.02420465275645256
1761469127498642700,6.671642578125,-0.04417691007256508,-0.010760449804365635,0.018565064296126366
1761469127508598800,6.681598876953125,-0.0447755865752697,-0.009263752959668636,0.015088306739926338
1761469127518554600,6.6915546875,-0.044434111565351486,-0.010139294900000095,0.010489137843251228
1761469127528509700,6.701509765625,-0.04373449832201004,-0.0006384676089510322,0.005949513055384159
1761469127538465800,6.7114658203125,-0.0400799922645092,0.01607467792928219,0.005363570060580969
1761469127548421600,6.721421630859375,-0.03428788483142853,0.016372153535485268,0.00911436602473259
1761469127558376700,6.731376708984375,-0.030308106914162636,-0.001077563501894474,0.01502317190170288
1761469127568332800,6.741332763671875,-0.027887826785445213,-0.02653392031788826,0.017513226717710495
1761469127578289000,6.751288818359375,-0.024109667167067528,-0.0387222021818161,0.011669982224702835
1761469127588243700,6.76124365234375,-0.016977721825242043,-0.03744495287537575,-0.0035041761584579945
1761469127598199800,6.77119970703125,-0.010358492843806744,-0.02917780727148056,-0.014792359434068203
1761469127608155600,6.78115576171875,0.0003229136345908046,-0.027416657656431198,-0.017414242029190063
1761469127618111700,6.79111181640625,0.011395064182579517,-0.037184495478868484,-0.014739520847797394
1761469127628066800,6.80106689453125,0.020972590893507004,-0.03945617005228996,-0.014400500804185867
1761469127638022700,6.811022705078125,0.019453203305602074,-0.040421828627586365,-0.01660189777612686
1761469127647978800,6.820978759765625,0.01125066727399826,-0.024661507457494736,-0.019323915243148804
1761469127657933800,6.830933837890625,0.0036013824865221977,-0.007960457354784012,-0.021109959110617638
1761469127667890000,6.840889892578125,-0.0008207964128814638,0.012206596322357655,-0.024144897237420082
1761469127677845800,6.850845703125,-0.0029567922465503216,0.027163874357938766,-0.026878520846366882
1761469127687801900,6.8608017578125,-0.0019298773258924484,0.01905428245663643,-0.021356988698244095
1761469127697756700,6.870756591796875,-0.0021348861046135426,0.0012470531510189176,-0.015849009156227112
1761469127707712800,6.880712646484375,0.0017477362416684628,-0.00926124770194292,-0.006950320675969124
1761469127717668900,6.8906689453125,0.011684872210025787,-0.008930227719247341,0.0010988605208694935
1761469127727623700,6.900623779296875,0.01729268953204155,-0.007252436131238937,0.001915385597385466
1761469127737579800,6.910579833984375,0.011340190656483173,-0.01798917166888714,0.0031635358463972807
1761469127747535600,6.92053564453125,0.005041282158344984,-0.021199611946940422,0.005646667443215847
1761469127757491700,6.93049169921875,-0.00021391233894973993,-0.009071413427591324,0.017105121165513992
1761469127767446800,6.94044677734375,-0.0030882619321346283,0.004422556608915329,0.029047267511487007
1761469127777402600,6.950402587890625,-0.010028490796685219,0.005646704696118832,0.037404973059892654
1761469127787358700,6.960358642578125,-0.009513968601822853,0.0008681947365403175,0.0350230410695076
1761469127797313800,6.970313720703125,-0.009766682982444763,0.003614753484725952,0.021632255986332893
1761469127807270000,6.980269775390625,-0.008718462660908699,0.016615772619843483,0.0067369285970926285
1761469127817225700,6.990225830078125,-0.0024336029309779406,0.027401641011238098,-0.003074685111641884
1761469127827181800,7.000181884765625,0.0012641963548958302,0.03160703554749489,-0.005705622024834156
1761469127837136600,7.01013671875,0.004247645381838083,0.03036392480134964,-0.0012077470310032368
1761469127847092700,7.0200927734375,0.009433086030185223,0.02049851045012474,0.008261121809482574
1761469127857048800,7.030048828125,0.009362215176224709,0.008540277369320393,0.018544822931289673
1761469127867003600,7.040003662109375,0.008034628815948963,0.000018162012565881014,0.02549753710627556
1761469127876959700,7.049959716796875,0.0022953408770263195,-0.0010727203916758299,0.020434007048606873
1761469127886915600,7.05991552734375,-0.0009230893338099122,0.0007576701464131474,0.013489017263054848
1761469127896871000,7.069870849609375,-0.0023290622048079967,0.004536481108516455,0.00237384345382452
1761469127906826800,7.07982666015625,-0.002013211138546467,0.006000154186040163,-0.005934153683483601
1761469127916782600,7.089782470703125,-0.004221594426780939,-0.005540070123970509,-0.007501095999032259
1761469127926738700,7.09973876953125,-0.00029742647893726826,0.0008845396805554628,-0.0012397379614412785
1761469127936693800,7.10969384765625,-0.0007301863515749574,0.007817658595740795,0.0016416165744885802
1761469127946649900,7.11964990234375,0.004475228488445282,0.010679757222533226,0.0015255027683451772
1761469127956605700,7.129605712890625,0.005391621962189674,0.016942979767918587,-0.0032625943422317505
1761469127966560800,7.139560791015625,0.0019021681509912014,0.01883632503449917,-0.010269513353705406
1761469127976516600,7.1495166015625,-0.005198257509618998,0.01420780923217535,-0.019728777930140495
1761469127986473000,7.159472900390625,-0.013311044313013554,0.01306238304823637,-0.027893230319023132
1761469127996428800,7.1694287109375,-0.01999141275882721,0.021099744364619255,-0.028512433171272278
1761469128006383600,7.179383544921875,-0.025493236258625984,0.021877121180295944,-0.01985769346356392
1761469128016339700,7.189339599609375,-0.026065310463309288,0.012193604372441769,-0.0011037266813218594
1761469128026295600,7.199295654296875,-0.02470177225768566,-0.0009863798040896654,0.008915351703763008
1761469128036251000,7.2092509765625,-0.030740106478333473,-0.022660836577415466,0.01422831043601036
1761469128046206700,7.219206787109375,-0.03593912720680237,-0.04842532426118851,0.018217725679278374
1761469128056162800,7.229162841796875,-0.040705978870391846,-0.058425065129995346,0.0185244120657444
1761469128066118700,7.23911865234375,-0.04412255063652992,-0.046498097479343414,0.019994743168354034
1761469128076073700,7.24907373046875,-0.045041777193546295,-0.01510150358080864,0.02103339321911335
1761469128086029800,7.25902978515625,-0.04409981891512871,0.0010010335827246308,0.027486765757203102
1761469128095985700,7.268985595703125,-0.040541138499975204,-0.00774613581597805,0.037292346358299255
1761469128105940700,7.278940673828125,-0.044513240456581116,-0.02494775876402855,0.038006607443094254
1761469128115896600,7.288896484375,-0.05329294130206108,-0.02181347645819187,0.028960619121789932
1761469128125853000,7.29885302734375,-0.06851956248283386,-0.0056355721317231655,0.021167941391468048
1761469128135808800,7.308808837890625,-0.08230293542146683,0.005990140605717897,0.01543089933693409
1761469128145763600,7.318763671875,-0.08728331327438354,0.007687373086810112,0.015093741938471794
1761469128155719700,7.3287197265625,-0.08140747994184494,-0.0016661230474710464,0.02076975628733635
1761469128165675500,7.338675537109375,-0.07230719178915024,-0.005452339071780443,0.023526394739747047
1761469128175631400,7.34863134765625,-0.05457673221826553,-0.000251934165135026,0.018941041082143784
1761469128185587200,7.358587158203125,-0.04403913766145706,-0.014193315990269184,0.009897477924823761
1761469128195543300,7.368543212890625,-0.04020954295992851,-0.02473219856619835,0.006711895111948252
1761469128205499100,7.3784990234375,-0.03652479127049446,-0.01764046773314476,0.007149718701839447
1761469128215454500,7.388454345703125,-0.0348963588476181,0.001674272702075541,0.010752852074801922
1761469128225410300,7.398410400390625,-0.029445664957165718,0.0028652383480221033,0.018061630427837372
1761469128235366400,7.408366455078125,-0.031094633042812347,-0.012528946623206139,0.022285595536231995
1761469128245321200,7.4183212890625,-0.03638393431901932,-0.027110286056995392,0.01678563468158245
1761469128255277000,7.428277099609375,-0.03514380007982254,-0.027458006516098976,0.007344362325966358
1761469128265233200,7.438233154296875,-0.031200455501675606,-0.01131578627973795,-0.004964502062648535
1761469128275188200,7.448188232421875,-0.023842817172408104,0.00858139619231224,-0.01441834308207035
1761469128285144300,7.458144287109375,-0.014300445094704628,0.025457847863435745,-0.02874401956796646
1761469128295100200,7.46810009765625,-0.01370395626872778,0.03769656643271446,-0.03930675610899925
1761469128305056300,7.47805615234375,-0.01223575510084629,0.04338454455137253,-0.045768652111291885
1761469128315011300,7.48801123046875,-0.012367647141218185,0.04425746202468872,-0.045236025005578995
1761469128324967200,7.49796728515625,-0.009944169782102108,0.03721845895051956,-0.033690955489873886
1761469128334923300,7.50792333984375,-0.0029892351012676954,0.024912474676966667,-0.01580229587852955
1761469128344878000,7.517878173828125,0.007708150427788496,0.016105934977531433,-0.0020121829584240913
1761469128354834400,7.52783447265625,0.0148422010242939,0.002710884204134345,0.0049421959556639194
1761469128364790300,7.537790283203125,0.017150895670056343,0.006961022969335318,0.004503306932747364
1761469128374746400,7.547746337890625,0.018636642023921013,0.007565450854599476,0.007168503478169441
1761469128384701200,7.557701171875,0.02017701417207718,-0.017747895792126656,0.011090807616710663
1761469128394657000,7.567656982421875,0.0209090244024992,-0.03666812181472778,0.02046165242791176
1761469128404613400,7.57761328125,0.025043582543730736,-0.030522076413035393,0.033199287950992584
1761469128414568200,7.587568115234375,0.029649587348103523,-0.013416416011750698,0.042549196630716324
1761469128424524300,7.597524169921875,0.035551417618989944,0.00009752856567502022,0.046469636261463165
1761469128434480000,7.607480224609375,0.040195874869823456,0.003293415531516075,0.04208704084157944
1761469128444436200,7.617436279296875,0.03394357115030289,-0.006306747440248728,0.024190863594412804
1761469128454391300,7.627391357421875,0.028507113456726074,-0.013706661760807037,0.0020050862804055214
1761469128464347100,7.63734716796875,0.029036816209554672,0.0008461815887130797,-0.015434091910719872
1761469128474303200,7.64730322265625,0.03652006760239601,0.020926905795931816,-0.01836232841014862
1761469128484258000,7.657258056640625,0.04254839941859245,0.02768281288444996,-0.006996489129960537
1761469128494214400,7.66721435546875,0.03934165835380554,0.03063386306166649,0.007969129830598831
1761469128504170200,7.677170166015625,0.03192901611328125,0.02022436633706093,0.013836340978741646
1761469128514126300,7.687126220703125,0.025583505630493164,0.0026564011350274086,0.0065084658563137054
1761469128524081200,7.6970810546875,0.01253135409206152,-0.006961072329431772,-0.004977481439709663
1761469128534037200,7.707037353515625,0.0032789050601422787,-0.014988696202635765,-0.007154899649322033
1761469128543993300,7.716993408203125,0.0038131349720060825,-0.01785319298505783,-0.004372694995254278
1761469128553948200,7.7269482421875,0.010674852877855301,-0.0054615153931081295,0.00156033830717206
1761469128563904300,7.736904296875,0.011656227521598339,0.015154280699789524,0.001938240951858461
1761469128573860000,7.746860107421875,0.008417411707341671,0.03973052278161049,-0.0016806954517960548
1761469128583816200,7.756816162109375,0.005928421393036842,0.06114420294761658,-0.003679930232465267
1761469128593771300,7.766771240234375,0.007793789263814688,0.06301262974739075,-0.006685635540634394
1761469128603727400,7.776727294921875,0.014073523692786694,0.03990544378757477,-0.01657475158572197
1761469128613683200,7.78668310546875,0.01876569166779518,-0.0025085886009037495,-0.02363721840083599
1761469128623638300,7.79663818359375,0.024620385840535164,-0.040618956089019775,-0.021199360489845276
1761469128633594400,7.806594482421875,0.03594940900802612,-0.05667628347873688,-0.015979301184415817
1761469128643550200,7.81655029296875,0.04565982520580292,-0.05409381911158562,-0.0041444809176027775
1761469128653506300,7.82650634765625,0.048496562987565994,-0.03745514154434204,0.011675837449729443
1761469128663461000,7.836461181640625,0.04232228919863701,-0.01879303902387619,0.026942674070596695
1761469128673417200,7.846417236328125,0.037203043699264526,-0.0098800677806139,0.03770703077316284
1761469128683373300,7.856373291015625,0.03433801606297493,-0.009779400192201138,0.035456929355859756
1761469128693328100,7.866328125,0.032676856964826584,-0.03421475738286972,0.032436858862638474
1761469128703284200,7.8762841796875,0.024547023698687553,-0.07999955862760544,0.025716103613376617
1761469128713240000,7.886239990234375,0.02248772233724594,-0.1362105756998062,0.013046147301793098
1761469128723196200,7.896196044921875,0.03522082790732384,-0.14379605650901794,-0.008188299834728241
1761469128733151200,7.906151123046875,0.04661735147237778,-0.10233265906572342,-0.01724027469754219
1761469128743107300,7.916107421875,0.06195582449436188,-0.04651573300361633,-0.02216446027159691
1761469128753063200,7.926063232421875,0.06017378717660904,-0.022184353321790695,-0.02760240249335766
1761469128763018200,7.936018310546875,0.05189508572220802,-0.0447932593524456,-0.036973536014556885
1761469128772974300,7.945974365234375,0.08621885627508163,-0.05419629067182541,-0.06569860875606537
1761469128782930200,7.95593017578125,0.09789974242448807,-0.0942574217915535,-0.09208787232637405
1761469128792886300,7.96588623046875,0.11451508849859238,-0.16136637330055237,-0.10948784649372101
1761469128802841000,7.975841064453125,0.13718737661838531,-0.20399825274944305,-0.11810263991355896
1761469128812797200,7.985797119140625,0.1463942974805832,-0.21025057137012482,-0.10928300023078918
1761469128825863200,7.99886328125,0.13814063370227814,-0.186456561088562,-0.05552389845252037
1761469128835818200,8.008818359375,0.12773895263671875,-0.20048420131206512,-0.007697071880102158
1761469128845774000,8.018774169921874,0.11308544874191284,-0.21540243923664093,0.027161575853824615
1761469128855730200,8.028730224609374,0.10222429782152176,-0.21368815004825592,0.03048308566212654
1761469128865686300,8.038686279296876,0.08594173192977905,-0.20587976276874542,0.006868037395179272
1761469128875641300,8.048641357421875,0.06334318965673447,-0.1933669000864029,-0.028440967202186584
1761469128885597200,8.05859716796875,0.04042535647749901,-0.16324947774410248,-0.06339921057224274
1761469128895553300,8.06855322265625,0.015524884685873985,-0.12857140600681305,-0.06956252455711365
1761469128905508400,8.07850830078125,0.004856260959059,-0.09789206087589264,-0.061730965971946716
1761469128915464200,8.088464111328125,0.005917292088270187,-0.08295492827892303,-0.042310915887355804
1761469128925420300,8.098420166015625,-0.007365756202489138,-0.08511342108249664,0.005759406369179487
1761469128935376100,8.108376220703125,-0.01579895243048668,-0.08000318706035614,0.05482592433691025
1761469128945331500,8.11833154296875,-0.007183626759797335,-0.05868218466639519,0.08542431145906448
1761469128955287300,8.128287353515624,0.0065358104184269905,-0.03483147919178009,0.09746509790420532
1761469128965243400,8.138243408203126,0.01872216910123825,-0.02736344188451767,0.09523177146911621
1761469128975198200,8.1481982421875,0.025156117975711823,-0.025196917355060577,0.07004478573799133
1761469128985154000,8.158154052734375,0.02514626458287239,-0.0331142283976078,0.0339680053293705
1761469128995110400,8.1681103515625,0.022126033902168274,-0.032187074422836304,-0.009845147840678692
1761469129005066200,8.178066162109374,0.01418528612703085,-0.04105726629495621,-0.05157741531729698
1761469129015021300,8.188021240234375,0.008986705914139748,-0.04799821227788925,-0.07832640409469604
1761469129024977200,8.19797705078125,0.0024584990460425615,-0.04268893599510193,-0.08780619502067566
1761469129034933200,8.207933349609375,-0.0014827745035290718,-0.0473848395049572,-0.08026058971881866
1761469129044888300,8.217888427734374,0.0016299281269311905,-0.05557139590382576,-0.06423315405845642
1761469129054844200,8.22784423828125,-0.0023983591236174107,-0.05227672681212425,-0.03882049396634102
1761469129064800300,8.23780029296875,-0.0032146177254617214,-0.027342619374394417,0.006574151571840048
1761469129074756000,8.247756103515625,0.012302376329898834,-0.0027610042598098516,0.032527580857276917
1761469129084711400,8.25771142578125,0.02606000006198883,-0.0173034630715847,0.03743898123502731
1761469129094667300,8.267667236328125,0.029292013496160507,-0.02691054902970791,0.03761421516537666
1761469129104623400,8.277623291015624,0.04567524790763855,-0.028942542150616646,0.021490909159183502
1761469129114578200,8.287578125,0.06469663232564926,-0.058375533670186996,-0.007064289879053831
1761469129124534000,8.297533935546875,0.05212145671248436,-0.09613116830587387,-0.018364349380135536
1761469129135113200,8.30811328125,0.03289082273840904,-0.11612123996019363,-0.0075418464839458466
1761469129145069000,8.318069091796875,0.03608235344290733,-0.1249576136469841,-0.007387916557490826
1761469129155024400,8.3280244140625,0.04087376594543457,-0.1296018362045288,-0.008079239167273045
1761469129164980200,8.337980224609375,0.03809262812137604,-0.09762685745954514,-0.011383157223463058
1761469129174936800,8.347936767578124,0.031844232231378555,-0.050828833132982254,-0.02053949423134327
1761469129184891600,8.3578916015625,0.025478746742010117,-0.018895132467150688,-0.02186148799955845
1761469129194847500,8.367847412109375,0.028982900083065033,-0.007413140963762999,-0.03471780940890312
1761469129204803600,8.377803466796875,0.03277470916509628,-0.008332996629178524,-0.053867798298597336
1761469129214759700,8.387759765625,0.032219380140304565,-0.0021907873451709747,-0.08065851032733917
1761469129224714800,8.39771484375,0.031807124614715576,0.0019245953299105167,-0.11973374336957932
1761469129234670600,8.407670654296876,0.027854369953274727,0.009441416710615158,-0.16351471841335297
1761469129244626700,8.417626708984375,0.018535170704126358,0.021205132827162743,-0.19763407111167908
1761469129254581800,8.427581787109375,0.005846126936376095,0.04202205687761307,-0.21196477115154266
1761469129264537600,8.43753759765625,0.009038458578288555,0.06344851851463318,-0.19711685180664062
1761469129274493700,8.44749365234375,0.01644202508032322,0.08044876903295517,-0.17195862531661987
1761469129284449500,8.457449462890626,0.027172965928912163,0.0820288211107254,-0.14593102037906647
1761469129294404900,8.46740478515625,0.03987182676792145,0.07599024474620819,-0.14005158841609955
1761469129304360700,8.477360595703125,0.04777529090642929,0.08242443948984146,-0.1557069718837738
1761469129314316800,8.48731689453125,0.049762871116399765,0.09294133633375168,-0.17668095231056213
1761469129324271600,8.497271728515624,0.04437369853258133,0.09375093877315521,-0.19238480925559998
1761469129334227700,8.507227783203126,0.03832731395959854,0.06943733245134354,-0.1886153519153595
1761469129344183800,8.517183837890625,0.02928321808576584,0.04208533838391304,-0.17213837802410126
1761469129354140000,8.527139892578125,0.01769290305674076,0.0259361881762743,-0.14256662130355835
1761469129364094700,8.5370947265625,0.017470261082053185,0.021506818011403084,-0.11418025195598602
1761469129374050600,8.547050537109374,0.018840285018086433,0.023739412426948547,-0.09117212146520615
1761469129384006700,8.557006591796876,0.019467726349830627,0.006965226028114557,-0.07495266944169998
1761469129393961700,8.566961669921875,0.0249798446893692,-0.021355044096708298,-0.06272017955780029
1761469129403917800,8.576917724609375,0.031259313225746155,-0.02913626842200756,-0.04748236760497093
1761469129413873700,8.586873779296875,0.03994225338101387,-0.0076814210042357445,-0.024985674768686295
1761469129423829800,8.596829833984375,0.044308505952358246,-0.011064434424042702,0.00825643353164196
1761469129433784800,8.606784912109376,0.04821071773767471,-0.030135393142700195,0.02964930608868599
1761469129443740700,8.61674072265625,0.05719675496220589,-0.07115712761878967,0.04842672124505043
1761469129453696800,8.62669677734375,0.06407016515731812,-0.08386444300413132,0.05672825127840042
1761469129463652600,8.636652587890625,0.05668468773365021,-0.07927155494689941,0.05575140565633774
1761469129473607700,8.646607666015624,0.05268310755491257,-0.07543076574802399,0.05315139889717102
1761469129483563800,8.656563720703126,0.05360056459903717,-0.06914889812469482,0.03902759402990341
1761469129493520000,8.666519775390626,0.03951093554496765,-0.06332036107778549,0.024918371811509132
1761469129503474700,8.676474609375,0.02602841705083847,-0.052075956016778946,0.017104124650359154
1761469129513430500,8.686430419921875,0.016577832400798798,-0.049359071999788284,0.011888835579156876
1761469129523386600,8.69638671875,0.013926123268902302,-0.04748660326004028,0.011886171996593475
1761469129533342700,8.7063427734375,0.01824752241373062,-0.03717096894979477,0.013373041525483131
1761469129543297800,8.7162978515625,0.03009113296866417,-0.02574254758656025,0.0023440925870090723
1761469129553253600,8.726253662109375,0.0336245559155941,-0.016061795875430107,-0.02197866700589657
1761469129563209700,8.736209716796875,0.028490249067544937,-0.01818007417023182,-0.03915072977542877
1761469129573164800,8.746164794921874,0.028118113055825233,-0.03837648779153824,-0.04772958904504776
1761469129583120600,8.75612060546875,0.041965220123529434,-0.0753699243068695,-0.05476725846529007
1761469129593076700,8.76607666015625,0.04856976494193077,-0.12190595269203186,-0.05110801383852959
1761469129603032600,8.776032470703125,0.05879044532775879,-0.13675814867019653,-0.050491489470005035
1761469129612987600,8.785987548828125,0.059275589883327484,-0.12470130622386932,-0.062358926981687546
1761469129622943700,8.79594384765625,0.05739353597164154,-0.07944487780332565,-0.07506486773490906
1761469129632899800,8.80589990234375,0.05091293528676033,-0.03222645819187164,-0.07486291974782944
1761469129642855700,8.815855712890626,0.04190053045749664,-0.023852679878473282,-0.06479404121637344
1761469129652810500,8.825810546875,0.030332382768392563,-0.04051665961742401,-0.0384485237300396
1761469129662766600,8.8357666015625,0.015307359397411346,-0.0441710501909256,-0.000857736449688673
1761469129672722700,8.84572265625,0.006976759526878595,-0.02912476286292076,0.03326818719506264
1761469129682677800,8.855677734375,-0.0013008778914809227,0.006322710774838924,0.050760362297296524
1761469129692633600,8.865633544921875,-0.003940429072827101,0.031528666615486145,0.05625896900892258
1761469129702589700,8.875589599609375,0.0055444189347326756,0.054224658757448196,0.052827488631010056
1761469129712545500,8.885545654296875,0.01395701989531517,0.0797261893749237,0.03266778215765953
1761469129722500900,8.8955009765625,0.0048567322082817554,0.08658595383167267,0.022755760699510574
1761469129732456700,8.905456787109374,-0.002728273393586278,0.07268958538770676,0.0033053369261324406
1761469129742412800,8.915412841796876,-0.011810718104243279,0.06446334719657898,-0.01970783807337284
1761469129752367600,8.92536767578125,-0.02025885321199894,0.060784466564655304,-0.04583960399031639
1761469129762323700,8.93532373046875,-0.02153264358639717,0.0825241208076477,-0.07248026132583618
1761469129772279800,8.94527978515625,-0.015098894014954567,0.1262068748474121,-0.09930677711963654
1761469129782235600,8.955235595703124,-0.008753648027777672,0.14038261771202087,-0.11439970880746841
1761469129792190700,8.965190673828126,-0.0005082987481728196,0.11785740405321121,-0.11660543084144592
1761469129802146600,8.975146484375,0.006736830808222294,0.06872633844614029,-0.09216640144586563
1761469129812103000,8.98510302734375,0.004227988421916962,0.0014473504852503538,-0.033957839012145996
1761469129822058800,8.995058837890625,0.007412595674395561,-0.006101645994931459,0.03646359592676163
