time,seconds_elapsed,z,y,x
1761467615920689200,0.058689208984375,-0.006048632514476775,-0.004431644038204103,0.022236548407527153
1761467615930642200,0.06864208984375,0.005323825371265411,-0.006392066524131223,0.018772705938573924
1761467615940595200,0.07859521484375,0.0006879822641611098,-0.0025760610330849885,0.035851106681232335
1761467615950548000,0.0885478515625,-0.013374445357918738,-0.020909772766195236,0.022838861682231072
1761467615960501000,0.0985009765625,-0.0019990648627281186,-0.0067979439112823455,0.029188073162036015
1761467615970454000,0.1084541015625,0.023290859216451642,0.013036838300852104,0.01973834751677932
1761467615980408000,0.118407958984375,-0.005139700976014137,0.028086139802122486,0.01503435966046527
1761467615990361000,0.128361083984375,-0.000052022448182106015,0.028381076761242,0.023638825554039792
1761467616000314000,0.138314208984375,0.012815057909488677,0.023104223203705622,0.020758057369780727
1761467616010267100,0.14826708984375,-0.010230302113294601,0.005048588626459241,0.027097818317939525
1761467616020220200,0.15822021484375,-0.01441957049667835,-0.005180370913119986,0.03255472516709706
1761467616030173200,0.168173095703125,-0.005144377151131629,-0.013143860605591907,0.029297623067290987
1761467616040126200,0.178126220703125,0.0030851065337657926,0.01219683467959985,0.020829985528253016
1761467616050079200,0.188079345703125,-0.006789806270599365,0.017936556508531792,0.01875630964291049
1761467616060032300,0.1980322265625,-0.010679214924573898,0.020511704226164145,0.016828515351528767
1761467616069985000,0.207985107421875,0.004136661413311958,0.011251607985049485,0.031527026087173726
1761467616079938000,0.21793798828125,0.009225508984923362,-0.0018475458291359245,0.029403184067306572
1761467616089892000,0.22789208984375,-0.0031938276052474973,-0.0028155140784569084,0.011711307051824405
1761467616099844900,0.237844970703125,0.010721885022521018,-0.0017591368933208287,0.03791689608764136
1761467616109798000,0.2477978515625,0.009522446104884147,0.009118925071600824,0.01166815517997602
1761467616119751000,0.2577509765625,0.009672083708643912,0.01523414741572924,0.006595331727981101
1761467616129704000,0.267703857421875,0.0023398411244153973,0.019715640211338176,0.014018088440143036
1761467616139657000,0.277656982421875,0.002042319482564926,0.004500699819577857,0.018963294323941227
1761467616149610000,0.28760986328125,0.0048860184758901595,-0.0091715959737543,0.014495528659585397
1761467616159563000,0.29756298828125,-0.0037941315859556196,-0.007162457241583615,0.025925176075682975
1761467616169516000,0.30751611328125,-0.025043255841732025,0.014078319310955703,0.028327419478399677
1761467616179469000,0.317468994140625,0.008624035960435867,0.019368489007791503,0.022207096267468293
1761467616189423000,0.327423095703125,-0.0011029928058385848,0.016983383969543502,0.008058337502228096
1761467616199376100,0.337376220703125,-0.003944353711605072,0.014633213247358797,0.016113498949969652
1761467616209329200,0.3473291015625,-0.006486439409852027,0.011221843034448101,0.03823386906534433
1761467616219282200,0.3572822265625,-0.007684124761819839,-0.01299896310903132,0.01964337869272567
1761467616229235000,0.36723486328125,0.00009469254612922667,-0.00013681465480476618,0.035423104227241126
1761467616239188000,0.37718798828125,-0.015617255848646164,0.008824819229543208,0.017181607672094833
1761467616249141000,0.38714111328125,-0.0006517419070005417,0.024844536665547638,0.017959747871162834
1761467616259094000,0.397093994140625,0.015808979028463364,0.024038216118188575,0.009530533513217233
1761467616269047000,0.407047119140625,-0.005437807139754295,0.016305329444352538,0.014908902083314022
1761467616279000000,0.417,-0.003492518290877342,-0.006763731114426627,0.020503756098437586
1761467616288953000,0.426953125,-0.0006494038194417953,-0.0111278172085993,0.019132976918597704
1761467616298907100,0.4369072265625,-0.010677461358904837,-0.0027952384754084047,0.016880352853331716
1761467616308860200,0.446860107421875,-0.008134791138768195,0.006385353655554354,0.024616828856896606
1761467616318813200,0.456813232421875,-0.01037935519516468,0.020439808033732697,0.015143137814162764
1761467616328766200,0.46676611328125,0.0006944120049476623,0.014256790283555164,0.013270663039747159
1761467616338719200,0.47671923828125,-0.0008007949888706207,0.02047086989227682,0.0188793720502872
1761467616348672300,0.48667236328125,-0.01696107167303562,-0.006213394622132181,0.02932083041294245
1761467616358625000,0.496625,-0.0063385553717613214,-0.0013470032953191548,0.021611509561073033
1761467616368578000,0.506578125,0.011318097350001334,-0.0014621358412783593,0.018600936418108175
1761467616378531000,0.516531005859375,-0.011727262672781943,0.00864336171541363,0.01880386597852921
1761467616388484000,0.526484130859375,-0.023249358162283896,0.02240099770464003,0.0219471963724005
1761467616398438000,0.53643798828125,0.000993102690577507,0.009443215989368035,0.01697886762463022
1761467616408391000,0.546390869140625,0.007577157256007194,0.006132118680002167,0.006013348855252843
1761467616418344000,0.556343994140625,0.0038368016839027404,0.005483408980304375,0.01608448520132806
1761467616428297000,0.566296875,0.003984685721993446,-0.00490509763569571,0.024716850598691963
1761467616438250000,0.57625,0.001589315018057823,0.003055094987992197,0.02565321128348587
1761467616448203000,0.586203125,-0.004845101943612098,0.010255363489314913,0.019599923143489285
1761467616458156000,0.596156005859375,-0.012326982131600378,0.013362946716370061,0.02727397860244382
1761467616468109000,0.606109130859375,-0.013224223232269286,0.007913239076267927,0.026778975326847282
1761467616478062000,0.61606201171875,-0.00514262358546257,0.008441628598235548,0.022012098851753398
1761467616488014800,0.626014892578125,-0.009631167176365852,-0.007425464692478999,0.018750937064760363
1761467616497969200,0.63596923828125,-0.01352116035223007,-0.0010493811887688934,0.02345840921952622
1761467616507922000,0.645921875,0.0008422960430383682,0.0020218064174987375,0.0054147984402137805
1761467616517875000,0.655875,-0.0005044423907995223,0.019811574866482988,0.008495648923970292
1761467616527828000,0.665827880859375,-0.008285013264417648,0.0166439868141897,0.013927001206763087
1761467616537781000,0.675781005859375,-0.013971826729178427,0.008553491474874317,0.013357069531432352
1761467616547734000,0.685734130859375,0.007128828966617584,0.004984218153357506,0.012532663054822478
1761467616557687000,0.69568701171875,-0.0016997896552085876,-0.001303812607564032,0.0236884048833861
1761467616567640000,0.70564013671875,-0.013072247540950774,-0.0029924780805595215,0.013178881686623208
1761467616577593000,0.715593017578125,-0.0025976152777671814,0.002220607792073861,0.008622663703968282
1761467616587546000,0.725546142578125,-0.00663841510117054,0.012004627442592754,0.00634976631894242
1761467616597500200,0.735500244140625,-0.0027466683596372604,0.017448772991588337,0.012054314086504746
1761467616607453200,0.745453125,0.011468903997540473,0.004272005630237981,0.005923005973966792
1761467616617406200,0.75540625,0.002041150438785553,0.009096603641938417,0.018615170439437497
1761467616627359200,0.765359130859375,-0.0011018237620592116,-0.011972213877178728,0.034715424032055305
1761467616637312000,0.77531201171875,-0.01741466065943241,-0.0033098369340412315,0.02479825212169671
1761467616647265000,0.78526513671875,-0.0002063362270593643,0.007901521239010617,0.009971192236093338
1761467616657218000,0.795218017578125,-0.0030488661766052243,0.017919943300448358,0.001194771875673905
1761467616667171000,0.805171142578125,-0.014271101936697958,0.013238607950648292,0.017033981645619495
1761467616677124000,0.8151240234375,-0.017713351345062255,0.0007067782961763441,0.014910055144072974
1761467616687077000,0.8250771484375,0.004581482571363449,-0.005813307654950767,0.019794653414434288
1761467616697030100,0.835030029296875,-0.0008048866420984267,0.0022115020370110866,0.018758051792136392
1761467616706984000,0.84498388671875,-0.009184592452645302,0.011610778419952839,0.0078763799478882
1761467616716937000,0.85493701171875,-0.004696048861742019,0.016457551730843258,0.01633499393025413
1761467616726890000,0.864889892578125,0.002187280911207199,0.005983092997595667,0.0049852410666644574
1761467616736843000,0.874843017578125,-0.006342062503099441,0.009720306764543055,0.009951055913651361
1761467616746796000,0.884796142578125,-0.011129296779632567,-0.0011428224927280098,0.011679975765221751
1761467616756749000,0.8947490234375,-0.004994739547371864,-0.008277030887361616,0.014072097349434624
1761467616766701800,0.904701904296875,0.006078443130850791,-0.0020156689376570284,0.019399651331035418
1761467616776654800,0.91465478515625,-0.0026005378872156143,-0.010103725724713877,0.022189197567885274
1761467616786607900,0.92460791015625,-0.001402268013358116,0.009137757636234164,0.010693921586649958
1761467616796561000,0.934560791015625,0.008923311167955398,0.008187964364420623,0.012341971921466756
1761467616806514000,0.944513916015625,0.0006926584392786026,-0.003289068140648305,0.00610894786696881
1761467616816468000,0.954468017578125,-0.0037970541954040525,0.007977956609241664,0.023816805619583464
1761467616826421000,0.9644208984375,0.015654665249586103,-0.0024204412131104617,0.030523052659421224
1761467616836374000,0.9743740234375,0.0015875614523887633,-0.001020511287311092,0.025660029183339792
1761467616846326300,0.984326171875,-0.002303016245365143,-0.004137255068356171,0.010222769544098991
1761467616856279300,0.994279296875,0.0014367548048496246,0.008204778501903638,0.0209502052412834
1761467616866232300,1.004232421875,-0.006194178465008735,0.006956705536413937,0.011919024668505881
1761467616876185300,1.014185302734375,0.003083352968096733,0.02249465820430778,0.02134837196272565
1761467616886138400,1.024138427734375,0.0021855273455381394,-0.00397698647272773,0.026496550789428874
1761467616896091400,1.03409130859375,-0.01726736114323139,0.0030487017798237503,0.02271187201840803
1761467616906044400,1.04404443359375,-0.011880991929769515,0.0036686511759180572,0.018993470266496296
1761467616915998500,1.05399853515625,0.004579144483804702,0.013384290898498147,0.02110082922573201
1761467616925951500,1.063951416015625,-0.006644260320067406,0.004587711382750421,0.011190157838107551
1761467616935904500,1.073904541015625,-0.017119477105140685,0.012368510585231706,0.018318607778812293
1761467616945857500,1.083857421875,-0.0023047698110342024,-0.011304205821966751,0.011827117734507191
1761467616955810300,1.093810302734375,-0.007242810735106468,-0.012390567153412848,0.01156340931400191
1761467616965763300,1.103763427734375,-0.002454407414793968,-0.00672328037302941,0.01742354493549792
1761467616975716400,1.11371630859375,0.003980009546875953,0.000581042157812044,0.00521368637754349
1761467616985669400,1.12366943359375,0.0008370353460311889,0.014539306152518838,0.022250700230465735
1761467616995622400,1.133622314453125,-0.015173603734374045,0.01119455316872336,0.005572372755256947
1761467617005575400,1.143575439453125,-0.007094342175126075,0.010654135282244532,0.017785606013808863
1761467617015529500,1.153529541015625,-0.008439911565184593,0.009699574503768234,0.010144057735102251
1761467617025482500,1.163482421875,-0.004848609074950218,0.003416402581054717,0.011926682818576227
1761467617035435500,1.173435546875,0.0023316578179597854,0.007011979387607425,0.014968884075665845
1761467617045388500,1.183388427734375,-0.02191021851301193,-0.0007297299135010689,0.004672773017431609
1761467617055341600,1.193341552734375,-0.009490297400951385,0.005371080312784761,0.005323950952140148
1761467617065294600,1.203294677734375,0.0005348375290632248,0.007218224283121526,0.000553839057055302
1761467617075247600,1.21324755859375,-0.009940379256010054,0.012037305869488046,0.00910356538897613
1761467617085200400,1.223200439453125,-0.008442834174633025,0.006116117393271997,0.01047179413541453
1761467617095153400,1.2331533203125,-0.008144728010892867,-0.008616893833596258,0.011499988688970916
1761467617105106400,1.2431064453125,-0.010090601381659507,-0.005772555519454181,0.018404352116794323
1761467617115059500,1.2530595703125,-0.010089432337880134,0.008834491240186617,0.008423323473276104
1761467617125013200,1.26301318359375,-0.008743862947821616,0.011926182778365909,0.020350264303467702
1761467617134966300,1.27296630859375,0.005620177969336509,0.002722118440270424,0.024545896212267687
1761467617144919300,1.282919189453125,0.002177344039082527,0.004613046753406525,0.01183157243062742
1761467617154872300,1.292872314453125,0.01250292322039604,0.009359620225988328,0.014540463779855054
1761467617164825300,1.302825439453125,-0.00635083033144474,0.004386681518470869,0.01857300951485522
1761467617174778400,1.3127783203125,-0.008297872745990753,-0.006455067024054005,0.014928444750711787
1761467617184731400,1.3227314453125,-0.007251578563451767,-0.0021938750487752257,0.0009643949026125482
1761467617194684400,1.332684326171875,0.00007949497699737548,0.01119540255209431,0.019159485899610442
1761467617204637400,1.342637451171875,-0.007102525481581688,0.0030635157564654946,0.014896220698254182
1761467617214590200,1.352590087890625,-0.00022036475241184232,0.017180303914286196,0.021364816207450347
1761467617224543200,1.362543212890625,-0.009048398852348326,0.01803612615917809,0.02640427852924913
1761467617234497300,1.372497314453125,0.003669628423452377,0.002078477641334757,0.013735791766887995
1761467617244450300,1.3824501953125,0.0029208558827638624,0.0066127874695695935,0.01982966536231106
1761467617254403300,1.3924033203125,0.0035176527321338653,0.009696998954191804,0.007679135776159819
1761467617264356400,1.4023564453125,-0.00291617970764637,0.007869345135614275,0.007057734208495822
1761467617274309400,1.412309326171875,-0.014288637593388557,0.011110044089891016,0.03018977243431145
1761467617284262400,1.422262451171875,-0.002766542103886604,0.0027352884490974244,0.010365854109486098
1761467617294215400,1.43221533203125,-0.012642623952031135,-0.001027242422197014,0.018868117720622104
1761467617304168400,1.44216845703125,-0.00022270283997058866,0.006734824680350721,0.019724136328336316
1761467617314121500,1.45212158203125,-0.0017184943556785583,0.008815558210853487,0.017141739169298672
1761467617324074500,1.462074462890625,-0.002018354085087776,0.0031329368640203026,0.009123507631884421
1761467617334027500,1.472027587890625,-0.010099369210004806,0.011091887378692626,0.011596530698891728
1761467617343981600,1.481981689453125,0.005762216788530349,0.0020772994644008575,0.013535099829325917
1761467617353934600,1.4919345703125,-0.005310381367802619,-0.0062295329061802475,0.018455719261139165
1761467617363887400,1.501887451171875,-0.0003717559218406677,0.00779403314338997,0.011910076460358686
1761467617373840400,1.51184033203125,-0.008303133442997932,0.005231671842094511,0.01575519388145767
1761467617383793400,1.52179345703125,-0.011145078870654105,-0.0003831449655350297,0.010706895232654641
1761467617393746400,1.531746337890625,-0.014285714983940124,0.004422109024878591,-0.0002376241311780177
1761467617403699500,1.541699462890625,-0.00006955810487270355,0.0029128552393987775,0.014087865740724372
1761467617413652500,1.551652587890625,-0.001266074413061142,0.004936497420957311,0.01632218468103092
1761467617423605500,1.56160546875,-0.012038812839984894,0.006655758961616084,0.02315038216668181
1761467617433558500,1.57155859375,0.008610007435083389,0.002806965445820242,0.019601283983513712
1761467617443511600,1.581511474609375,-0.0050064299851655955,0.0014296857432462274,0.02292219943399541
1761467617453465300,1.59146533203125,0.0009796586871147156,0.019341116943676025,0.01480003944793716
1761467617463418400,1.60141845703125,-0.004108604362607002,0.002344791294168681,0.015564904606901108
1761467617473371400,1.611371337890625,0.0033738603472709652,0.01187960369028151,0.023277157201373484
1761467617483324400,1.621324462890625,0.005020458510518073,0.008697539588063954,0.018397438318817873
1761467617493277200,1.631277099609375,0.002776478976011276,0.006534141875943169,0.025969540373794734
1761467617503230200,1.641230224609375,-0.01069090536236763,-0.008151550477324054,0.008802993273513856
1761467617513183200,1.651183349609375,0.002177344039082527,0.008463822163734584,0.02037244645252358
1761467617523136300,1.66113623046875,-0.00006605097353458404,0.009770392983965575,0.013673211392073425
1761467617533089300,1.67108935546875,-0.005602057790756225,0.00296711531043984,0.014809825623012147
1761467617543042300,1.681042236328125,0.0009814122527837753,0.006747912490786984,0.01706964204746764
1761467617552995300,1.690995361328125,0.0009819967746734618,0.0059604427743703125,0.017942940583545713
1761467617562949400,1.700949462890625,-0.010688567274808883,0.012271918342960998,0.016019240228680426
1761467617572902400,1.71090234375,-0.0075467621177434914,-0.005088445712812245,0.007843710654147434
1761467617582855400,1.72085546875,-0.002159223860502243,0.005801142293121665,0.0037826169613865202
1761467617592808400,1.730808349609375,0.009214987590909003,0.013458643909497185,0.005835633651190437
1761467617602761500,1.740761474609375,-0.0029039047479629517,-0.006144676767475903,0.003973885766766034
1761467617612714500,1.750714599609375,-0.004549333867430686,0.006971163320029154,0.016793953211512416
1761467617622667300,1.760667236328125,-0.0009574468553066253,0.008107620004052296,0.015660359771433284
1761467617632620300,1.770620361328125,-0.00020925883650779723,0.007187281155586242,0.022342853759636634
1761467617642573300,1.7805732421875,-0.014124971464276314,0.0010013225296512246,0.016457245770166627
1761467617652526300,1.7905263671875,-0.011430325552821159,0.00018295535147190093,0.004182450483529828
1761467617662480400,1.80048046875,-0.012476035213470458,0.002923815024830401,0.003360578457301017
1761467617672433400,1.810433349609375,0.0000935235023498535,0.006538014333462342,0.01175595219443785
1761467617682386400,1.820386474609375,-0.0003565583527088165,0.014512765205465256,0.009018725233292207
1761467617692339500,1.83033935546875,-0.007539163333177566,0.009563517900789156,0.01164906460372731
1761467617702292500,1.84029248046875,0.0030851065337657926,0.006552188989287242,0.015060306952474638
1761467617712245500,1.85024560546875,-0.004695464339852333,0.011594311342341825,0.011227213329309597
1761467617722198500,1.860198486328125,-0.021754151168465612,0.0067629913289099924,0.008412028044415638
1761467617732151600,1.870151611328125,-0.001703296786546707,0.012210607476625591,0.004776626117550768
1761467617742104600,1.8801044921875,-0.011578794112801551,0.01141760306856595,0.013742853978625498
1761467617752057300,1.890057373046875,-0.01636719743311405,0.00525613956307061,0.004385293278982862
1761467617762010400,1.90001025390625,-0.0017027122646570204,-0.005530380794033408,0.002127472448791377
1761467617771964400,1.90996435546875,0.0012894552886486053,0.00976151555776596,0.010634462467394768
1761467617781917400,1.91991748046875,-0.0018529343903064726,0.003474909568950534,0.016382993223867378
1761467617791870500,1.929870361328125,-0.00783785401880741,0.0038710236139129846,0.014035740544553846
1761467617801823500,1.939823486328125,0.005779752445220947,0.0022125066840089857,0.008255246030527632
1761467617811776500,1.949776611328125,0.0125134446144104,0.008367412584554404,0.005153432673844508
1761467617821729500,1.9597294921875,-0.00230009363591671,0.013693320315051823,0.029250436624430585
1761467617831682600,1.9696826171875,0.0069791913628578185,-0.00123129536062479,0.01145669525322737
1761467617841635300,1.97963525390625,0.010720131456851958,-0.0031536325921770183,-0.0021299155676271766
1761467617851588400,1.98958837890625,-0.011575286981463432,0.015673552613146603,0.018237598981452174
1761467617861541400,1.999541259765625,-0.00035188217759132384,0.005748032999550923,0.00460789337096503
1761467617871495200,2.0094951171875,-0.0009504325926303862,0.006924986090743913,0.01563706337752519
1761467617881448200,2.0194482421875,0.0027899229794740676,-0.008595038194814697,0.018003710310475433
1761467617891401200,2.029401123046875,-0.015167173993587493,-0.01082002076790668,0.011838639208942186
1761467617901354000,2.03935400390625,-0.0037941315859556196,0.011410095615545287,0.0012859824066399595
1761467617911307000,2.04930712890625,-0.014717092138528823,-0.00014146343045867978,0.012846306997700594
1761467617921260000,2.059260009765625,-0.0039437691897153855,0.002746924087963998,0.020780424465215764
1761467617931213000,2.069213134765625,-0.011575286981463432,0.009019939942844212,0.008749285758321639
1761467617941166000,2.079166015625,-0.01621346817612648,0.006479215084621682,0.01421470470749773
1761467617951119000,2.089119140625,0.004435936620831489,0.00231298965010792,0.010508950091316364
1761467617961072000,2.099072021484375,0.003537526476383209,0.0083640150510706,0.01395193471862003
1761467617971026200,2.109026123046875,0.005033317992091179,0.00031070991698652507,0.001997621824312955
1761467617980979200,2.118979248046875,-0.0039449382334947585,-0.007341074344655498,0.013484995343594345
1761467617990932200,2.12893212890625,-0.016814356678724288,0.003162500885222107,0.010739464061695616
1761467618000885200,2.13888525390625,-0.004841594812273979,0.003941084042284638,0.010205192788213024
1761467618010838300,2.14883837890625,0.00338847339451313,0.003341245852457359,0.014067868698888923
1761467618020791300,2.158791259765625,-0.0031955811709165572,-0.0001274623045697808,0.015210307599126826
1761467618030744000,2.168744140625,-0.01546528015732765,-0.008543426738586277,0.004081565658631734
1761467618040697000,2.178697021484375,-0.014568039056658743,-0.002119083646358922,0.009370474980142898
1761467618050650000,2.188650146484375,-0.006488192975521087,0.009761643421929329,0.014784561034303624
1761467618060603100,2.19860302734375,0.0014408464580774306,-0.003447765833698213,0.015146393783751409
1761467618070557200,2.20855712890625,-0.008135375660657883,0.011915971911605447,0.009125028302113059
1761467618080510200,2.21851025390625,-0.011727262672781943,0.006695387719105929,0.010025899831706191
1761467618090463200,2.228463134765625,0.0011415712505578994,-0.005718724706675857,0.022561672725644893
1761467618100416300,2.238416259765625,-0.0015524901390075682,0.00342543527088128,0.013419053967914077
1761467618110369300,2.248369384765625,-0.0011035773277282715,-0.004496032777614891,0.012995302997354883
1761467618120322300,2.258322265625,0.006526771420240402,0.004725284089380875,0.01197095121856546
1761467618130275300,2.268275390625,-0.002301262679696083,0.0022921843240968883,0.016665595857799052
1761467618140228400,2.278228271484375,-0.004247720572352409,0.002175380410859361,0.01854936377778649
1761467618150181400,2.288181396484375,0.000391045144200325,0.005624415753036737,-0.006573272876511328
1761467618160134100,2.298134033203125,-0.008137713748216629,0.001873054729728028,0.009878367420064751
1761467618170088200,2.308088134765625,0.0033837972193956375,-0.0035177897294517606,0.0072949861636268905
1761467618180041000,2.318041015625,-0.0039484453648328775,-0.006929132542898878,0.0013330524017801508
1761467618189994000,2.327993896484375,0.0008405424773693085,0.002609534044424072,0.014063361487130168
1761467618199947000,2.337947021484375,0.003534603866934776,0.01617246944545768,0.014947544460115023
1761467618209900000,2.347900146484375,0.007874094375967979,0.005997194588184356,0.01026451719343895
1761467618219853000,2.35785302734375,-0.006342647024989128,-0.006962678619474172,0.009799114471662323
1761467618229806000,2.36780615234375,0.0008405424773693085,0.003064401672454551,0.011803805357578676
1761467618239759000,2.377759033203125,-0.00409691392481327,0.003922269743960351,0.008809591977659147
1761467618249712000,2.387712158203125,-0.002599368843436241,0.0010139171497430652,0.01638792512731161
1761467618259665200,2.3976650390625,-0.01606616865992546,0.013995938257127999,0.022120176035840995
1761467618269619200,2.407619140625,0.00203998139500618,0.021941709629818795,0.014034110276470892
1761467618279572200,2.417572265625,-0.003946691799163818,0.0002740403015632182,0.019450520718458573
1761467618289525200,2.427525146484375,-0.006341477981209755,-0.005825664813024923,0.015582780473597813
1761467618299478300,2.437478271484375,-0.0017015432208776474,-0.0002169215531554073,0.012064737299107946
1761467618309431000,2.44743115234375,-0.002598199799656868,0.0023894980855751783,0.020542816317058166
1761467618319384000,2.457384033203125,-0.008882394635677337,0.0033710930014494806,0.027106458282121455
1761467618329337000,2.467337158203125,-0.0061883332461118695,0.0017038082432001829,0.005522891607321798
1761467618339290000,2.4772900390625,-0.0037941315859556196,-0.0031039756310172377,0.01276928938886849
1761467618349243100,2.4872431640625,-0.013818681994080543,0.012648405238846316,0.00365125936641125
1761467618359196200,2.497196044921875,-0.012324059522151947,0.0004804769933223724,0.005545338617858942
1761467618369150200,2.507150146484375,-0.004243628919124603,0.005584102008957415,0.013228145922138355
1761467618379103200,2.517103271484375,-0.011575286981463432,0.0025361034820321946,0.0027272056073416023
1761467618389056300,2.52705615234375,0.005034487035870552,-0.0029057131125591693,0.010698058905650395
1761467618399009300,2.53700927734375,0.013563830450177191,0.0031858269618824124,0.017103722413582725
1761467618408962300,2.54696240234375,0.0038379707276821134,0.0036065365919843314,0.011992813707212916
1761467618418915300,2.556915283203125,-0.006635492491722106,0.004871058368775993,0.00034635433581424875
1761467618428868400,2.566868408203125,0.004587912312150002,0.0024676230893936005,0.004750192485062871
1761467618438821000,2.576821044921875,0.009077624946832657,0.0022679175325203684,0.0043603118180646555
1761467618448774100,2.586774169921875,-0.010973813956975937,0.0028830172235611825,0.015592541532497853
1761467618458727200,2.59672705078125,-0.0024450550645589825,-0.00008655490544624626,0.01340209369995864
1761467618468681200,2.60668115234375,0.008029577198624611,0.008869306825241074,0.0008851168380351736
1761467618478634200,2.61663427734375,-0.011271920120716095,-0.004442658622562885,0.003104585269081872
1761467618488587300,2.626587158203125,-0.007082067215442657,-0.0020555625566281376,0.011286149575468153
1761467618498540300,2.636540283203125,-0.01980184805691242,-0.007399279938451945,0.012173353339312597
1761467618508493300,2.646493408203125,-0.008878887504339218,-0.008264390601497144,0.008450928432832006
1761467618518446000,2.656446044921875,0.0030921207964420315,-0.0007744823706801981,0.0043466212194296526
1761467618528399000,2.666399169921875,-0.005884966385364532,-0.0022027616081293673,0.0072918055425630875
1761467618538352000,2.67635205078125,0.0014478607207536697,0.00761783632626757,0.008923493831045926
1761467618548305200,2.68630517578125,-0.021444939088821408,0.00434811220690608,0.006851375148550142
1761467618558258200,2.696258056640625,-0.0004956745624542236,0.0031369189193937927,0.0017378315270994789
1761467618568212200,2.706212158203125,0.00429214423596859,0.009005801819637418,-0.0021646946200635283
1761467618578165200,2.716165283203125,-0.005734159737825394,-0.0024684268069919196,0.00348825995757943
1761467618588118000,2.726117919921875,-0.0022936638951301575,0.0013608674238901584,0.014245063313143328
1761467618598071000,2.736071044921875,-0.0004968436062335968,-0.00021100326902233064,-0.0019329362573800607
1761467618608024000,2.746024169921875,-0.007229951253533363,0.0030518709844443944,0.01172018447802402
1761467618617977000,2.75597705078125,-0.0028898762226104734,-0.003581082490319386,0.004352265508926939
1761467618627930000,2.76593017578125,-0.002741407662630081,0.01339798149713315,0.011788162547163665
1761467618637883100,2.775883056640625,-0.01276654259264469,0.006127899162610992,-0.0027623545525362714
1761467618647836200,2.785836181640625,0.007285480833053588,-0.00003710800684057176,0.006061811656458303
1761467618657789200,2.7957890625,-0.013961305335164069,0.011374640709673985,0.020540715691517105
1761467618667743200,2.8057431640625,0.0007049333989620208,0.01438934888835065,0.00207330599258421
1761467618677696300,2.8156962890625,0.005044423907995223,0.013179315511463209,-0.0013480147921829484
1761467618687649300,2.825649169921875,-0.002139350116252899,-0.0014353117664344607,0.006345859612093772
1761467618697602300,2.835602294921875,-0.0021399346381425857,-0.004674065358797088,0.00009189780084416269
1761467618707555300,2.845555419921875,0.0007043488770723343,-0.010431797768454999,0.004774381644825916
1761467618717508000,2.855508056640625,-0.0045329672545194625,0.0066680795870721335,0.014633811468980275
1761467618727461000,2.865461181640625,-0.007377250769734382,0.002702454758575186,0.010463028590357863
1761467618737414100,2.8754140625,-0.0007926116824150085,-0.001491891658725217,0.009188821103191002
1761467618747367200,2.8853671875,-0.006627893707156181,-0.00692188995135948,0.019722056252392938
1761467618757321200,2.8953212890625,-0.00004208557605743408,0.0011892463171854614,0.009510901797562837
1761467618767274200,2.905274169921875,-0.0009381576329469681,0.012462472478998824,0.01418809297849657
1761467618777227300,2.915227294921875,0.0034013328760862348,0.012599424131121485,0.008639181013929192
1761467618787180300,2.92518017578125,-0.0066261401414871215,-0.0046670876287389544,0.013690004979958757
1761467618797133300,2.93513330078125,-0.010067220506072044,-0.00409208248606883,0.0122235034908168
1761467618807086300,2.94508642578125,-0.010514379751682281,-0.003280336844921112,0.01333256984441541
1761467618817039400,2.955039306640625,-0.007970540487766265,0.0025239837859757242,0.008044626353995409
1761467618826992400,2.964992431640625,-0.007074468430876731,-0.009342897420050575,0.010834174874133896
1761467618836945200,2.974945068359375,-0.0025859248399734496,-0.0006081676267553121,0.017409016369935124
1761467618846898200,2.984898193359375,-0.002585340318083763,0.00559368268805556,0.007104655789874959
1761467618856852000,2.99485205078125,-0.004528875601291656,0.00814291964629665,0.006199295314832124
1761467618866805000,3.004804931640625,-0.008717559462785721,0.0031433851927984502,0.010500243911764118
1761467618876758000,3.014758056640625,0.001308159989118576,0.0109431996230036,0.019361746456462423
1761467618886711000,3.0247109375,-0.006474164450168609,0.0011101075332146137,0.010659165367099922
1761467618896664000,3.0346640625,0.0059463411837816236,-0.003241447872947901,0.002442712410422973
1761467618906617000,3.0446171875,-0.017249240964651108,-0.004040790690248832,-0.0004431589239276945
1761467618916570000,3.054570068359375,-0.0048287353307008745,0.004142424433818087,-0.0005961392622441053
1761467618926523100,3.064523193359375,-0.000040332010388374324,0.000693937080912292,0.005009738470392767
1761467618936476200,3.07447607421875,0.005047346517443657,0.005298416935373097,0.017379842791089322
1761467618946429200,3.08442919921875,0.009835749837756156,-0.007905119701894,0.01710640299443621
1761467618956383200,3.09438330078125,0.0035509704798460003,0.000003452332410961389,0.013846974223514552
1761467618966336300,3.104336181640625,-0.013956629160046577,0.018873901290725914,0.020368526045943143
1761467618976289000,3.1142890625,-0.006326280412077903,0.008602746577234938,0.019093631288898176
1761467618986242000,3.124241943359375,-0.006775777745246887,-0.004389850723091513,0.005450349244207609
1761467618996195000,3.134195068359375,-0.012012509354948997,-0.0006854980461299419,0.01702720256167231
1761467619006148000,3.144148193359375,0.0013058219015598296,-0.00849423556830734,0.006919764209643472
1761467619016101000,3.15410107421875,-0.005727729997038841,-0.0005479618721175939,0.00814543583036866
1761467619026054100,3.16405419921875,-0.0030348376512527465,-0.010392232943046838,0.010208811800694093
1761467619036007200,3.174007080078125,0.0007055179208517074,0.0035630262438207864,0.00904111516161356
1761467619045960200,3.183960205078125,-0.010517302361130713,-0.0019827256492804734,0.012988921205629594
1761467619055914200,3.193914306640625,0.002053425398468971,-0.003857497412059456,0.017195702412817628
1761467619065867300,3.2038671875,0.0060930561780929565,-0.004137556462455541,0.0027567079797503535
1761467619075820300,3.2138203125,-0.0013894085317850112,0.0041014622357673945,0.0024590128079638816
1761467619085773300,3.223773193359375,-0.02428571547269821,0.017072770152892918,0.007709035440790466
1761467619095726300,3.233726318359375,-0.008574351599812508,0.0025802348847035316,0.003241107662941795
1761467619105679000,3.24367919921875,0.0026467151165008545,-0.001944512530742213,0.013077786799171008
1761467619115632000,3.253632080078125,0.0002519289344549179,0.012164841239294037,0.00017507800569292156
1761467619125585200,3.263585205078125,-0.01575987918972969,0.0057748844738584005,0.005868741336348466
1761467619135538200,3.2735380859375,-0.0022919103294610976,-0.008912333116214722,0.009822897206048946
1761467619145491200,3.2834912109375,-0.009323708662390708,0.00286561856418848,0.015462177168077323
1761467619155445000,3.293445068359375,0.0005517886638641358,0.003602280541975051,0.006723504135315306
1761467619165398000,3.30339794921875,0.00653729281425476,0.0068755939910653974,0.0030480236431001686
1761467619175351000,3.31335107421875,-0.007229951253533363,-0.00326108415517956,0.0033983668841538017
1761467619185304000,3.323303955078125,-0.007230535775423049,0.002575997101003304,0.000026011224091053008
1761467619195257000,3.333257080078125,-0.005883212819695473,-0.003276089928066358,-0.003526048384432215
1761467619205210000,3.343210205078125,-0.002441547933220863,0.003919895123783499,0.009956060882331802
1761467619215163100,3.3531630859375,0.0020458266139030457,-0.007512357524642721,0.011582095748162827
1761467619225116200,3.3631162109375,0.004140168544650077,0.009287139511667191,0.010069551743764895
1761467619235069000,3.37306884765625,0.008928571864962577,0.00805293980790302,0.0066390749715850685
1761467619245022000,3.38302197265625,0.00010053776502609253,-0.0030459618334658443,0.008520680617238395
1761467619254976000,3.39297607421875,-0.0004974281281232833,0.004675700193457305,0.008998582060984335
1761467619264929000,3.402928955078125,0.004590834921598434,0.006147471512760966,0.011240164142427966
1761467619274882000,3.412882080078125,-0.015012275692820548,0.018142500009946525,0.010451004792423918
1761467619284835000,3.4228349609375,-0.012618658554553986,0.0009490717526059598,0.007731498434348031
1761467619294788000,3.4327880859375,-0.009926350730657577,-0.009458267428027465,0.008074521452048794
1761467619304741000,3.4427412109375,-0.011572364372014999,0.010445698429644107,0.01117718875868013
1761467619314694100,3.452694091796875,-0.016810849547386167,0.008418740912992507,-0.005298914692294783
1761467619324647200,3.462647216796875,-0.01995440827012062,0.005209807070158422,0.014117790521529968
1761467619334600200,3.47260009765625,-0.002147533422708511,0.0038489487794227894,0.010147441568854264
1761467619344553200,3.48255322265625,0.0005447744011878967,0.010312527903495355,-0.0019336143941036425
1761467619354507300,3.49250732421875,-0.00229834007024765,0.010752325826557352,0.011732909245567861
1761467619364460300,3.502460205078125,-0.0015519056171178817,-0.0012789338946342468,0.0019109413379919714
1761467619374413300,3.512413330078125,0.005480477237701416,0.008624510884471238,0.007066926728526595
1761467619384366000,3.522365966796875,-0.012026537880301474,0.003953961790166795,0.012036136825708671
1761467619394319000,3.532319091796875,0.012514029136300087,0.005150258902646601,-0.007142272970080375
1761467619404272000,3.542272216796875,0.003085691055655479,-0.0006587744359858334,0.013860217297577764
1761467619414225200,3.55222509765625,-0.002152209597826004,0.007441813039081171,0.00985336769283749
1761467619424178200,3.56217822265625,-0.001253214931488037,0.007477450608043,0.01110683150278637
1761467619434131200,3.572131103515625,0.00024316110610961912,0.0073095010294578966,0.010876255883614067
1761467619444084200,3.582084228515625,0.008023147457838059,-0.0007133267679717392,0.00901983719485579
1761467619454038000,3.5920380859375,-0.0014034370571374892,0.007043388306023552,-0.002985041409486439
1761467619463991000,3.601990966796875,-0.004245967006683349,0.002221055316645652,-0.00536606164437253
1761467619473944000,3.611944091796875,0.005031564426422119,0.004754016993520781,0.011971321111323777
1761467619483897000,3.62189697265625,0.004284545451402664,0.0029861488044727593,0.00178426905128872
1761467619493850000,3.63185009765625,0.007128828966617584,0.0028955387784168124,0.0032150142404600043
1761467619503803100,3.64180322265625,0.000993102690577507,0.00680188943403773,0.01899610518157715
1761467619513756200,3.651756103515625,-0.0033469723403453827,-0.00035651268693618477,0.02256020228776615
1761467619523709200,3.661709228515625,0.0072784665703773494,0.004232340340130031,0.013042589904915075
1761467619533662200,3.671662109375,-0.0006529109507799148,0.00319219277058728,0.008350762843852862
1761467619543615000,3.681614990234375,0.006231587865948677,-0.0034576935726683584,0.00802685780186439
1761467619553568000,3.691568115234375,0.004585574224591255,0.0010140084812883287,0.015326271262147929
1761467619563522000,3.70152197265625,0.005931728136539459,0.014041083439951762,0.009322395771427546
1761467619573475000,3.71147509765625,0.008325929796695709,0.0011759758436586708,0.013954889294109306
1761467619583428000,3.721427978515625,0.005032733470201492,0.005714422990893944,0.005043314229720272
1761467619593381000,3.731381103515625,-0.007087912434339523,0.00437335624601692,0.004859260616416577
1761467619603334100,3.741334228515625,0.0032388357907533645,0.004846800710354,0.010919238792103715
1761467619613287200,3.751287109375,-0.008432897302508353,0.0036302736605983224,0.00177398968586931
1761467619623240200,3.761240234375,-0.0043932665228843685,0.003821996840415522,0.010078908660577144
1761467619633193000,3.77119287109375,-0.00514262358546257,-0.0049456305754836645,-0.0008598499660380184
1761467619643146000,3.78114599609375,0.0032370822250843046,0.007614018667675554,0.0033294732162728905
1761467619653100300,3.791100341796875,0.0053320086777210235,0.00910182780632749,0.006821546265867073
1761467619663053000,3.801052978515625,-0.0006534954726696014,-0.0004925053578335791,0.004222898941638413
1761467619673006000,3.811006103515625,0.0002443301498889923,-0.003333601402118802,0.01397205962461885
1761467619682959000,3.820958984375,-0.002898059529066086,0.00459755692332983,0.011643461413425392
1761467619692912000,3.830912109375,-0.0008007949888706207,-0.001952924166060984,0.004061258089542389
1761467619702865200,3.840865234375,-0.003045359045267105,0.013465375044383108,-0.0017252072242554277
1761467619712818200,3.850818115234375,-0.0022977555483579635,-0.0015980919795576482,0.01444384870469803
1761467619722771200,3.860771240234375,-0.0040939913153648375,0.006053902344638482,-0.00022568938150070605
1761467619732724200,3.87072412109375,0.006232172387838363,0.006595370543887838,0.005690270363749005
1761467619742677200,3.88067724609375,-0.002746083837747574,0.0034647626342717555,0.0029731614587362853
1761467619752630300,3.89063037109375,0.0023415946900844573,-0.0003277432501781732,-0.005755967427545692
1761467619762584300,3.900584228515625,-0.01576338632106781,-0.0044329135466832665,0.0047691072480869475
1761467619772537300,3.910537353515625,-0.006485270366072654,-0.005333899240707978,0.003009522830194328
1761467619782490000,3.920489990234375,-0.01082592991888523,0.00129319988200441,0.01565659919505706
1761467619792443100,3.930443115234375,0.0003968903630971908,0.004108266435889527,0.004800550415832549
1761467619802396200,3.940396240234375,-0.009777882170677184,0.006185310171963647,0.0008712481428869068
1761467619812349200,3.95034912109375,-0.014864976176619528,-0.00268283674265258,0.001642074968467932
1761467619822302200,3.96030224609375,0.0066822542428970335,0.005106675489246845,0.014966698968445416
1761467619832255200,3.970255126953125,-0.009028525108098984,-0.0013873718383256345,0.015137372510368003
1761467619842208300,3.980208251953125,-0.018005612289905548,0.001530817163316533,-0.003522054912615567
1761467619855272000,3.99327197265625,-0.011122867038846015,-0.004078592816833406,0.013172835538326762
1761467619865225700,4.003225830078125,-0.005136193844676017,-0.004144031869014725,0.006032761375198606
1761467619875178800,4.0131787109375,-0.007380757901072501,0.0027390421756077555,0.007338318415277171
1761467619885131800,4.0231318359375,-0.003041267392039299,0.012763848312059416,0.0021568286907277068
1761467619895084800,4.033084716796875,-0.008577858731150627,0.0013890614719130098,-0.0064543523547123186
1761467619905037600,4.04303759765625,0.0008498948276042938,0.01032946990514174,-0.010632010215404443
1761467619914990600,4.052990478515625,-0.006332125630974769,0.008523753923736513,0.005518448327644728
1761467619924943600,4.062943603515625,-0.009774375039339065,0.012600501843355595,0.011986719609855208
1761467619934896600,4.072896728515625,-0.021297055050730703,0.01158310496173799,-0.003553639644256327
1761467619944849700,4.082849609375,-0.0019920506000518797,-0.005128293666010722,0.002280235874687787
1761467619954802700,4.092802734375,-0.0009451718956232071,0.002828967215074226,0.0136486911554588
1761467619964756700,4.1027568359375,-0.019798925447463988,-0.005297722815629094,0.016060136211360803
1761467619974709800,4.112709716796875,0.003544540739059448,0.01163151068072766,0.008669489387224893
1761467619984662800,4.122662841796875,0.009081716600060463,-0.002777958547044545,0.021100847492041067
1761467619994615800,4.13261572265625,0.004293313279747963,0.004829758244007825,0.014632267965865321
1761467620004568800,4.14256884765625,0.004591419443488121,-0.0004823584231548011,0.010075618441659025
1761467620014521900,4.15252197265625,-0.0061813189834356306,0.0031710586510132997,0.004853465629869606
1761467620024475000,4.162474853515625,0.012523966008424758,0.005531239310558885,0.02220465771520976
1761467620034427600,4.172427734375,0.00758650960624218,0.01116582939773798,0.004508837460260838
1761467620044380700,4.182380615234375,-0.01530804376900196,0.012351751246675848,0.013632957013498525
1761467620054333700,4.192333740234375,-0.006779284876585006,-0.0031742278556339443,0.01932374111718964
1761467620064287700,4.202287841796875,0.0030967969715595244,0.0005663469121791422,0.002852185977168847
1761467620074240800,4.21224072265625,-0.001242109015583992,-0.0030382534510456022,-0.0026333624445833265
1761467620084193800,4.22219384765625,-0.011117606341838835,-0.004418318765750154,0.00762164713499369
1761467620094146800,4.232146728515625,-0.016205284869670867,-0.0023172274338081477,-0.0016748629932175389
1761467620104099800,4.242099853515625,0.011778116077184677,-0.0059749644900672135,0.0073173235763097175
1761467620114052900,4.252052978515625,0.005043839386105537,-0.009244716008892283,0.011191226417187136
1761467620124006000,4.262005859375,-0.005430792877078056,0.0009442220475524663,0.006837750765285454
1761467620133959000,4.271958984375,0.0014525368958711623,0.001951088402001187,0.0033187531761475837
1761467620143912000,4.281911865234375,0.003397241222858429,0.006319640608737245,-0.01000285003297031
1761467620153865000,4.291864990234375,-0.00483282698392868,-0.005174872754095122,-0.012056236615532543
1761467620163818800,4.30181884765625,-0.004234861090779305,-0.008713668738957493,-0.006286464424920268
1761467620173771800,4.311771728515625,0.005791442883014679,0.00040742089026607573,0.010059863750101067
1761467620183724500,4.321724609375,-0.005132102191448211,-0.005159638652345165,-0.0005002708224696107
1761467620193677600,4.331677490234375,-0.0021381810724735257,-0.008559902949351817,0.01340712378481403
1761467620204252700,4.342252685546875,-0.0012397709280252457,0.007114809574419632,0.002066494942596182
1761467620214205700,4.352205810546875,-0.0012397709280252457,0.0027838402985595166,0.009355795717530417
1761467620224158700,4.36215869140625,-0.015006430473923683,0.0075734857278876005,0.003820396255084779
1761467620234112800,4.37211279296875,-0.005727729997038841,0.0030301888755988327,0.00975011281433981
1761467620244065800,4.382065673828125,0.0062421092599630355,-0.0012351586849894374,0.00818584775585914
1761467620254018800,4.392018798828125,-0.0022878186762332916,-0.0005939838377758861,0.01730846490517724
1761467620263971800,4.401971923828125,-0.0049824645876884455,-0.0018948281701188533,0.006191162240726408
1761467620273924900,4.4119248046875,-0.0025888474494218825,-0.0036324838839937,0.006334529933903831
1761467620283878000,4.4218779296875,-0.0037847792357206343,0.003450122187566012,0.012052069613779894
1761467620293831000,4.431830810546875,-0.008124269744753837,0.0026913671089801934,0.009921560391108504
1761467620303783700,4.44178369140625,0.00414659828543663,-0.009440220314683391,0.008296034698642324
1761467620313736700,4.45173681640625,-0.00004325461983680725,-0.008851926432177424,0.00908457299413858
1761467620323689700,4.461689697265625,-0.0034837504625320433,0.0026249508092645556,0.007019114664581138
1761467620333643800,4.471643798828125,0.008336451190710067,0.0056802010608837,0.009233285866002552
1761467620343596800,4.4815966796875,-0.007525134807825088,0.00253013039897196,0.021914780523697844
1761467620353549800,4.4915498046875,-0.002587678405642509,0.0016676957502029836,0.00019771452918648718
1761467620363502800,4.5015029296875,0.01102817449271679,0.015474869969580321,0.007607262416614685
1761467620373456000,4.511455810546875,-0.01051964044868946,-0.006069209511624649,0.008307081249041948
1761467620383409000,4.521408935546875,-0.0007943652480840683,-0.007819505511363968,0.0060164997935644345
1761467620393362000,4.53136181640625,-0.010071896681189536,0.013446816474385559,0.0039143056332133705
1761467620403315000,4.54131494140625,0.00459317300915718,0.0041081203054171055,0.010606476198637391
1761467620413268000,4.55126806640625,0.0016010054558515548,-0.0007476765621453524,0.007767533295531757
1761467620423221000,4.561220947265625,0.0027986908078193665,0.008177890494978055,-0.004243583253351971
1761467620433174800,4.5711748046875,-0.0015407997012138366,0.004448394243605435,0.015202857228321954
1761467620443127800,4.5811279296875,-0.0006423895567655563,0.006475050366157665,0.001991918169311248
1761467620453080600,4.59108056640625,-0.0006423895567655563,0.001830969153670594,0.0026019284099922514
1761467620463033600,4.60103369140625,-0.0087228201597929,0.00200474568484351,-0.0030976280886214225
1761467620472986600,4.610986572265625,0.0016027590215206145,0.0001466601953841746,0.009857240150356664
1761467620482939600,4.620939697265625,-0.004083469921350479,0.01258030843869783,-0.0022304578992305324
1761467620492892700,4.630892578125,-0.007975801184773444,0.007146857813652604,0.003497653407009784
1761467620502845700,4.640845703125,-0.009323708662390708,-0.0018904351227916776,0.01738786398405209
1761467620512798700,4.650798828125,0.0015986673682928084,-0.0024291268430650234,-0.0014949033164302818
1761467620522752800,4.660752685546875,0.01222410627901554,0.0067904729908797885,0.011078527856909203
1761467620532705800,4.670705810546875,-0.0034866730719804763,0.005930294231278822,0.008922208339546342
1761467620542658800,4.680658935546875,-0.006480009669065475,-0.007943990407558157,0.008699475816823541
1761467620552611800,4.69061181640625,-0.0066296472728252405,0.005671679827710613,0.008602666662132833
1761467620562564900,4.70056494140625,-0.004684942945837974,0.0005778638200368732,0.008939435752271675
1761467620572518000,4.710517822265625,0.005790273839235306,-0.0029144718077499417,0.012926934485859238
1761467620582470700,4.720470703125,-0.004683773902058601,0.0033257194897625595,0.014930611591623164
1761467620592423700,4.730423583984375,-0.0009422492861747741,-0.0044800588903483,0.01439922411168227
1761467620602376700,4.740376708984375,0.004893617260456085,0.008703558336896821,0.0059094729222473686
1761467620612329700,4.750329833984375,0.0038461540341377257,0.005395584566378966,0.017043610273778903
1761467620622283800,4.76028369140625,-0.010668109008669853,0.00012867701412178575,-0.0006554819337790831
1761467620632236800,4.77023681640625,-0.006778115832805633,-0.002070294334879145,0.008440521203249226
1761467620642189800,4.78018994140625,-0.006627893707156181,0.0014122140186373143,0.008017498601763508
1761467620652142800,4.790142822265625,-0.007525134807825088,-0.004046663308609277,0.007296723746275529
1761467620662096000,4.800095947265625,-0.011115852776169777,-0.009038032721960916,0.00959687674769666
1761467620672049000,4.810048828125,-0.007973463097214698,-0.004259721537400037,-0.00006669486092869193
1761467620682002000,4.820001953125,-0.0021375965505838392,-0.0060832289038226005,0.00399021128048189
1761467620691955000,4.829954833984375,-0.0034837504625320433,-0.005943866098904982,0.0029333409050013868
1761467620701908000,4.839907958984375,-0.013660276561975479,0.008030956304958089,0.0009124432363780215
1761467620711860700,4.84986083984375,-0.004532382732629776,0.006821982373995706,0.0004651515600271523
1761467620721814800,4.859814697265625,-0.0031856442987918854,0.0020200528518296776,-0.0007250035060336813
1761467620731767600,4.869767578125,-0.009770283386111259,0.006547384950006381,0.004626184796192683
1761467620741720600,4.879720458984375,0.002348608952760696,0.0024639241618104276,-0.0001983127508079633
1761467620751673600,4.889673583984375,0.00010404489636421203,-0.00006629756870679557,-0.0033661565314279866
1761467620761626600,4.899626708984375,-0.013511808001995087,-0.007179079582821577,0.002946337383892387
1761467620771579600,4.90957958984375,-0.003037175738811493,0.006165829153358936,0.017784663015604017
1761467620781532700,4.91953271484375,0.0047439796566963194,0.002403736673481762,0.01050337886705529
1761467620791485700,4.929485595703125,-0.010819500178098677,-0.0003721577806398272,0.0028356709504965692
1761467620801438700,4.939438720703125,0.006240355694293975,0.0073396952383220195,0.005256998079596087
1761467620811392800,4.949392822265625,0.0029477438896894454,0.006909085268713534,0.0012924052975606171
1761467620821345800,4.959345703125,-0.015458265894651413,0.012479862005217,0.008163327680085786
1761467620831298800,4.969298828125,-0.011119359907507896,0.0015829583425074816,0.008404488625354133
1761467620841251800,4.979251953125,-0.0025900164932012555,-0.0021510862198192626,0.007356787937018088
1761467620851204900,4.989204833984375,-0.009473930788040161,-0.001094608569983393,0.00454371697739698
1761467620861158000,4.999157958984375,-0.0009440028518438339,0.005144760743621736,-0.0005472266531782225
1761467620871111000,5.00911083984375,-0.009621814826130866,0.009884776611253619,0.006484690410760231
1761467620881064000,5.01906396484375,-0.010818915656208992,0.010156049566995352,0.015010403396142645
1761467620891017000,5.029016845703125,-0.005729483562707901,-0.0017728366251103579,0.008595522252004594
1761467620900970000,5.038969970703125,0.0019026187509298324,0.004329206577036529,0.003491518210456706
1761467620910924000,5.048924072265625,-0.011415712505578993,0.006008145240461453,-0.0002656697654398158
1761467620920877000,5.058876953125,-0.007375497204065323,-0.0006038111120462417,0.006326321511273272
1761467620930830000,5.068830078125,-0.00857201351225376,0.006102682522963732,0.008320879162242636
1761467620940783000,5.078783203125,-0.0007908581167459487,0.0017630093508400023,0.0050122797706397245
1761467620950736000,5.08873583984375,-0.007974047619104386,-0.0019313242556061594,-0.003428074752539396
1761467620960689000,5.09868896484375,0.0029489129334688184,0.005560447138734162,0.002519366976362653
1761467620970642000,5.108641845703125,0.0016010054558515548,-0.00018737579826265573,0.01089423221501056
1761467620980595000,5.118594970703125,0.005341945549845695,-0.0030203433350194245,0.0020623667567502705
1761467620990548000,5.1285478515625,-0.005880290210247039,-0.001292268300242722,0.0017551228719064965
1761467621000501000,5.1385009765625,0.0013028992921113966,0.0012481094981078057,-0.0037748788962140675
1761467621010454800,5.148454833984375,-0.0037841947138309477,0.00480072394576855,0.008805950132291764
1761467621020407800,5.15840771484375,-0.008124269744753837,0.007193464301200583,0.005637900855694897
1761467621030360800,5.16836083984375,0.004295651367306709,-0.008036728458618745,0.010426651235879398
1761467621040313900,5.17831396484375,0.002051671832799911,0.0037440453665331004,-0.011731884048972277
1761467621050267000,5.188266845703125,-0.0087228201597929,0.006595215280260891,0.013674350753100589
1761467621060220000,5.198219970703125,-0.005281155273318291,0.013464324731612578,0.009891283983853645
1761467621070173000,5.2081728515625,-0.004681435814499855,0.01745022516315803,0.0008017813695594668
1761467621080125700,5.218125732421875,-0.003633388066291809,-0.002213273868989199,0.0045305926343426105
1761467621090078700,5.22807861328125,0.007139350360631943,-0.010084290371881797,0.003740159209282137
1761467621100031700,5.23803173828125,0.0014525368958711623,0.001348382401652634,0.00041698786963243037
1761467621109985800,5.24798583984375,0.0007031798332929611,-0.002169370795181021,-0.007378177784918807
1761467621119938800,5.257938720703125,-0.007976385706663132,0.0012899576121475546,0.004286906371847726
1761467621129891800,5.267891845703125,-0.001841243952512741,-0.0015680073685478417,0.008732839230308308
1761467621139844900,5.277844970703125,-0.008423544952273368,0.0022225896866060794,0.0015311459568794815
1761467621149798000,5.2877978515625,-0.0027379005312919615,0.01315660135615617,-0.0008984969094162806
1761467621159751000,5.2977509765625,-0.0037853637576103208,0.0037333595757372677,0.0022326178902760145
1761467621169704000,5.307703857421875,-0.007677695021033286,0.009071021676110104,0.010828587666852399
1761467621179657000,5.317656982421875,-0.013065817800164222,-0.0005862937216646969,0.008377363156410866
1761467621189610000,5.32760986328125,-0.012916180196404456,0.010638024397660047,0.012126861016196198
1761467621199563000,5.33756298828125,-0.017703414472937582,-0.004875962872756645,-0.0029022196809528394
1761467621209517000,5.34751708984375,-0.015159575209021567,0.0007850494304671883,0.008727834261627867
1761467621219470000,5.357469970703125,0.005042085820436477,0.00942269379114732,0.012309665670618414
1761467621229422800,5.3674228515625,0.003845569512248039,-0.005431733591994271,0.007682234198832884
1761467621239376000,5.3773759765625,0.0014537059396505356,0.011663202726934104,0.008378395202872342
1761467621249329000,5.387328857421875,0.003249357184767723,0.006430571903614327,0.00976132832809817
1761467621259282000,5.397281982421875,-0.005430792877078056,-0.002020893102046102,0.012760076319240032
1761467621269235000,5.40723486328125,0.004893617260456085,-0.008249814086873085,0.027603461718559263
1761467621279188000,5.41718798828125,0.0007037643551826477,0.005213697793986648,-0.010727721108263357
1761467621289141000,5.42714111328125,-0.006179565417766571,0.0016139745352789759,0.010534659921308047
1761467621299095000,5.437094970703125,-0.004981880065798759,0.0057392286385875195,0.006416630143229849
1761467621309048000,5.447048095703125,0.004443535405397415,0.0033397480151150373,0.004898622229136527
1761467621319000800,5.457000732421875,-0.005133855757117271,0.00557690508319065,0.013384181300643831
1761467621328953900,5.466953857421875,-0.0013923311412334441,0.002856321012880653,0.0031300690534990278
1761467621338907000,5.476906982421875,-0.0027390695750713345,0.013621424122620374,0.002511393732461147
1761467621348860000,5.48685986328125,-0.016655366724729538,0.005253646211884916,0.018408914127480237
1761467621358813000,5.49681298828125,0.0005541267514228821,0.0021884499549865723,0.0012747554764384404
1761467621368766000,5.506765869140625,-0.012164485046267508,0.004080565578211098,-0.00008425335050560533
1761467621378719000,5.516718994140625,-0.00722702864408493,-0.00307432027827017,0.012753623745567164
1761467621388672000,5.526672119140625,-0.015607903498411178,0.006720385163044557,-0.006311804362153634
1761467621398625800,5.536625732421875,-0.016205284869670867,-0.002342160945665091,0.0002950785230146721
1761467621408578800,5.546578857421875,-0.0045329672545194625,-0.005657148978859185,0.003107185934833251
1761467621418531800,5.55653173828125,0.0035480478703975677,0.002353020266396925,0.01224190223061014
1761467621428484900,5.56648486328125,-0.01874795508980751,-0.007526221653213724,0.01011707383005414
1761467621438438000,5.57643798828125,-0.0013905775755643844,-0.004809446108341216,-0.004292011805227957
1761467621448391000,5.586390869140625,-0.000045008185505867,0.0019717749970033765,-0.001900591190624982
1761467621458344000,5.596343994140625,-0.015757541102170942,0.004086228134017438,0.004342627747613005
1761467621468297000,5.606296875,-0.0007943652480840683,0.0009967194197699426,0.0007245103156892582
1761467621478250000,5.61625,-0.009623568391799927,0.001014017614442855,-0.005008229216607287
1761467621488202800,5.62620263671875,-0.002439209845662117,-0.0005852799415122718,0.009063463990739547
1761467621498157000,5.636156982421875,0.0023491934746503827,0.017050010331813244,0.007060572336264886
1761467621508109800,5.64610986328125,-0.002738485053181648,0.0035827812570612873,0.00525107979546301
1761467621518062800,5.656062744140625,0.009832242706418037,0.0005216309876181185,0.004807423114613629
1761467621528016000,5.666015869140625,-0.018000351592898367,0.009458751485217362,0.0035846170211210845
1761467621537969000,5.675968994140625,-0.0033341128587722774,0.0030705026196781544,-0.005405672135553322
1761467621547922000,5.685921875,-0.004381576085090637,0.0011117423678748308,-0.0015745512737659736
1761467621557875000,5.695875,0.0028010288953781125,0.0001901705435477197,-0.002705665062391199
1761467621567828000,5.705827880859375,-0.0049801265001296995,0.005270314218895509,0.00383244516919367
1761467621577781000,5.715781005859375,0.005793196448683738,0.0009301021906547248,-0.0028182814242783934
1761467621587735000,5.725735107421875,0.0013040683358907699,0.01128502619746141,0.00501533481082879
1761467621597688000,5.73568798828125,-0.0006412205129861831,0.003816370817227289,0.00547664587937761
1761467621607641000,5.74564111328125,-0.0045329672545194625,-0.00434841360100545,0.0017332033010432496
1761467621617594000,5.755593994140625,0.0002530979782342911,0.0005711692177690565,0.0009491767838830128
1761467621627547100,5.765547119140625,-0.011867547926306723,-0.008104030674323439,0.003361996379541233
1761467621637500000,5.7755,0.0035439562171697614,0.0018851287600118666,0.00355224912147969
1761467621647453000,5.785452880859375,0.0002519289344549179,-0.002598793454701081,0.015721072416147217
1761467621657406000,5.795406005859375,-0.004535889863967895,0.004535314475232735,0.006603403153293766
1761467621667359000,5.80535888671875,-0.00034662148058414456,-0.009653753467509522,-0.0047698675832012665
1761467621677312800,5.815312744140625,-0.007080898171663284,0.00803721251580864,-0.0058213767969748
1761467621687265800,5.825265869140625,-0.01950081928372383,0.008207765043433755,0.00901792608227115
1761467621697218800,5.83521875,0.0014478607207536697,0.009724973806506023,-0.00013293763070832936
1761467621707171800,5.845171875,0.004888941085338592,0.00044461109549738466,0.005898223159159533
1761467621717124900,5.855124755859375,0.0017477204501628876,0.0116229985807091,-0.007691413019131868
1761467621727078000,5.865077880859375,-0.006632569882273674,0.005222365157632157,0.0036872188790701326
1761467621737031000,5.875031005859375,-0.007829670712351798,-0.0019829539781436325,-0.0015591162426164373
1761467621746984000,5.88498388671875,-0.000048515316843986505,-0.00841930716857314,0.008257732531847431
1761467621756937000,5.89493701171875,0.002345686343312263,0.0081734700481873,0.004665708522405475
1761467621766891000,5.90489111328125,0.0038420623809099193,0.0035178262620698657,0.0005843209602870047
1761467621776844000,5.914843994140625,0.00040098201632499694,0.003359229033719748,0.004619718522788025
1761467621786796800,5.924796875,0.008030746242403984,0.0025875688077881933,-0.011025699407840147
1761467621796749800,5.934749755859375,-0.009775544083118438,-0.008207883774442598,-0.004404984360141679
1761467621806702800,5.944702880859375,-0.007979308316111565,-0.01559592993282713,-0.003922877098736353
1761467621816656000,5.95465576171875,-0.0021428572475910186,0.0077327588096726685,0.007051704043219797
1761467621826609000,5.96460888671875,-0.0010959785431623459,-0.0116683994918596,0.0036879632311640305
1761467621836562000,5.97456201171875,-0.00797813927233219,-0.006021936303796246,-0.007176837393385357
1761467621846514200,5.98451416015625,-0.010970306825637816,-0.00459134637825191,0.004320594012318179
1761467621856468200,5.99446826171875,0.009080547556281088,0.011429530968377366,0.020408814673847517
1761467621866421200,6.004421142578125,0.004891279172897339,0.0016891860628034919,0.0026574328733375294
1761467621876374300,6.014374267578125,0.003992869028449059,-0.00712728546350263,-0.0067151381657691665
1761467621886327300,6.024327392578125,-0.004237199178338051,0.004558795815519988,-0.0019382015209645032
1761467621896280300,6.0342802734375,0.0008493103057146072,0.0042842805899214,-0.002487350703170523
1761467621906233300,6.0442333984375,-0.0033411271214485168,-0.005518982617184519,-0.002746558761782944
1761467621916186400,6.054186279296875,-0.006931260567903518,-0.013054620552714913,0.006434622457646764
1761467621926139400,6.064139404296875,-0.005136193844676017,0.005842579415207728,-0.005222260126355104
1761467621936092400,6.074092529296875,0.0014472761988639832,-0.0008837970972061156,0.010762870053458027
1761467621946045400,6.08404541015625,-0.009177578189969062,-0.0016968579126056282,0.009344477455783635
1761467621955999500,6.09399951171875,-0.008282090654969215,0.008915611918689682,0.005597765208128839
1761467621965952500,6.103952392578125,0.01146948851943016,0.00311759316441603,0.007705569408647715
1761467621975905500,6.113905517578125,-0.014418401452898978,0.003000058598816395,-0.00027334161524195224
1761467621985858300,6.1238583984375,0.0033890579164028165,0.007612593895569443,-0.0033904826885089276
1761467621995811300,6.133811279296875,-0.00558919830918312,-0.0016620971264783293,-0.0020632435395848006
1761467622005764400,6.143764404296875,-0.0033469723403453827,-0.0017819149807095527,-0.001583465232583694
1761467622015717400,6.15371728515625,0.003684241470694542,-0.00017361213439144192,-0.008018763543665408
1761467622025670400,6.16367041015625,-0.004546411257982254,-0.006728221409628168,-0.0005582823367323726
1761467622035623400,6.17362353515625,-0.02250233918726444,0.005087961655622348,0.004118267240095883
1761467622045577200,6.1835771484375,-0.00559270544052124,-0.0019985351397655902,0.0020232403227593747
1761467622055530200,6.1935302734375,0.0051817865520715715,0.00201368704312481,0.0013009721965063362
1761467622065483300,6.203483154296875,-0.010979659175872802,0.006983155151922256,0.0025865687273675573
1761467622075436300,6.213436279296875,-0.006789806270599365,0.00084001275440678,0.0009230650950921699
1761467622085389300,6.223389404296875,0.0024877251625061033,-0.003830408475734293,0.009233116902643813
1761467622095342300,6.23334228515625,0.004731704697012901,-0.002441785395238548,-0.0009393358098808676
1761467622105295400,6.24329541015625,-0.013375029879808426,0.012097000167472288,0.004862573668221012
1761467622115248000,6.253248046875,-0.01277706398665905,0.008382701485231518,0.0052605874093249435
1761467622125201200,6.263201171875,-0.0015548282265663146,0.005116183103108778,0.0022749226620420813
1761467622135155200,6.2731552734375,0.007274374917149543,-0.001181702331546694,0.009651958802645095
1761467622145108200,6.283108154296875,-0.013823358169198035,-0.004373000052990392,0.004638911847025156
1761467622155061200,6.293061279296875,0.006079612174630164,0.006463022001646459,0.0008155952657805755
1761467622165014300,6.30301416015625,0.006827215671539306,0.0033814225992187855,0.0035415952967246993
1761467622174967300,6.31296728515625,-0.004993570503592491,-0.0008320486436598002,0.006400743020931258
1761467622184920300,6.32292041015625,-0.0028986440509557723,0.007523536505782976,0.00414863954547327
1761467622194873300,6.332873291015625,0.006228665256500244,0.0023277305615134534,0.016521616243268363
1761467622204826400,6.342826416015625,-0.0037982232391834255,0.002677420782018453,-0.001555458414228633
1761467622214779400,6.352779296875,0.006376549294590949,0.004799180442653596,0.014289240381587296
1761467622224732400,6.362732421875,-0.004847440031170845,0.0023269451102241874,-0.0007407033986644819
1761467622234686500,6.3726865234375,-0.010385200414061546,0.019328421858884393,-0.0055022598112467675
1761467622244639500,6.382639404296875,-0.0020066636472940444,0.0008634849615395068,0.011957523198123089
1761467622254592500,6.392592529296875,-0.0021568857729434964,0.004223581644939259,-0.0009039311363594606
1761467622264545300,6.402545166015625,-0.0020078326910734174,0.0026265308449976146,0.008273245194810442
1761467622274498300,6.412498291015625,-0.011435586249828338,0.005189969858527183,-0.003999686928302981
1761467622284451300,6.422451416015625,0.0030792613148689267,0.001340902348095551,-0.010527220966946332
1761467622294404400,6.432404296875,0.0008317746490240096,0.0019597009667195377,0.011491106696194037
1761467622304357400,6.442357421875,0.0033738603472709652,0.001734249047236517,-0.005027719368366524
1761467622314310400,6.452310302734375,-0.0032090251743793485,0.00515231386241503,-0.0003066319634905085
1761467622324264200,6.46226416015625,-0.0018628712624311446,0.0017259378766175358,0.0007549328534165397
1761467622334217200,6.47221728515625,-0.01353518887758255,0.0055214759683702135,0.003048240555520169
1761467622344170200,6.482170166015625,0.005019873988628387,0.008518840286601334,0.0073498832721961655
1761467622354123300,6.492123291015625,-0.0029109190106391906,0.0022044786411803212,0.016725144025310872
1761467622364076300,6.502076171875,0.00023147066831588744,0.0047573140623047945,0.0035686431338544933
1761467622374029300,6.512029296875,-0.0009667992055416107,0.008115008726064115,0.00035867724455893035
1761467622383982000,6.521982177734375,-0.0030628947019577025,0.006370978070329874,-0.0019364068561000748
1761467622393935000,6.53193505859375,-0.005756371569633483,-0.0036350685667246576,0.00523808331657201
1761467622403888000,6.54188818359375,-0.0027630349725484846,0.005163045318983495,0.0006245433728210627
1761467622413842200,6.55184228515625,-0.0069528878778219215,-0.00965761679187417,0.00687792751204688
1761467622423795200,6.561795166015625,-0.0015659341424703597,-0.0064005694909952575,0.0072549258645856745
1761467622433748200,6.571748291015625,-0.00036766426861286163,-0.013687639492936431,0.010857722429791465
1761467622443701200,6.581701171875,0.00008066402077674865,-0.0017238555173855275,0.012003417299618013
1761467622453654300,6.591654296875,0.003971826240420341,0.01035579165648669,-0.00013119319819379597
1761467622463607300,6.601607177734375,0.0009784896433353424,0.00007841726476326584,0.005040382487117312
1761467622473560300,6.611560302734375,-0.007251578563451767,-0.0027743418178521094,0.00963361029520165
1761467622483513300,6.621513427734375,-0.0050064299851655955,0.00526069700717926,0.009773566755163483
1761467622493466400,6.63146630859375,-0.005306289714574814,0.004539807987259701,0.000041487354435957964
1761467622503420400,6.64142041015625,-0.005904840129613876,-0.0038716629347298292,0.007785909202438779
1761467622513373400,6.65137353515625,-0.006503390544652939,0.00436566612990573,0.00457366459108889
1761467622523326500,6.661326416015625,-0.007102525481581688,0.00885366173153743,0.001330705181066878
1761467622533279500,6.671279541015625,0.0006797989577054977,0.0021828969970345497,0.0033936381933977826
1761467622543232300,6.681232177734375,-0.008746201035380362,0.013175269524008035,0.0017994780368637293
1761467622553185300,6.691185302734375,-0.004409048613905907,0.017512211882928386,0.011173624545126222
1761467622563138300,6.70113818359375,-0.004109188884496688,-0.005112100583035499,-0.003953687795531005
1761467622573091300,6.71109130859375,-0.005455927318334579,-0.00407217220920138,-0.0017738412721082567
1761467622583044400,6.72104443359375,0.000678045392036438,0.012737024237215518,-0.0015137701303930952
1761467622592998100,6.730998046875,0.0024736966371536255,-0.0025151885581668463,0.002211040812707506
1761467622602951200,6.740951171875,-0.010845803663134574,-0.0012463467992842197,-0.005346617158385925
1761467622612904200,6.750904296875,-0.014586743757128715,-0.00020506671858020126,-0.002824852728960104
1761467622622857200,6.760857177734375,-0.0002209492743015289,0.011452646982483565,-0.0003116506319027394
1761467622632810200,6.770810302734375,0.0006762918263673782,0.005930376429669559,0.0003324650910682976
1761467622642763300,6.78076318359375,-0.014736965882778168,0.0020466851304285225,0.0005996829262003302
1761467622652716300,6.79071630859375,-0.011444938600063324,0.0027934483771212396,0.0010649851832771674
1761467622662669000,6.8006689453125,0.005465864190459251,0.005228657901100814,0.007972321452898903
1761467622672622000,6.8106220703125,0.007859481328725814,0.0046968891119584435,-0.003369923957670107
1761467622682576400,6.820576416015625,-0.015035656568408011,0.01325516635980457,-0.015208620248828082
1761467622692529200,6.830529052734375,0.0029208558827638624,0.009659580420097336,0.0003912734730634838
1761467622702482200,6.840482177734375,0.007709259203076363,0.004566467665322125,0.018915055285021663
1761467622712435200,6.850435302734375,-0.015184709650278091,0.005602633179491385,0.00431822395871859
1761467622722388200,6.86038818359375,-0.0036626141607761383,0.006821023392770439,0.004042452924372628
1761467622732341200,6.87034130859375,-0.00007189619243144989,0.011316599512659013,0.0016518268942134454
1761467622742294300,6.880294189453125,-0.005308043280243873,-0.001152046978799626,-0.001909728911728598
1761467622752247300,6.890247314453125,-0.004261749097704887,-0.0007769848550204187,-0.007895347226550803
1761467622762200300,6.900200439453125,-0.005757540613412856,-0.0014077570392284542,0.009953494465909898
1761467622772154400,6.910154296875,-0.006954641443490982,0.0044462479522917415,-0.003521333393407985
1761467622782107400,6.920107421875,-0.011444938600063324,0.004945100852521136,0.003408949926961213
1761467622792060400,6.930060302734375,-0.00037292496562004086,-0.0035532537684775886,0.004561891954904422
1761467622802013400,6.940013427734375,-0.0048608840346336364,0.003110715899057686,-0.0029802168206078928
1761467622811966500,6.949966552734375,-0.014736965882778168,0.0177904443024192,0.005715089711174368
1761467622821919200,6.959919189453125,-0.0024678514182567596,-0.00027298998879268766,0.00018320651322137563
1761467622831872300,6.969872314453125,0.0002262099713087082,-0.0020937848083209245,-0.0017742202980211004
1761467622841825300,6.9798251953125,-0.0033656770408153533,-0.0008606902162544428,0.0012254729746142402
1761467622851778300,6.9897783203125,-0.005460018971562385,-0.0028153953474480656,0.007694979515974409
1761467622861732600,6.999732666015625,0.005763385832309722,0.008809749524574726,0.01142009185317438
1761467622871685400,7.009685302734375,-0.007104863569140434,0.00037898024707101285,0.0039975086709484456
1761467622881638400,7.019638427734375,-0.007402969732880592,0.0025678046613931654,-0.006303602789388969
1761467622891591400,7.02959130859375,-0.007550269249081611,0.011109523500083015,0.002849644676921889
1761467622901544400,7.03954443359375,-0.012488310173153877,-0.0014677344650030136,0.006629889301420189
1761467622911497500,7.04949755859375,0.002176174995303154,0.0039170638458803295,0.0028847799223847685
1761467622921450500,7.059450439453125,-0.008896423161029815,0.006883128843549639,-0.00011662581672426312
1761467622931403500,7.069403564453125,-0.007849544456601142,0.014218494966626166,-0.016765065043745562
1761467622941357300,7.079357421875,-0.018175123637914656,0.0030264625485520807,-0.0005480303707765415
1761467622951310300,7.089310302734375,-0.0024620061993598937,0.0020250578205101193,-0.004677517691208049
1761467622961263400,7.099263427734375,-0.011291793864965437,0.0002931011950597167,0.0029764585275202987
1761467622971216400,7.10921630859375,-0.0023129531174898147,0.005210629054065793,-0.0016571834893431513
1761467622981169400,7.11916943359375,0.005018120422959327,0.0006063227295409888,-0.009239496411080472
1761467622991122400,7.129122314453125,-0.005007014507055282,0.010012202383205293,0.015297741570696233
1761467623001075200,7.1390751953125,-0.003062310180068016,0.014865012709237634,0.006070451620640233
1761467623011028200,7.1490283203125,-0.016976853764057158,0.004439361553778872,0.0070454980647191405
1761467623020981200,7.158981201171875,-0.003658522507548332,0.0023106058967765418,0.022046051353705114
1761467623030935300,7.168935302734375,0.009209726893901824,0.0017251524253282695,0.006752383169927634
1761467623040888300,7.178888427734375,-0.0017155717462301254,-0.0058000097819603975,0.0038330022916197777
1761467623050841300,7.18884130859375,-0.01727963610291481,0.006585086611891165,0.011284254445903934
1761467623060794400,7.19879443359375,0.005614332750439643,0.003793081273185089,0.01262259037757758
1761467623070747400,7.208747314453125,0.0012748422414064406,0.008555692565115168,0.010232704132935031
1761467623080700400,7.218700439453125,0.01040332059264183,0.004807582944817841,-0.003939143246947788
1761467623090653400,7.2286533203125,-0.004410802179574966,-0.0034474644395988433,0.009085136966430582
1761467623100606500,7.2386064453125,0.0014256488889455795,-0.0040782640232704575,-0.00026693470734171567
1761467623110559500,7.2485595703125,0.001724339574575424,0.0008971680354326963,-0.0037432005497394128
1761467623120513500,7.258513427734375,-0.005158405676484108,0.001762616625195369,0.005931353677203878
1761467623130466600,7.268466552734375,-0.009048398852348326,0.009994593661278486,0.011553435909259132
1761467623140419600,7.278419677734375,-0.008899930292367934,-0.0062546490811277175,0.013483198395441286
1761467623150372400,7.288372314453125,-0.009948562562465667,0.0012898023485206067,0.005376811367250048
1761467623160325400,7.298325439453125,0.001723170530796051,0.014027749034343286,-0.0018383441759506239
1761467623170278400,7.3082783203125,-0.00007189619243144989,0.0034756584876216947,-0.002749481371231377
1761467623180231400,7.3182314453125,-0.008749708166718483,0.0009775306621100752,0.007664799006842076
1761467623190184400,7.328184326171875,-0.005907178217172623,0.0002643408914562315,0.010163657484715804
1761467623200137500,7.338137451171875,-0.012789338946342467,-0.001581086045829579,0.0027458326759980988
1761467623210091300,7.34809130859375,0.011152093133330345,0.002200304789561778,0.009521359259495512
1761467623220044300,7.358044189453125,0.0014250643670558928,-0.003129192270664498,-0.002479505323432386
1761467623229997300,7.367997314453125,0.0012748422414064406,0.0013970529821235686,0.008877937656268478
1761467623239950300,7.377950439453125,-0.010545943933725356,0.0004619458227884024,0.012624421575060114
1761467623249903400,7.3879033203125,-0.005608487531542777,-0.0022136665946338326,0.00020467399293556807
1761467623259856400,7.3978564453125,-0.00530862780213356,-0.003887088832724839,0.0018319738006684929
1761467623269809400,7.407809326171875,-0.010395721808075905,0.009080785018298775,-0.00749859842734877
1761467623279762200,7.41776220703125,-0.007552022814750671,0.01637556340266019,0.004498612893768586
1761467623289716500,7.427716552734375,-0.012191373053193092,0.025402271013008428,0.013039158122101798
1761467623299669200,7.437669189453125,0.0000789104551076889,0.018205299580469726,0.006923191425879486
1761467623309622300,7.447622314453125,-0.015483400335907935,0.002684544642549008,0.0061126741940155625
1761467623319575300,7.4575751953125,-0.008449263915419577,0.004550055386638268,-0.00167643161250744
1761467623329528300,7.4675283203125,-0.01054360584616661,-0.007471230929810553,0.0010377912156749516
1761467623339481300,7.4774814453125,0.0003805237501859665,0.005787871819594875,0.0029525661952793597
1761467623349434400,7.487434326171875,0.001129296290874481,-0.0005372304155491293,-0.003483581499173306
1761467623359387400,7.497387451171875,-0.005603811356425285,0.01756301048840396,-0.006277034442871809
1761467623369340400,7.50734033203125,-0.007997428494691849,0.004199780644243583,-0.0020197605908848343
1761467623379294500,7.51729443359375,-0.00066401686668396,-0.0028821495738811788,0.000519859155640006
1761467623389247500,7.52724755859375,0.002326397120952606,-0.01130180380232632,0.002564927717717364
1761467623399200500,7.537200439453125,-0.011589900028705595,0.004005171387596056,-0.001889384810021147
1761467623409153500,7.547153564453125,0.0012789338946342468,-0.003051441726181656,-0.00846779965253081
1761467623419106600,7.5571064453125,0.0033750293910503387,0.01634977137427777,0.0002977636704454198
1761467623429059300,7.567059326171875,-0.009793664261698722,-0.007850530837289989,0.022711237264168446
1761467623439012400,7.577012451171875,-0.014281623330712317,-0.013611103658005594,0.0025387383971130473
1761467623448965400,7.58696533203125,0.005022212076187134,0.004460605271207168,-0.003281012698356062
1761467623458919200,7.596919189453125,-0.009492635488510131,-0.0058748925159219645,0.006102472460409626
1761467623468872200,7.6068720703125,-0.019219079732894898,-0.006043755409959703,0.00009973404742777346
1761467623478825200,7.6168251953125,-0.006200608205795288,0.006066012907540426,-0.004274014924233779
1761467623488778200,7.6267783203125,0.009063011899590492,0.002883090288797393,-0.011283167600515297
1761467623498731300,7.636731201171875,-0.0073965399920940395,-0.00818471296140924,0.006587511464417912
1761467623508684300,7.646684326171875,-0.007995674929022789,-0.006513738408731296,0.016723395026219078
1761467623518637300,7.65663720703125,-0.0056026423126459115,0.0163065989528317,0.009659584986674599
1761467623528590300,7.66659033203125,-0.00036591070294380185,0.004501485270867124,-0.01178706200204324
1761467623538543400,7.67654345703125,-0.001415127494931221,-0.00467383702993393,-0.00477372634098865
1761467623548497400,7.686497314453125,-0.006204115337133408,0.0020929445581045,0.004167522342456505
1761467623558450400,7.696450439453125,-0.008149988707900046,0.003752292605070397,-0.0012872541984077542
1761467623568403500,7.706403564453125,-0.00904781433045864,-0.0038697541054338214,-0.0065068611433729525
1761467623578356200,7.716356201171875,-0.0020154314756393433,0.00200319304857403,-0.008937010899744927
1761467623588309200,7.726309326171875,-0.014436521631479262,0.002545309701794758,0.0003630976913496852
1761467623598262300,7.73626220703125,-0.004261164575815201,0.004492242518486455,-0.006417260330892168
1761467623608215300,7.74621533203125,-0.011299392649531365,0.007858613679045811,0.0017398568041156976
1761467623618168300,7.756168212890625,0.0018657938718795776,0.007416514201043173,0.006773932848032563
1761467623628121300,7.766121337890625,-0.018933833050727843,0.006687478407286107,0.0028936345156980675
1761467623638075400,7.776075439453125,-0.008009703454375267,-0.00012294139307923615,0.003908565445593558
1761467623648028400,7.7860283203125,0.00486029951274395,0.003747004508599639,0.006035864364448935
1761467623657981400,7.7959814453125,-0.003218377524614334,-0.00289454326457344,0.009803418470732867
1761467623667934500,7.8059345703125,-0.015787351718544958,0.002922508983733132,0.008524991466174832
1761467623677887500,7.815887451171875,-0.006956979531049728,0.008028965277271346,0.000002370053599588573
1761467623687840500,7.825840576171875,0.008306640574336051,0.01699764082375914,0.0016865785471862182
1761467623697793500,7.83579345703125,-0.002018354085087776,0.0006782828540541231,0.004945415946352295
1761467623707746300,7.845746337890625,-0.006656535279750824,0.0022300240743905303,-0.002513160997861996
