time,seconds_elapsed,z,y,x
1761467615920689200,0.058689208984375,0.001114693470299244,0.0013897665776312351,-0.0017865770496428013
1761467615930642200,0.06864208984375,-0.0012139658210799098,0.0004702750011347234,-0.0007293915841728449
1761467615940595200,0.07859521484375,0.0005969837075099349,0.0007150194724090397,-0.0009906478226184845
1761467615950548000,0.0885478515625,0.000710225896909833,0.00003378809196874499,-0.001380442176014185
1761467615960501000,0.0985009765625,-0.0004162912373431027,-0.0008064392022788525,-0.0014867023564875126
1761467615970454000,0.1084541015625,-0.0005290741100907326,-0.0007163635455071926,0.00026112631894648075
1761467615980408000,0.118407958984375,-0.002044412773102522,-0.000556840212084353,0.0004486129619181156
1761467615990361000,0.128361083984375,-0.0008506739395670593,-0.0008960928535088897,0.0008134662639349699
1761467616000314000,0.138314208984375,0.00048223818885162473,0.000218440021853894,0.0006451543886214495
1761467616010267100,0.14826708984375,0.00038615637458860874,-0.00006118649616837502,-0.0003971140831708908
1761467616020220200,0.15822021484375,0.00014940131222829223,0.0013002214254811406,-0.001020027557387948
1761467616030173200,0.168173095703125,-0.000213002844247967,0.00021607731468975544,0.0008291793055832386
1761467616040126200,0.178126220703125,0.0010916797909885645,-0.0005658267764374614,0.0002520724665373564
1761467616050079200,0.188079345703125,-0.0006073066033422947,-0.00011465308489277959,0.00033409823663532734
1761467616060032300,0.1980322265625,-0.0022054696455597878,0.00006244715768843889,0.0002241097390651703
1761467616069985000,0.207985107421875,0.0009032106027007103,-0.0015397127717733383,0.0007935811299830675
1761467616079938000,0.21793798828125,-0.00015832541976124048,0.0007287677726708353,-0.0005294771399348974
1761467616089892000,0.22789208984375,-0.0005275957519188523,0.0005405163974501193,-0.000738535076379776
1761467616099844900,0.237844970703125,0.0004037116887047887,0.0012664941605180502,-0.0005252158734947443
1761467616109798000,0.2477978515625,-0.0006703314138576388,0.0004021301865577698,0.0008249173406511545
1761467616119751000,0.2577509765625,-0.0002357034827582538,-0.00016831891844049096,0.00044222106225788593
1761467616129704000,0.267703857421875,0.0012065812479704618,-0.0005017787916585803,-0.0007083527743816376
1761467616139657000,0.277656982421875,0.0010121705709025264,-0.0004165576247032732,-0.0005389756988734007
1761467616149610000,0.28760986328125,-0.0016550952568650246,-0.0008517521200701594,0.0007744950708001852
1761467616159563000,0.29756298828125,-0.00023136928211897612,-0.0006629340350627899,-0.0007080866489559412
1761467616169516000,0.30751611328125,0.0010283894371241331,0.0016170304734259844,-0.00040626199916005135
1761467616179469000,0.317468994140625,0.0011293233837932348,0.00020475609926506877,0.0015176056185737252
1761467616189423000,0.327423095703125,0.0013720655115321279,-0.0004336654965300113,-0.0007069306448101997
1761467616199376100,0.337376220703125,0.0011917693773284554,-0.0003122253401670605,0.000058728037402033806
1761467616209329200,0.3473291015625,-0.0008177409181371331,-0.0009406969766132534,-0.0007599266245961189
1761467616219282200,0.3572822265625,0.00028267723973840475,0.0006694502080790699,0.002025207271799445
1761467616229235000,0.36723486328125,0.0003573359572328627,0.00022856000578030944,-0.00010905275121331215
1761467616239188000,0.37718798828125,-0.0010778415016829967,-0.0006404294399544597,-0.0007293028756976128
1761467616249141000,0.38714111328125,0.0006984868668951094,0.00024054426467046142,-0.00038655404932796955
1761467616259094000,0.397093994140625,-0.001468793605454266,-0.0011549522168934345,-0.0011412939056754112
1761467616269047000,0.407047119140625,0.0010015459265559912,0.0015288838185369968,0.0016157003119587898
1761467616279000000,0.417,0.00016691128257662058,-0.0006626313552260399,0.0005219399463385344
1761467616288953000,0.426953125,0.0003085177158936858,-0.0010282174916937947,0.0005164360627532005
1761467616298907100,0.4369072265625,-0.0018507733475416899,0.0006375897210091352,0.0008368142880499363
1761467616308860200,0.446860107421875,0.00023307662922888994,0.0002810584846884012,0.0003178524784743786
1761467616318813200,0.456813232421875,-0.0006803876021876931,0.0007551010930910707,0.0006502149626612663
1761467616328766200,0.46676611328125,0.0004923581727780402,-0.001715281279757619,-0.00022916123270988464
1761467616338719200,0.47671923828125,-0.0014160629361867905,0.00017929152818396688,0.0022225447464734316
1761467616348672300,0.48667236328125,-0.0018615885637700558,0.0003342182608321309,-0.00046662683598697186
1761467616358625000,0.496625,0.00029823515797033906,-0.0013414425775408745,0.000059081241488456726
1761467616368578000,0.506578125,-0.00007357215508818626,0.0013858720194548368,0.00008438271470367908
1761467616378531000,0.516531005859375,-0.0004338978324085474,0.00008225475903600454,0.0007379224989563227
1761467616388484000,0.526484130859375,0.000035011034924536943,-0.0003381924470886588,0.0006924709305167198
1761467616398438000,0.53643798828125,0.0009689816506579518,-0.0003600303898565471,0.0008133784867823124
1761467616408391000,0.546390869140625,-0.0004860040789935738,0.0003359175752848387,0.0005986376199871302
1761467616418344000,0.556343994140625,0.0002431694301776588,-0.00021003041183575988,0.0014154290547594428
1761467616428297000,0.566296875,-0.0009585319203324616,0.0015942290192469954,0.00018655811436474323
1761467616438250000,0.57625,-0.0004935440374538302,0.0002650453243404627,-0.0003415467217564583
1761467616448203000,0.586203125,-0.00011931214248761535,-0.0008321463246829808,-0.00025028944946825504
1761467616458156000,0.596156005859375,-0.0011856418568640947,0.00037799408892169595,0.0007089811842888594
1761467616468109000,0.606109130859375,0.0004753053653985262,-0.0017406789120286703,0.0001842512283474207
1761467616478062000,0.61606201171875,0.0009914259426295757,-0.000933741161134094,0.001196518773213029
1761467616488014800,0.626014892578125,0.0010448080720379949,-0.00021002843277528882,-0.00023821555078029633
1761467616497969200,0.63596923828125,-0.000016994192264974117,0.000997448805719614,0.0005364979151636362
1761467616507922000,0.645921875,-0.00008597824489697814,-0.00025566609110683203,-0.00037021818570792675
1761467616517875000,0.655875,0.001000058837234974,0.00028282502898946404,0.0006417830009013414
1761467616527828000,0.665827880859375,-0.0003013738023582846,0.0002487660385668278,0.001104283146560192
1761467616537781000,0.675781005859375,-0.0004073676245752722,-0.0006599045591428876,-0.0008419549558311701
1761467616547734000,0.685734130859375,-0.0005755042075179517,-0.0003804022853728384,-0.0015247876290231943
1761467616557687000,0.69568701171875,0.0015310562448576093,0.00018472049850970507,0.000056863995268940926
1761467616567640000,0.70564013671875,-0.000965116370934993,-0.0007243849686346948,-0.0012577627785503864
1761467616577593000,0.715593017578125,-0.0009789648465812206,0.0007403536001220345,-0.0002412339672446251
1761467616587546000,0.725546142578125,-0.0006465694168582559,0.0006399819394573569,-0.0007498976774513721
1761467616597500200,0.735500244140625,0.0010416083969175816,0.00016806978965178132,0.0001475876197218895
1761467616607453200,0.745453125,-0.0019332856172695756,-0.0018173803109675646,0.00043334439396858215
1761467616617406200,0.75540625,0.0004081656225025654,0.00028651690809056163,0.0015470783691853285
1761467616627359200,0.765359130859375,-0.0007089597638696432,0.0007963759126141667,0.0008488870225846767
1761467616637312000,0.77531201171875,-0.00012306432472541928,0.00007519189966842532,0.000056862831115722656
1761467616647265000,0.78526513671875,0.00027861667331308126,-0.0012617107713595033,0.0008454245980829
1761467616657218000,0.795218017578125,0.0004485263489186764,-0.000359431782271713,0.0001183818094432354
1761467616667171000,0.805171142578125,-0.0005101186688989401,-0.0006258838693611324,-0.00034713977947831154
1761467616677124000,0.8151240234375,0.0009804526343941689,0.0012513783294707537,0.0019767344929277897
1761467616687077000,0.8250771484375,-0.00015456031542271376,0.00020928523736074567,-0.0006130116526037455
1761467616697030100,0.835030029296875,-0.0006445819744840264,-0.001042400486767292,0.0001507829874753952
1761467616706984000,0.84498388671875,0.0021176589652895927,0.0007558641955256462,0.0007413830608129501
1761467616716937000,0.85493701171875,-0.0005574863171204925,-0.0007757197599858046,0.0003589531406760216
1761467616726890000,0.864889892578125,0.0008764512604102492,0.0002659469028003514,0.0009759208187460899
1761467616736843000,0.874843017578125,0.0004479485796764493,-0.000562296190764755,0.0011567494366317987
1761467616746796000,0.884796142578125,-0.00013050861889496446,0.0005837577627971768,0.0005737810861319304
1761467616756749000,0.8947490234375,0.0005757617182098329,-0.0006311762845143676,0.0003109271638095379
1761467616766701800,0.904701904296875,0.0006260588997974992,0.00030136265559121966,-0.0014487120788544416
1761467616776654800,0.91465478515625,-0.001495681470260024,-0.0008230239618569613,-0.00008037989027798176
1761467616786607900,0.92460791015625,0.001060310984030366,0.00010212440975010395,-0.00001912703737616539
1761467616796561000,0.934560791015625,0.00034551852149888873,-0.0006044122274033725,0.0009119141614064574
1761467616806514000,0.944513916015625,-0.00016411964315921068,-0.00022480770712718368,0.0006356569938361645
1761467616816468000,0.954468017578125,0.00031897774897515774,-0.002138821640983224,0.00038425461389124393
1761467616826421000,0.9644208984375,0.0012057824060320854,0.00008651346433907747,0.0004940645303577185
1761467616836374000,0.9743740234375,0.0012084455229341984,-0.00030017748940736055,-0.0013504407834261656
1761467616846326300,0.984326171875,-0.000203452305868268,-0.00020347064128145576,0.0003364055883139372
1761467616856279300,0.994279296875,0.0005060138064436615,0.0002521962160244584,-0.0008625495247542858
1761467616866232300,1.004232421875,0.0010534038301557302,-0.0009901343146339059,0.00020165042951703072
1761467616876185300,1.014185302734375,-0.0008094773511402309,-0.0010188964661210775,0.00025651161558926105
1761467616886138400,1.024138427734375,0.00044665398309007287,-0.0005547390901483595,-0.00018166634254157543
1761467616896091400,1.03409130859375,-0.00003457925049588084,0.00003435212420299649,0.0010788077488541603
1761467616906044400,1.04404443359375,0.0005225253407843411,-0.00010786316124722362,-0.0005552207585424185
1761467616915998500,1.05399853515625,0.0017667540814727545,0.00045832491014152765,-0.00008810218423604965
1761467616925951500,1.063951416015625,-0.00008414272451773286,-0.0010596769861876965,0.0006309512536972761
1761467616935904500,1.073904541015625,0.0015438476111739874,-0.0008599398424848914,0.00022322125732898712
1761467616945857500,1.083857421875,0.0009133672574535012,0.00020315992878749967,-0.00013630581088364124
1761467616955810300,1.093810302734375,-0.00012127083027735353,0.00040236435597762465,-0.0005765261594206095
1761467616965763300,1.103763427734375,-0.0005985181778669357,0.0001141124521382153,-0.0008382252417504787
1761467616975716400,1.11371630859375,-0.0007274151430465281,0.0005910846521146595,0.0008869704324752092
1761467616985669400,1.12366943359375,-0.0020751953125,-0.00018396362429484725,0.00013009901158511639
1761467616995622400,1.133622314453125,-0.0010578678920865059,0.00048422347754240036,0.0008973558433353901
1761467617005575400,1.143575439453125,0.001592979533597827,0.0000018231803551316261,-0.0004344913177192211
1761467617015529500,1.153529541015625,0.001210017129778862,-0.0010879422770813107,-0.0005649863742291927
1761467617025482500,1.163482421875,-0.00025769794592633843,-0.0002766756515484303,0.0005223825573921204
1761467617035435500,1.173435546875,-0.0005288077518343925,-0.002171780914068222,0.0013405055506154895
1761467617045388500,1.183388427734375,0.0008280728361569345,0.0003968378296121955,0.0005000119563192129
1761467617055341600,1.193341552734375,0.00026561314007267356,0.0010863301577046514,-0.00014367420226335526
1761467617065294600,1.203294677734375,0.00002853770274668932,-0.0007012129644863307,0.0030657921452075243
1761467617075247600,1.21324755859375,0.0003286759019829333,0.00007909326814115047,-0.00011695153079926968
1761467617085200400,1.223200439453125,0.0008168143103830516,0.0002818554639816284,0.00028118863701820374
1761467617095153400,1.2331533203125,0.00020375457825139165,0.0014062419068068266,0.0006822608411312103
1761467617105106400,1.2431064453125,-0.001601198222488165,0.0008576670079492033,-0.0010219833347946405
1761467617115059500,1.2530595703125,0.0004012325662188232,-0.0017101529520004988,0.001475795404985547
1761467617125013200,1.26301318359375,-0.0018402310088276863,0.00015312660252675414,0.0009470684453845024
1761467617134966300,1.27296630859375,-0.000884688924998045,0.0008921538246795535,0.0006804859731346369
1761467617144919300,1.282919189453125,0.0020170912612229586,-0.0011126738972961903,0.0009156431769952178
1761467617154872300,1.292872314453125,1.3213139027357101e-8,0.0003201068611815572,-0.0007475009188055992
1761467617164825300,1.302825439453125,0.00024719140492379665,-0.0006023120949976146,0.0005093337967991829
1761467617174778400,1.3127783203125,0.000994740636087954,-0.0005844688857905567,0.000586565351113677
1761467617184731400,1.3227314453125,0.0007670132326893508,0.000256821746006608,0.001615166082046926
1761467617194684400,1.332684326171875,0.00008897238876670599,-0.000505108677316457,0.0017392693553119898
1761467617204637400,1.342637451171875,0.0006498341099359095,0.0005977062974125147,-0.00038353633135557175
1761467617214590200,1.352590087890625,0.0007457079482264817,-0.0003072358085773885,0.0006359217222779989
1761467617224543200,1.362543212890625,-0.000453203305369243,0.00019578513456508517,0.0003579561598598957
1761467617234497300,1.372497314453125,0.00008262472692877054,0.0009326817817054689,0.0008407871937379241
1761467617244450300,1.3824501953125,-0.0007741412846371531,-0.0007624799036420882,0.00046901218593120575
1761467617254403300,1.3924033203125,0.00011641974560916424,0.0013360909651964903,0.00016514561139047146
1761467617264356400,1.4023564453125,0.00042526854667812586,0.0006183332297950983,-0.0003444831818342209
1761467617274309400,1.412309326171875,0.0008045026334002614,0.000891307252459228,0.001622261363081634
1761467617284262400,1.422262451171875,0.0005045879515819252,-0.0006399978883564472,-0.0014651499222964048
1761467617294215400,1.43221533203125,0.0006393438088707626,0.00032353377901017666,0.0017807106487452984
1761467617304168400,1.44216845703125,0.00007575034396722913,-0.0008837253553792834,0.0008176848059520125
1761467617314121500,1.45212158203125,0.000114099879283458,-0.0000363074941560626,-0.000716828741133213
1761467617324074500,1.462074462890625,-0.00035153923090547323,-0.0003546229563653469,0.0002667475491762161
1761467617334027500,1.472027587890625,0.0003438121057115495,0.001451533054932952,-0.0010848066303879023
1761467617343981600,1.481981689453125,-0.0014958952087908983,0.0016513627488166094,-0.0007383592892438173
1761467617353934600,1.4919345703125,-0.000209588382858783,0.0010726578766480088,0.0005082665011286736
1761467617363887400,1.501887451171875,0.00025404710322618484,0.0013643461279571056,0.00015776348300278187
1761467617373840400,1.51184033203125,0.0009342184057459235,0.00004075502511113882,-0.0008353292942047119
1761467617383793400,1.52179345703125,-0.002157782670110464,-0.00022098232875578105,-0.0001530633307993412
1761467617393746400,1.531746337890625,-0.0000022199819795787334,-0.000689432374201715,-0.0016343132592737675
1761467617403699500,1.541699462890625,-0.0009752270416356623,0.00044864200754091144,-0.000517956679686904
1761467617413652500,1.551652587890625,-0.001135016791522503,-0.0001178123930003494,-0.0002620269078761339
1761467617423605500,1.56160546875,-0.0006215113680809736,0.0008136904216371477,0.00031520798802375793
1761467617433558500,1.57155859375,-0.0006587955867871642,-0.0012491941452026367,-0.0007908027619123459
1761467617443511600,1.581511474609375,-0.0016376329585909843,-0.0009985619690269232,0.0006029806099832058
1761467617453465300,1.59146533203125,-0.00015052378876134753,-0.000355674943421036,0.0005758162587881088
1761467617463418400,1.60141845703125,-0.0001537505886517465,-0.0005834022886119783,-0.00019286619499325752
1761467617473371400,1.611371337890625,0.00003426859620958567,0.00037773256190121174,-0.0009508016519248486
1761467617483324400,1.621324462890625,0.00009951973333954811,0.00006224517710506916,-0.00016534747555851936
1761467617493277200,1.631277099609375,-0.0005763905355706811,0.0010249778861179948,-0.001095323357731104
1761467617503230200,1.641230224609375,-0.001059539383277297,0.0015790710458531976,-0.00026924023404717445
1761467617513183200,1.651183349609375,-0.00015220040222629905,-0.00048328094999305904,0.0006625998066738248
1761467617523136300,1.66113623046875,0.0009965903591364622,-0.0002828994474839419,-0.00038582622073590755
1761467617533089300,1.67108935546875,0.00007913133595138788,-0.00014281718176789582,-0.0008153941016644239
1761467617543042300,1.681042236328125,0.002112635411322117,-0.00026198665727861226,0.00020843115635216236
1761467617552995300,1.690995361328125,0.0012343248818069696,-0.0005088616744615138,0.000558104133233428
1761467617562949400,1.700949462890625,0.0005341703072190285,0.00042617303552106023,-0.0017379485070705414
1761467617572902400,1.71090234375,0.0003024752950295806,0.000223240174818784,0.0007760754087939858
1761467617582855400,1.72085546875,-0.0012581564951688051,-0.00035069716977886856,-0.0006852531805634499
1761467617592808400,1.730808349609375,-0.0013039627810940146,-0.00015309060108847916,-0.0011750087141990662
1761467617602761500,1.740761474609375,-0.0003161361673846841,0.00111991201993078,-0.00008452613838016987
1761467617612714500,1.750714599609375,-0.001729209441691637,0.0003438668791204691,-0.00041795382276177406
1761467617622667300,1.760667236328125,-0.0013736006803810596,0.0019616237841546535,0.0001476274337619543
1761467617632620300,1.770620361328125,-0.00032298360019922256,-0.0004224381409585476,-0.000002841232344508171
1761467617642573300,1.7805732421875,-0.0016714432276785374,0.00016499962657690048,0.0000071444083005189896
1761467617652526300,1.7905263671875,0.0002170042716898024,-0.00048640958266332746,-0.0017856955528259277
1761467617662480400,1.80048046875,-0.0009784389985725284,-0.0009572445414960384,-0.0007561047095805407
1761467617672433400,1.810433349609375,-0.0010229138424620032,-0.0006405946332961321,0.00023778690956532955
1761467617682386400,1.820386474609375,-0.0013482808135449886,0.0003130183322355151,0.00014194194227457047
1761467617692339500,1.83033935546875,-0.000009243492968380451,0.00046455214032903314,-0.000004798173904418945
1761467617702292500,1.84029248046875,-0.0001354709966108203,0.000042224302887916565,0.0003794517833739519
1761467617712245500,1.85024560546875,0.00020967464661225677,0.0011136140674352646,-0.00003866455517709255
1761467617722198500,1.860198486328125,-0.0005756805185228586,0.002024100860580802,0.0013647093437612057
1761467617732151600,1.870151611328125,-0.0006294763879850507,-0.0004545031697489321,-0.0006726088467985392
1761467617742104600,1.8801044921875,-0.0012500932207331061,0.00039553968235850334,-0.0000076123978942632675
1761467617752057300,1.890057373046875,-0.0014977671671658754,-0.0009725261479616165,0.0007319473661482334
1761467617762010400,1.90001025390625,-0.0005403251852840185,-0.000579298532102257,-0.000005786074325442314
1761467617771964400,1.90996435546875,-0.0011435311753302813,0.0009956948924809694,-0.00020472402684390545
1761467617781917400,1.91991748046875,0.000060270074754953384,-0.00010245450539514422,0.0010332075180485845
1761467617791870500,1.929870361328125,0.0005449653835967183,-0.0016633332706987858,0.0010909981792792678
1761467617801823500,1.939823486328125,0.00010273617226630449,-0.0005124801537021995,0.0009193986188620329
1761467617811776500,1.949776611328125,0.0008058107923716307,-0.0004938379861414433,-0.00035625556483864784
1761467617821729500,1.9597294921875,-0.00011999963317066431,-0.0006408222252503037,-0.0015910135116428137
1761467617831682600,1.9696826171875,-0.000020930019672960043,-0.000043208885472267866,-0.0012448024936020374
1761467617841635300,1.97963525390625,0.0004413024289533496,-0.0005411555175669491,0.0009151695994660258
1761467617851588400,1.98958837890625,0.00017631787341088057,0.0009960210882127285,0.00033273641020059586
1761467617861541400,1.999541259765625,-0.002546026138588786,-0.0008916392689570785,-0.0010304083116352558
1761467617871495200,2.0094951171875,-0.00017022009706124663,0.00025565054966136813,0.0008396633202210069
1761467617881448200,2.0194482421875,0.00009773089550435543,-0.00046854294487275183,0.00005274522118270397
1761467617891401200,2.029401123046875,-0.0009411682258360088,0.0006041782908141613,-0.0005856144707649946
1761467617901354000,2.03935400390625,-0.0002387941349297762,-0.00013992562890052795,-0.0010976281482726336
1761467617911307000,2.04930712890625,-0.0000100285978987813,0.000011608237400650978,0.00024167564697563648
1761467617921260000,2.059260009765625,-0.0006642568623647094,0.00011884450213983655,0.0006454694084823132
1761467617931213000,2.069213134765625,0.0006795741501264274,-0.00028755387756973505,-0.00047545507550239563
1761467617941166000,2.079166015625,-0.0003392724902369082,-0.0008615078404545784,0.0007412794511765242
1761467617951119000,2.089119140625,0.0011667452054098248,-0.0007517855847254395,0.0009042649762704968
1761467617961072000,2.099072021484375,-0.0005615637637674809,-0.0006364837172441185,0.00016622431576251984
1761467617971026200,2.109026123046875,-0.00040630149305798113,-0.0011552674695849419,-0.000814884202554822
1761467617980979200,2.118979248046875,-0.000009894778486341238,-0.00009659217903390527,0.000028832582756876945
1761467617990932200,2.12893212890625,-0.0005643649492412806,-0.000046258384827524424,-0.0004617217928171158
1761467618000885200,2.13888525390625,0.0007904240628704429,0.0007574729970656335,-0.0005062583368271589
1761467618010838300,2.14883837890625,0.0003190445713698864,0.0012661367654800415,0.0003845691680908203
1761467618020791300,2.158791259765625,0.00032786111114546657,-0.00002754811430349946,0.0005316163878887892
1761467618030744000,2.168744140625,0.0004074896569363773,0.0004185313009656966,0.0005611774977296591
1761467618040697000,2.178697021484375,-0.0017899952363222837,0.0006339665851555765,0.0000593897420912981
1761467618050650000,2.188650146484375,0.0014598602429032326,-0.0001673786318860948,0.0015409061452373862
1761467618060603100,2.19860302734375,0.000773213803768158,0.0007710920181125402,-0.00019670603796839714
1761467618070557200,2.20855712890625,0.000044572982005774975,0.0001881259959191084,0.00033539370633661747
1761467618080510200,2.21851025390625,0.0005248679080978036,-0.0007256593089550734,-0.0005634562112390995
1761467618090463200,2.228463134765625,0.0005166120827198029,0.00004079844802618027,0.00157692632637918
1761467618100416300,2.238416259765625,-0.0003929455124307424,-0.0008400810183957219,0.00006204051896929741
1761467618110369300,2.248369384765625,-0.00020066526485607028,0.001102162292227149,-0.0006788508035242558
1761467618120322300,2.258322265625,-0.00024314422626048326,-0.0006498855073004961,0.0008639760781079531
1761467618130275300,2.268275390625,-0.00041678230627439916,0.00015119335148483515,0.0010493320878595114
1761467618140228400,2.278228271484375,0.0004914535093121231,-0.0009703169926069677,0.00028164940886199474
1761467618150181400,2.288181396484375,0.00033246277598664165,0.0009527515503577888,0.0010084261884912848
1761467618160134100,2.298134033203125,0.000582260952796787,-0.0009101754985749722,-0.0009633228182792664
1761467618170088200,2.308088134765625,0.00045655976282432675,-0.0011099125258624554,0.0007197948871180415
1761467618180041000,2.318041015625,0.00048247893573716283,-0.0002902756677940488,0.0009494401747360826
1761467618189994000,2.327993896484375,-0.0010562955867499113,-0.0009531364776194096,-0.0013624501880258322
1761467618199947000,2.337947021484375,0.0006021918379701674,-0.0003786624001804739,0.0012808390893042088
1761467618209900000,2.347900146484375,0.0001611724146641791,-0.0005999710992909968,-0.0008211939129978418
1761467618219853000,2.35785302734375,0.00029013410676270723,-0.0003172161232214421,0.00019673514179885387
1761467618229806000,2.36780615234375,-0.00051680370233953,0.0005392564344219863,0.0010042055509984493
1761467618239759000,2.377759033203125,-0.0006573674036189914,-0.0007305347826331854,-0.0009052809327840805
1761467618249712000,2.387712158203125,0.0002174809924326837,-0.0005965777672827244,0.000005519948899745941
1761467618259665200,2.3976650390625,-0.00021481874864548445,-0.00036340419319458306,-0.0008680261671543121
1761467618269619200,2.407619140625,-0.0005695518339052796,0.0006195685127750039,0.0004976426716893911
1761467618279572200,2.417572265625,0.0005563178565353155,-0.0002723942161537707,0.0009123737690970302
1761467618289525200,2.427525146484375,-0.0009528955561108887,0.0007300195866264403,-0.0005345216486603022
1761467618299478300,2.437478271484375,-0.0009223442175425589,-0.00006722973193973303,-0.0006278320215642452
1761467618309431000,2.44743115234375,-0.0002895771758630872,0.00015967158833518624,-0.0006581922061741352
1761467618319384000,2.457384033203125,-0.0015572815900668502,-0.00134104466997087,0.0001599942333996296
1761467618329337000,2.467337158203125,0.00015939207514747977,-0.0004004162037745118,-0.0000288237351924181
1761467618339290000,2.4772900390625,-0.001077108783647418,0.000027368252631276846,0.00010993354953825474
1761467618349243100,2.4872431640625,-0.0005439439555630088,0.00020979478722438216,-0.00015451828949153423
1761467618359196200,2.497196044921875,0.000760492286644876,-0.00010885996744036674,0.0018845171434804797
1761467618369150200,2.507150146484375,0.0003181411884725094,0.00008688238449394703,-0.002529938705265522
1761467618379103200,2.517103271484375,-0.0018879056442528963,-0.0022035823203623295,-0.0009057065472006798
1761467618389056300,2.52705615234375,0.0011811212170869112,0.0019072729628533125,-0.00026628165505826473
1761467618399009300,2.53700927734375,0.0007687065517529845,0.00013557058991864324,0.000010135117918252945
1761467618408962300,2.54696240234375,-0.00021373352501541376,-0.0008724358631297946,-0.0002678988967090845
1761467618418915300,2.556915283203125,-0.0008113153744488955,-0.0005032293265685439,-0.00000606081448495388
1761467618428868400,2.566868408203125,0.00028031435795128345,-0.0011794059537351131,-0.00021858117543160915
1761467618438821000,2.576821044921875,-0.00003971235128119588,-0.001233261195011437,-0.00021810783073306084
1761467618448774100,2.586774169921875,-0.000010151241440325975,0.0009601183119229972,0.0009198610205203295
1761467618458727200,2.59672705078125,-0.0006942711188457906,0.00122113898396492,0.0010628864401951432
1761467618468681200,2.60668115234375,-0.0007030595443211496,-0.00037702397094108164,-0.0008711011614650488
1761467618478634200,2.61663427734375,-0.0018944824114441872,0.0007736608968116343,0.00005156686529517174
1761467618488587300,2.626587158203125,-0.00024012679932639003,-0.0005078521789982915,-0.00008345535025000572
1761467618498540300,2.636540283203125,0.00027625291841104627,0.0005104615702293813,0.0006319426465779543
1761467618508493300,2.646493408203125,0.0006008922937326133,-0.00027383939595893025,-0.00016034767031669617
1761467618518446000,2.656446044921875,-0.0006370354094542563,-0.00015785935102030635,0.0007551895687356591
1761467618528399000,2.666399169921875,0.00008920865366235375,-0.00014507619198411703,-0.0016866626683622599
1761467618538352000,2.67635205078125,0.0014883179683238268,0.0006015007384121418,-0.0009730109013617039
1761467618548305200,2.68630517578125,-0.0005205045454204082,-0.00018865911988541484,-0.0006009673234075308
1761467618558258200,2.696258056640625,-0.001828098320402205,-0.00005318701732903719,-0.0004139612428843975
1761467618568212200,2.706212158203125,-0.0016728360205888748,-0.0008007363649085164,0.00022013741545379162
1761467618578165200,2.716165283203125,0.00038245407631620765,-0.0009729505400173366,0.0015062300954014063
1761467618588118000,2.726117919921875,-0.001559256692416966,0.0002965783351100981,-0.0008373516611754894
1761467618598071000,2.736071044921875,-0.0009454915416426957,-0.0004336159909144044,-0.0005054858047515154
1761467618608024000,2.746024169921875,0.00011045183055102825,-0.00033081797300837934,-0.0011787328403443098
1761467618617977000,2.75597705078125,0.00028639636002480984,0.0012656725011765957,0.0012433972442522645
1761467618627930000,2.76593017578125,0.0007338074501603842,0.0010174659546464682,0.001221293001435697
1761467618637883100,2.775883056640625,-0.00100506073795259,0.0005863856640644372,-0.0017617286648601294
1761467618647836200,2.785836181640625,0.0009100184543058276,0.0008764038211666048,-0.0000780781265348196
1761467618657789200,2.7957890625,-0.0012417788384482265,0.0004633275093510747,-0.0008979437407106161
1761467618667743200,2.8057431640625,0.0014528074534609914,0.00032271258533000946,-0.0008976773824542761
1761467618677696300,2.8156962890625,-0.0003396956017240882,-0.0000472506508231163,0.00008170492947101593
1761467618687649300,2.825649169921875,-0.0006771180778741837,0.0012161530321463943,-0.00015185424126684666
1761467618697602300,2.835602294921875,0.0002374915056861937,-0.0002280545886605978,-0.0008713507559150457
1761467618707555300,2.845555419921875,0.00037650851299986243,-0.0014075685758143663,0.0011771527351811528
1761467618717508000,2.855508056640625,0.0002939841360785067,-0.0009495319100096822,-0.0001598407980054617
1761467618727461000,2.865461181640625,0.0016814910341054201,-0.0017130601918324828,0.00036160601302981377
1761467618737414100,2.8754140625,-0.0003916652058251202,-0.0009526297799311578,0.000020530540496110916
1761467618747367200,2.8853671875,0.0015484476462006569,0.00026656535919755697,0.00028524897061288357
1761467618757321200,2.8953212890625,-0.0004291375516913831,-0.0004225815646350384,-0.001804483588784933
1761467618767274200,2.905274169921875,-0.00048692815471440554,-0.0004667900502681732,-0.0007338926661759615
1761467618777227300,2.915227294921875,0.0004258271655999124,0.00018615613225847483,0.0009466747287660837
1761467618787180300,2.92518017578125,0.00022129638819023967,-0.0007632607594132423,0.00013574212789535522
1761467618797133300,2.93513330078125,0.00041281082667410374,-0.0003289904270786792,-0.0009759801905602217
1761467618807086300,2.94508642578125,-0.0010655098594725132,-0.0006424444727599621,-0.00042843446135520935
1761467618817039400,2.955039306640625,0.0004893876612186432,0.0006656638579443097,-0.000029655639082193375
1761467618826992400,2.964992431640625,-0.0006405916064977646,-0.0007956126937642694,0.001503792591392994
1761467618836945200,2.974945068359375,0.0011364042293280363,0.0002588808420114219,-0.0005316785536706448
1761467618846898200,2.984898193359375,0.001016561989672482,-0.00004711636574938893,-0.0008938682731240988
1761467618856852000,2.99485205078125,-0.001006432226859033,0.00026634777896106243,0.00010135537013411522
1761467618866805000,3.004804931640625,-0.0012288062134757638,-0.000350972986780107,0.00019669649191200733
1761467618876758000,3.014758056640625,0.00017314695287495852,-0.0013586560962721705,0.0005160805303603411
1761467618886711000,3.0247109375,-0.0005688098026439548,-0.0006438636919483542,0.00023857923224568367
1761467618896664000,3.0346640625,-0.00037060549948364496,0.0012279124930500984,0.0012340336106717587
1761467618906617000,3.0446171875,-0.00024090957595035434,-0.001447765389457345,-0.0007742561865597963
1761467618916570000,3.054570068359375,0.0006632204749621451,-0.0004354806733317673,-0.0013353233225643635
1761467618926523100,3.064523193359375,-0.00023133534705266356,0.0014047636650502682,0.0002689647953957319
1761467618936476200,3.07447607421875,-0.0002824102411977947,-0.00044697069097310305,-0.0013111671432852745
1761467618946429200,3.08442919921875,-0.00024592492263764143,0.0004507809644564986,-0.0009068993385881186
1761467618956383200,3.09438330078125,0.0012312934268265963,0.00045857956865802407,0.0004941977094858885
1761467618966336300,3.104336181640625,-0.0007690067286603153,-0.001213086536154151,0.0008862150134518743
1761467618976289000,3.1142890625,-0.00047218723921105266,0.0010866208467632532,0.0009137513116002083
1761467618986242000,3.124241943359375,-0.0018796678632497787,-0.0007243286818265915,0.001166219008155167
1761467618996195000,3.134195068359375,-0.0015784711576998234,-0.0006636269390583038,0.0005042888224124908
1761467619006148000,3.144148193359375,0.00006469921208918095,0.0008237485308200121,-0.0006749590393155813
1761467619016101000,3.15410107421875,0.000774627726059407,0.0001463390071876347,0.00021382351405918598
1761467619026054100,3.16405419921875,0.0002627681824378669,-0.0013397049624472857,0.0004412576090544462
1761467619036007200,3.174007080078125,0.0020801578648388386,0.0009252852760255337,-0.0003057743888348341
1761467619045960200,3.183960205078125,0.0012726874556392431,-0.0007415872532874346,0.0004074200987815857
1761467619055914200,3.193914306640625,0.00038915686309337616,-0.0007136185886338353,-0.00033904286101460457
1761467619065867300,3.2038671875,-0.0007176529034040868,0.001798274926841259,-0.0010272038634866476
1761467619075820300,3.2138203125,-0.0013407631777226925,0.001497952500358224,0.0014155041426420212
1761467619085773300,3.223773193359375,0.0003562030615285039,-0.0000951504334807396,-0.0014330130070447922
1761467619095726300,3.233726318359375,-0.00028868234949186444,-0.00022103264927864075,-0.00010589021258056164
1761467619105679000,3.24367919921875,0.0002444825368002057,0.0003094690036959946,0.0016440728213638067
1761467619115632000,3.253632080078125,0.0008296927553601563,0.00018562667537480593,-0.0011005147825926542
1761467619125585200,3.263585205078125,-0.0009631473221816123,0.00008815497858449817,0.0004009753465652466
1761467619135538200,3.2735380859375,-0.00045566295739263296,-0.0022923797369003296,-0.0008935392834246159
1761467619145491200,3.2834912109375,0.0007329058717004955,-0.0012622689828276634,0.0003203295636922121
1761467619155445000,3.293445068359375,0.000517672800924629,0.0006490600062534213,0.0004555715713649988
1761467619165398000,3.30339794921875,0.0004170053289271891,0.0008061864646151662,0.0001173501368612051
1761467619175351000,3.31335107421875,-0.0005565634346567094,0.00046732346527278423,0.0009593588765710592
1761467619185304000,3.323303955078125,-0.0004548307042568922,0.0002691843546926975,0.0003814529627561569
1761467619195257000,3.333257080078125,0.0006312347250059247,0.00015050556976348162,0.0003791116178035736
1761467619205210000,3.343210205078125,-0.0006774426437914371,0.0009920643642544746,0.0010358470026403666
1761467619215163100,3.3531630859375,0.0004236834356561303,-0.000039344566175714135,0.0007990706944838166
1761467619225116200,3.3631162109375,-0.00023891095770522952,0.00022537366021424532,-0.0003913622349500656
1761467619235069000,3.37306884765625,0.0010412028059363365,0.0016152826137840748,0.0001975784543901682
1761467619245022000,3.38302197265625,-0.0008208794170059264,0.000666664622258395,-0.0007307995110750198
1761467619254976000,3.39297607421875,-0.00017928291345015168,-0.0012918876018375158,-0.0007038498297333717
1761467619264929000,3.402928955078125,-0.0005201675230637193,0.0001366319484077394,0.00024609966203570366
1761467619274882000,3.412882080078125,0.00039585656486451626,-0.00013760232832282782,-0.0001088450662791729
1761467619284835000,3.4228349609375,0.0004451250424608588,0.00027172552654519677,0.0006253884639590979
1761467619294788000,3.4327880859375,0.00026731810066848993,0.0008585792966187,0.0010131490416824818
1761467619304741000,3.4427412109375,0.0005615974077954888,-0.0010873924475163221,0.0005122085567563772
1761467619314694100,3.452694091796875,-0.0005459572421386838,0.0010615899227559566,0.0009220482315868139
1761467619324647200,3.462647216796875,0.00008814141619950533,-0.0004090075090061873,-0.0001341614406555891
1761467619334600200,3.47260009765625,0.000809808901976794,-0.0006073908880352974,0.00025349180214107037
1761467619344553200,3.48255322265625,0.00038237153785303235,0.0020693521946668625,0.0011821361258625984
1761467619354507300,3.49250732421875,0.000884250330273062,0.0005140278371982276,-0.0006844315212219954
1761467619364460300,3.502460205078125,-0.00004625815199688077,0.0017390819266438484,0.00004527461715042591
1761467619374413300,3.512413330078125,-0.0018793935887515545,-0.000036408688174560666,0.00022667576558887959
1761467619384366000,3.522365966796875,-0.0007084016688168049,-0.0002433363115414977,0.0005899309180676937
1761467619394319000,3.532319091796875,-0.0004350311355665326,0.00022928795078769326,0.001481474144384265
1761467619404272000,3.542272216796875,0.00017216958804056048,0.0007627190789207816,0.000024724984541535378
1761467619414225200,3.55222509765625,-0.0007153713377192616,0.0015953895635902882,-0.0014821933582425117
1761467619424178200,3.56217822265625,-0.00003839581040665507,-0.000032334530260413885,-0.00013490021228790283
1761467619434131200,3.572131103515625,-0.001042524934746325,0.0006255109328776598,-0.0005226603243499994
1761467619444084200,3.582084228515625,-0.0008113625226542354,-0.00007543302490375936,0.0007588526932522655
1761467619454038000,3.5920380859375,0.000005645677447319031,0.000004071975126862526,-0.0003472121898084879
1761467619463991000,3.601990966796875,0.0009950100211426616,0.000029105693101882935,0.000051196664571762085
1761467619473944000,3.611944091796875,-0.0013299942947924137,0.0011075291549786925,-0.0013184286653995514
1761467619483897000,3.62189697265625,0.0012540710158646107,0.0009834258817136288,-0.0012374685611575842
1761467619493850000,3.63185009765625,-0.001619407208636403,0.00007140100933611393,0.0005850305315107107
1761467619503803100,3.64180322265625,-0.001523799728602171,0.0002844538539648056,-0.0004243075381964445
1761467619513756200,3.651756103515625,-0.0014673758996650577,0.00035438325721770525,-0.0007121595554053783
1761467619523709200,3.661709228515625,-0.00047854421427473426,-0.0004858440370298922,0.000267883762717247
1761467619533662200,3.671662109375,-0.00014284439384937286,0.0006574329454451799,0.00019492092542350292
1761467619543615000,3.681614990234375,0.0015874112723395228,0.00037700211396440864,-0.0007068254053592682
1761467619553568000,3.691568115234375,0.0009316595387645066,-0.0007144768605940044,0.00013614981435239315
1761467619563522000,3.70152197265625,-0.0010175080969929695,0.001271176035515964,-0.0010833116248250008
1761467619573475000,3.71147509765625,-0.0007641575066372752,0.0008395361946895719,0.0015911369118839502
1761467619583428000,3.721427978515625,-0.000713024812284857,-0.0007088257116265595,-0.0007063720840960741
1761467619593381000,3.731381103515625,-0.0018950342200696468,-0.00004661449929699302,-0.00035516731441020966
1761467619603334100,3.741334228515625,0.0004592002369463444,0.0014167925110086799,-0.00041588745079934597
1761467619613287200,3.751287109375,-0.0001152988406829536,-0.0003874517569784075,0.0008804664248600602
1761467619623240200,3.761240234375,-0.0013171834871172905,0.0007923286175355315,-0.0008884051349014044
1761467619633193000,3.77119287109375,-0.00041204268927685916,-0.00047207422903738916,0.0002270229160785675
1761467619643146000,3.78114599609375,0.0004905026289634407,0.001564977690577507,0.00007761945016682148
1761467619653100300,3.791100341796875,-0.0006979602039791644,0.0008515531662851572,-0.000047236448153853416
1761467619663053000,3.801052978515625,0.00048554857494309545,-0.00014793119044043124,-0.001093326136469841
1761467619673006000,3.811006103515625,-0.00004218221874907613,-0.00032545471913181245,-0.0007759463042020798
1761467619682959000,3.820958984375,-0.00003073061816394329,-0.00024689146084710956,-0.00040896283462643623
1761467619692912000,3.830912109375,-0.0008781917276792228,-0.00046880243462510407,-0.0010479504708200693
1761467619702865200,3.840865234375,0.00004432728746905923,-0.0001774526317603886,0.00030067446641623974
1761467619712818200,3.850818115234375,-0.0006184226367622614,0.0003228195710107684,0.0013490107376128435
1761467619722771200,3.860771240234375,-0.0009497199207544327,-0.0010191472247242928,-0.0004725914914160967
1761467619732724200,3.87072412109375,-0.00012844568118453026,0.00036923668812960386,0.00023513101041316986
1761467619742677200,3.88067724609375,0.00024013582151383162,-0.00028989562997594476,-0.000054620904847979546
1761467619752630300,3.89063037109375,0.0007564983097836375,-0.0004403007042128593,-0.000696853268891573
1761467619762584300,3.900584228515625,-0.00025310603086836636,-0.0013636186486110091,0.0008826676057651639
1761467619772537300,3.910537353515625,-0.002381754107773304,0.0011591247748583555,0.00010000402107834816
1761467619782490000,3.920489990234375,-0.0007130173617042601,0.0012273017782717943,0.0011594095267355442
1761467619792443100,3.930443115234375,0.0004192562191747129,-0.000685809354763478,-0.00023258104920387268
1761467619802396200,3.940396240234375,0.0007361723692156374,0.0006598859908990562,-0.0005899772513657808
1761467619812349200,3.95034912109375,0.001011833781376481,-0.0007132402970455587,-0.0008472444023936987
1761467619822302200,3.96030224609375,0.00017134012887254357,-0.0004333420656621456,0.00001215771771967411
1761467619832255200,3.970255126953125,0.0002582777524366975,-0.0003438771527726203,-0.0007613683119416237
1761467619842208300,3.980208251953125,0.0006851825164631009,-0.0012014149688184261,0.0003869868814945221
1761467619855272000,3.99327197265625,-0.0007962683448567986,-0.001293800538405776,-0.00023339479230344296
1761467619865225700,4.003225830078125,0.00034896080614998937,-0.00013984215911477804,-0.0014298001769930124
1761467619875178800,4.0131787109375,-0.000019088038243353367,0.0005991850630380213,0.00034945784136652946
1761467619885131800,4.0231318359375,-0.00022303155856207013,-0.0018005953170359135,-0.0005105016753077507
1761467619895084800,4.033084716796875,-0.001382838236168027,-0.0002050955081358552,-0.0013813551049679518
1761467619905037600,4.04303759765625,0.00014454626943916082,-0.0004972712486051023,0.00030449219048023224
1761467619914990600,4.052990478515625,0.00009794090874493122,-0.0003300247190054506,0.00033165630884468555
1761467619924943600,4.062943603515625,-0.0005174321122467518,0.0004563666880130768,-0.00033358647488057613
1761467619934896600,4.072896728515625,0.00029456568881869316,-0.0009122317424044013,-0.00126729067414999
1761467619944849700,4.082849609375,-0.001159092877060175,0.0010470084380358458,-0.0004129852168262005
1761467619954802700,4.092802734375,0.00004465598613023758,-0.000322655396303162,-0.00034587341360747814
1761467619964756700,4.1027568359375,0.0005691717378795147,-0.00011368835112079978,0.0007569584995508194
1761467619974709800,4.112709716796875,0.00026663666358217597,0.0005851251189596951,-0.0003264155238866806
1761467619984662800,4.122662841796875,0.00000417494447901845,0.0002238283632323146,0.0004377216100692749
1761467619994615800,4.13261572265625,-0.0002003558329306543,0.00003900495357811451,0.0005849944427609444
1761467620004568800,4.14256884765625,0.0021072179079055786,0.00012257660273462534,0.0013990872539579868
1761467620014521900,4.15252197265625,0.0005596547853201628,-0.0010034078732132912,-0.0010238566901534796
1761467620024475000,4.162474853515625,-0.00004136556526646018,-0.00019488210091367364,-0.00035508512519299984
1761467620034427600,4.172427734375,0.000640137295704335,-0.0012452327646315098,-0.0013282042928040028
1761467620044380700,4.182380615234375,0.0004102537641301751,-0.0003611468127928674,0.001042641350068152
1761467620054333700,4.192333740234375,0.0000691027962602675,0.00006549159297719598,0.000011997995898127556
1761467620064287700,4.202287841796875,0.0015246024122461677,-0.0001899226917885244,0.00038052769377827644
1761467620074240800,4.21224072265625,-0.000375829404219985,-0.001557189621962607,-0.002599016996100545
1761467620084193800,4.22219384765625,-0.001305701327510178,-0.00018015288515016437,0.0003093129489570856
1761467620094146800,4.232146728515625,-0.0006087520741857588,0.000317591882776469,0.00010078749619424343
1761467620104099800,4.242099853515625,-0.000837135361507535,0.0002053181524388492,-0.0011349106207489967
1761467620114052900,4.252052978515625,0.00039324501994997263,0.0011283697094768286,0.000530363991856575
1761467620124006000,4.262005859375,-0.0006669568247161806,-0.001176983816549182,-0.0009811974596232176
1761467620133959000,4.271958984375,0.0007176205981522799,0.0001082576927728951,0.00020470819436013699
1761467620143912000,4.281911865234375,0.0005476610385812819,-0.0002019012172240764,0.001156124984845519
1761467620153865000,4.291864990234375,0.0002576428232714534,-0.0007848672103136778,0.0009473331738263369
1761467620163818800,4.30181884765625,-0.0019058844773098826,-0.0014912787592038512,0.0007465893868356943
1761467620173771800,4.311771728515625,-0.0012470184592530131,-0.0003133626014459878,-0.00012612855061888695
1761467620183724500,4.321724609375,0.0017183030722662807,0.0011237517464905977,-0.0014419679064303637
1761467620193677600,4.331677490234375,-0.0002460445393808186,-0.0015924061881378293,-0.0019873834680765867
1761467620204252700,4.342252685546875,0.00020296440925449133,0.000610027986112982,-0.0003902858588844538
1761467620214205700,4.352205810546875,0.0005030006868764758,-0.000897039077244699,0.00044498476199805737
1761467620224158700,4.36215869140625,0.00035439623752608895,-0.0003670700534712523,-0.00007699476554989815
1761467620234112800,4.37211279296875,0.0011041229590773582,-0.0002713300345931202,-0.0006262343376874924
1761467620244065800,4.382065673828125,-0.00072653399547562,0.00035344751086086035,0.0009271875023841858
1761467620254018800,4.392018798828125,0.0006415268289856613,0.0002564278547652066,0.0008150284411385655
1761467620263971800,4.401971923828125,0.0011184988543391228,0.00003432022640481591,-0.000043042004108428955
1761467620273924900,4.4119248046875,0.0000013592070899903774,-0.00011791862198151648,-0.0006038246210664511
1761467620283878000,4.4218779296875,0.0013704902958124876,0.00003175105666741729,-0.0011433809995651245
1761467620293831000,4.431830810546875,0.0006788834580220282,-0.0015608121175318956,-0.000046140048652887344
1761467620303783700,4.44178369140625,-0.0005347190308384597,-0.00001804291969165206,0.00034561101347208023
1761467620313736700,4.45173681640625,0.0009601546917110682,-0.0016476955497637391,0.00003433297388255596
1761467620323689700,4.461689697265625,-0.000008703384082764387,0.000512660713866353,-0.0008290638215839863
1761467620333643800,4.471643798828125,-0.001937346183694899,0.0004164607380516827,0.00012514041736721992
1761467620343596800,4.4815966796875,0.0004879946354776621,-0.0010368262883275747,-0.0003781970590353012
1761467620353549800,4.4915498046875,0.0011180135188624263,0.0006780034746043384,0.0005662697367370129
1761467620363502800,4.5015029296875,-0.0010364837944507599,-0.0007044434314593673,0.00173033750616014
1761467620373456000,4.511455810546875,0.0005392752354964614,-0.00021743285469710827,-0.0004028014373034239
1761467620383409000,4.521408935546875,0.0002961286227218807,-0.000662979728076607,0.0005186521448194981
1761467620393362000,4.53136181640625,-0.0012194118462502956,-0.0000033403048291802406,-0.00011546118184924126
1761467620403315000,4.54131494140625,-0.0007160744280554354,0.0008043964626267552,-0.0008214651606976986
1761467620413268000,4.55126806640625,-0.00038217069231905043,0.0005746620008721948,-0.0009710355661809444
1761467620423221000,4.561220947265625,-0.001328391837887466,-0.00002108712214976549,0.000761883333325386
1761467620433174800,4.5711748046875,0.0011823454406112432,-0.000024660199414938688,-0.0002742388751357794
1761467620443127800,4.5811279296875,0.00046808557817712426,-0.0004489017592277378,0.00105680909473449
1761467620453080600,4.59108056640625,0.0015747887082397938,-0.00048120279097929597,-0.0007143223192542791
1761467620463033600,4.60103369140625,-0.0004409579560160637,-0.0003536373842507601,-0.0010189879685640335
1761467620472986600,4.610986572265625,-0.001463206484913826,0.0007693393272347748,0.0004969278816133738
1761467620482939600,4.620939697265625,0.0013823809567838907,-0.00047222632565535605,0.0008324863156303763
1761467620492892700,4.630892578125,0.0005334988236427307,0.00017876035417430103,0.0009074836270883679
1761467620502845700,4.640845703125,0.0008658613078296185,-0.00023695909476373345,0.0011698049493134022
1761467620512798700,4.650798828125,-0.0007351688691414893,-0.0003484844055492431,-0.0004065872635692358
1761467620522752800,4.660752685546875,0.00019587221322581172,0.00031810480868443847,-0.00006277323700487614
1761467620532705800,4.670705810546875,-0.0007113339379429817,0.0006966370856389403,-0.0009081598836928606
1761467620542658800,4.680658935546875,0.0006719119264744222,-0.0007031203713268042,0.00022927625104784966
1761467620552611800,4.69061181640625,0.0007215717923827469,0.0005261561600491405,0.00010685739107429981
1761467620562564900,4.70056494140625,0.0010467437095940113,0.0013155171182006598,-0.00016984506510198116
1761467620572518000,4.710517822265625,-0.0001772334799170494,0.00035656068939715624,-0.000294532161206007
1761467620582470700,4.720470703125,0.0006076001445762813,0.0001799931051209569,-0.0014159891288727522
1761467620592423700,4.730423583984375,-0.00008370645809918642,-0.000785552489105612,0.00034495675936341286
1761467620602376700,4.740376708984375,-0.0003180646162945777,-0.000007643160643056035,-0.0013789075892418623
1761467620612329700,4.750329833984375,-0.0002937885874416679,0.0007115508196875453,-0.00011376314796507359
1761467620622283800,4.76028369140625,0.0007768021896481514,-0.000251714518526569,-0.00014252541586756706
1761467620632236800,4.77023681640625,-0.0017957246163859963,0.0008223095792345703,0.0002617856953293085
1761467620642189800,4.78018994140625,0.0006961951730772853,0.0013826387003064156,-0.001367536373436451
1761467620652142800,4.790142822265625,0.0011864479165524244,-0.00028835306875407696,-0.0004330598749220371
1761467620662096000,4.800095947265625,0.00044262700248509645,0.0015646744286641479,-0.0011867345310747623
1761467620672049000,4.810048828125,-0.000021552143152803183,0.00047015948803164065,0.0005543134175240993
1761467620682002000,4.820001953125,-0.00017761337221600115,-0.0008009672746993601,-0.0005405121482908726
1761467620691955000,4.829954833984375,-0.0003949016099795699,-0.0001887730322778225,-0.00006864755414426327
1761467620701908000,4.839907958984375,0.0009691694867797196,-0.0003307195147499442,-0.000680908327922225
1761467620711860700,4.84986083984375,0.0020260752644389868,-0.0008133394876495004,0.0005860056262463331
1761467620721814800,4.859814697265625,0.0009419023990631104,0.0007701761205680668,-0.0008033653721213341
1761467620731767600,4.869767578125,-0.00010320416186004877,0.00014830013969913125,0.0005527804605662823
1761467620741720600,4.879720458984375,0.0004478038754314184,-0.000047708541387692094,0.00036369613371789455
1761467620751673600,4.889673583984375,0.0008707343367859721,-0.00025577095220796764,-0.0015301948878914118
1761467620761626600,4.899626708984375,0.0018507775384932756,-0.00006988231325522065,-0.0011091488413512707
1761467620771579600,4.90957958984375,0.00046966568334028125,-0.0009476275881752372,-0.0003592139109969139
1761467620781532700,4.91953271484375,0.0005916385562159121,0.0007597249932587147,0.0008477306691929698
1761467620791485700,4.929485595703125,-0.0001045878161676228,-0.00047811929835006595,0.0009672340238466859
1761467620801438700,4.939438720703125,-0.0005826252163387835,0.0006153746508061886,-0.0004194739740341902
1761467620811392800,4.949392822265625,-0.00038312055403366685,0.000015240220818668604,0.0014041709946468472
1761467620821345800,4.959345703125,0.0026704599149525166,-0.00008888941374607384,9.515788406133652e-7
1761467620831298800,4.969298828125,0.0000954944989643991,0.00017635629046708345,0.0001792151015251875
1761467620841251800,4.979251953125,0.0006598183535970747,0.0009422814473509789,0.000962450634688139
1761467620851204900,4.989204833984375,0.0007441922789439559,0.0008739781333133578,-0.0009389757178723812
1761467620861158000,4.999157958984375,-0.0008433180628344417,0.00023109099129214883,-0.0010447031818330288
1761467620871111000,5.00911083984375,0.00015437614638358355,0.00004319282015785575,-0.0009303712286055088
1761467620881064000,5.01906396484375,0.00022654782515019178,-0.00018850219203159213,-0.0001580545213073492
1761467620891017000,5.029016845703125,-0.001302778604440391,0.0011887731961905956,-0.001542731188237667
1761467620900970000,5.038969970703125,-0.0006364556611515582,0.0007826410583220422,-0.00006680749356746674
1761467620910924000,5.048924072265625,-0.0007015644805505872,-0.001036033732816577,-0.0008128981571644545
1761467620920877000,5.058876953125,0.0023299118038266897,-0.0007111281156539917,-0.0010086405090987682
1761467620930830000,5.068830078125,-0.0007465815870091319,-0.001187600544653833,-0.0003711131867021322
1761467620940783000,5.078783203125,0.0006790086044929922,0.0005213498952798545,0.001518399571068585
1761467620950736000,5.08873583984375,0.00021712231682613492,0.0012591957347467542,0.00003284914419054985
1761467620960689000,5.09868896484375,-0.00048701747437007725,-0.00006918900180608034,0.0016094405436888337
1761467620970642000,5.108641845703125,-0.00002999551361426711,-0.00015282485401257873,0.0006187264807522297
1761467620980595000,5.118594970703125,-0.0013807507930323482,-0.00023644810426048934,0.00021339324302971363
1761467620990548000,5.1285478515625,-0.0008398681529797614,0.0009830172639340162,0.0003371520433574915
1761467621000501000,5.1385009765625,-0.0006675616605207324,0.0003736860235221684,-0.00019601290114223957
1761467621010454800,5.148454833984375,-0.0003914782719220966,-0.0007525274413637817,-0.0021608765237033367
1761467621020407800,5.15840771484375,-0.00020026331185363233,0.0005500246770679951,0.0008753935107961297
1761467621030360800,5.16836083984375,-0.00043393386295065284,-0.0014482850674539804,-0.00024826289154589176
1761467621040313900,5.17831396484375,-0.0005790761206299067,0.0005890331813134253,-0.00011430587619543076
1761467621050267000,5.188266845703125,0.0012137126177549362,0.0004209128092043102,0.00033518625423312187
1761467621060220000,5.198219970703125,-0.0001301185693591833,0.0002651179092936218,-0.0008051793556660414
1761467621070173000,5.2081728515625,0.0008308719843626022,-0.00018291271408088505,-0.0011277266312390566
1761467621080125700,5.218125732421875,-0.0011057787341997027,-0.00006706517888233066,-0.00043610366992652416
1761467621090078700,5.22807861328125,-0.0008991782087832689,0.0004709638888016343,0.0024702511727809906
1761467621100031700,5.23803173828125,0.0008574427920393646,0.00015404779696837068,0.0005261434707790613
1761467621109985800,5.24798583984375,-0.0005854843184351921,0.00017808587290346622,0.0012711636954918504
1761467621119938800,5.257938720703125,0.00024994928389787674,-0.00043257695506326854,0.00009857397526502609
1761467621129891800,5.267891845703125,0.000885455054230988,-0.00023438379867002368,-0.00044819479808211327
1761467621139844900,5.277844970703125,0.0006497652502730489,0.00005749863339588046,-0.001024502795189619
1761467621149798000,5.2877978515625,0.000498283829074353,-0.0005652335821650922,-0.00017664418555796146
1761467621159751000,5.2977509765625,-0.0005853564362041652,0.00003930396633222699,0.00107717199716717
1761467621169704000,5.307703857421875,-0.0001460649655200541,0.00034664489794522524,0.000917682540602982
1761467621179657000,5.317656982421875,0.0006209254497662187,0.0005383925745263696,0.0014492494519799948
1761467621189610000,5.32760986328125,-0.0016304485034197569,0.0006784995784983039,0.00021137925796210766
1761467621199563000,5.33756298828125,0.00009820942068472505,0.0014279130846261978,-0.0008682662155479193
1761467621209517000,5.34751708984375,0.0017713932320475578,0.00047066109254956245,0.00020736758597195148
1761467621219470000,5.357469970703125,-0.00008110154885798693,-0.00018607437959872186,-0.0006333922501653433
1761467621229422800,5.3674228515625,-0.00040064044878818095,-0.0011075269430875778,0.0009416027460247278
1761467621239376000,5.3773759765625,-0.0014765574596822262,-0.0011056626681238413,-0.0013950546272099018
1761467621249329000,5.387328857421875,-0.0011358659248799086,-0.00020783740910701454,0.00027106981724500656
1761467621259282000,5.397281982421875,-0.0001385120558552444,-0.0012307575671002269,0.00047453539445996284
1761467621269235000,5.40723486328125,-0.0006402733852155507,-0.000569348456338048,-0.0005087214522063732
1761467621279188000,5.41718798828125,0.00034083513310179114,0.0003366589662618935,-0.0005944753065705299
1761467621289141000,5.42714111328125,-0.0007702328148297966,0.0005512904608622193,0.000005341600626707077
1761467621299095000,5.437094970703125,-0.0006165684317238629,0.0010546278208494186,0.001364619005471468
1761467621309048000,5.447048095703125,-0.00014182791346684098,0.00037535763112828135,0.0006501975003629923
1761467621319000800,5.457000732421875,-0.0010616837535053492,0.0004350124509073794,-0.0006440987344831228
1761467621328953900,5.466953857421875,0.0012940856395289302,-0.00010969681898131967,0.00021686055697500706
1761467621338907000,5.476906982421875,0.0004533256869763136,-0.0005288784159347415,0.001177995465695858
1761467621348860000,5.48685986328125,-0.0019455638248473406,-0.0009670166182331741,-0.00032866979017853737
1761467621358813000,5.49681298828125,-0.0010283711599186063,-0.00024929470964707434,-0.0003289361484348774
1761467621368766000,5.506765869140625,-0.00028823514003306627,-0.00042910833144560456,0.000821400317363441
1761467621378719000,5.516718994140625,-0.0005510891205631196,0.0006611898425035179,0.0004445631057024002
1761467621388672000,5.526672119140625,-0.0006564892246387899,-0.0003264432889409363,0.00001787068322300911
1761467621398625800,5.536625732421875,-0.0002721950877457857,0.0007239074911922216,0.00023332051932811737
1761467621408578800,5.546578857421875,0.001131021068431437,-0.000001086562406271696,-0.00006889435462653637
1761467621418531800,5.55653173828125,0.0002556400140747428,-0.00017552360077388585,0.0004168660379946232
1761467621428484900,5.56648486328125,-0.0008021397516131401,0.0004250037018209696,-0.00005374569445848465
1761467621438438000,5.57643798828125,0.00046286178985610604,-0.00013133068569004536,0.00035291886888444424
1761467621448391000,5.586390869140625,0.0007916152244433761,0.0015358487144112587,0.0014827715931460261
1761467621458344000,5.596343994140625,0.0010749754728749394,-0.00038455671165138483,0.0010135226184502244
1761467621468297000,5.606296875,-0.0017714432906359434,-0.00003071600804105401,0.0008244627388194203
1761467621478250000,5.61625,-0.0005455903010442853,0.0006135026342235506,0.0005472276825457811
1761467621488202800,5.62620263671875,0.0005811586743220687,-0.0002346615365240723,-0.0010795295238494873
1761467621498157000,5.636156982421875,-0.00010194210335612297,0.0006668185233138502,0.0009388801408931613
1761467621508109800,5.64610986328125,-0.0004751466913148761,0.0005645612836815417,-0.0006524976342916489
1761467621518062800,5.656062744140625,0.00021993834525346756,0.0007323404424823821,-0.000625865999609232
1761467621528016000,5.666015869140625,-0.0003857440606225282,-0.000019547122064977884,-0.0009714332409203053
1761467621537969000,5.675968994140625,-0.0004853462742175907,0.0001591509790159762,-0.0004217566456645727
1761467621547922000,5.685921875,-0.0015622572973370552,0.0010153360199183226,-0.0003231742884963751
1761467621557875000,5.695875,-0.00044985488057136536,0.0009008201886899769,-0.000522911548614502
1761467621567828000,5.705827880859375,0.00024068605853244662,-0.00015871223877184093,-0.00021355971693992615
1761467621577781000,5.715781005859375,0.0011421660892665386,-0.0005339516210369766,-0.0005256820004433393
1761467621587735000,5.725735107421875,-0.0011539163533598185,0.00020465534180402756,0.0000036654528230428696
1761467621597688000,5.73568798828125,-0.0005658903974108398,-0.000731179490685463,0.0006721189711242914
1761467621607641000,5.74564111328125,-0.0017450471641495824,-0.00005630054511129856,0.0009052972309291363
1761467621617594000,5.755593994140625,0.0002520573907531798,0.0006624865927733481,-0.0005338748451322317
1761467621627547100,5.765547119140625,-0.00041780530591495335,-0.00007356674177572131,0.0010183306876569986
1761467621637500000,5.7755,-0.0006239339709281921,-0.0017167371697723866,0.0012023551389575005
1761467621647453000,5.785452880859375,0.00144916120916605,-0.0003318184753879905,0.0001396851148456335
1761467621657406000,5.795406005859375,-0.0017711331602185965,-0.00014779402408748865,0.0003482105676084757
1761467621667359000,5.80535888671875,-0.00010230415500700474,0.0015306062996387482,0.001147537142969668
1761467621677312800,5.815312744140625,-0.001522301696240902,0.0002749257255345583,0.00020770751871168613
1761467621687265800,5.825265869140625,-0.0014310928527265787,-0.000616787641774863,0.000010567484423518181
1761467621697218800,5.83521875,0.00024403550196439028,0.0009209215641021729,-0.0003604106605052948
1761467621707171800,5.845171875,0.00009152881102636456,0.0002733489964157343,0.0012483525788411498
1761467621717124900,5.855124755859375,-0.0008690733811818063,0.0005122345173731446,-0.0004539398942142725
1761467621727078000,5.865077880859375,0.0011159838177263737,-0.0008765588281676173,0.0005235387943685055
1761467621737031000,5.875031005859375,-0.0009080184972845018,-0.00009279052028432488,0.00016800686717033386
1761467621746984000,5.88498388671875,-0.00112441077362746,0.0007067799451760948,0.0002775744069367647
1761467621756937000,5.89493701171875,-0.001320419367402792,-0.0002956339158117771,0.0006458896677941084
1761467621766891000,5.90489111328125,0.000580206629820168,0.0014922086847946048,-0.0009494489058852196
1761467621776844000,5.914843994140625,-0.0008451171452179551,-0.0009339310345239937,0.0016724332235753536
1761467621786796800,5.924796875,0.000644939427729696,-0.0003040193987544626,0.0010534999892115593
1761467621796749800,5.934749755859375,-0.00003416661638766527,0.0010749653447419405,-0.0014757041353732347
1761467621806702800,5.944702880859375,-0.00006497680442407727,-0.0012042904272675514,-0.0009658357594162226
1761467621816656000,5.95465576171875,0.0013773912796750665,-0.0003997494641225785,0.001094651990570128
1761467621826609000,5.96460888671875,-0.0018214632291346788,-0.0008323917863890529,0.0005937039386481047
1761467621836562000,5.97456201171875,0.0000472770188935101,0.0002941253478638828,-0.0010667769238352776
1761467621846514200,5.98451416015625,-0.00005622243043035269,0.0015542138135060668,0.0007212755735963583
1761467621856468200,5.99446826171875,-0.0007494433084502816,-0.0005150623619556427,0.00033937813714146614
1761467621866421200,6.004421142578125,0.0009333441266790032,0.00025672820629552007,-0.00001541106030344963
1761467621876374300,6.014374267578125,-0.0013037112075835466,0.00021944392938166857,-0.00043139676563441753
1761467621886327300,6.024327392578125,-0.0000931056565605104,0.0009480547741986811,-0.0009844121523201466
1761467621896280300,6.0342802734375,0.0006786783924326301,-0.0007265409221872687,0.001846528030000627
1761467621906233300,6.0442333984375,0.0006589933764189482,-0.001268657622858882,0.0001536316704005003
1761467621916186400,6.054186279296875,0.000379095203243196,0.0007164625567384064,-0.0014091113116592169
1761467621926139400,6.064139404296875,0.0006069248775020242,-0.0006312008481472731,0.00002667168155312538
1761467621936092400,6.074092529296875,-0.00011186226038262248,-0.0017297548474743962,0.0002873949706554413
1761467621946045400,6.08404541015625,0.00025931006530299783,-0.0004402907215990126,0.001595099805854261
1761467621955999500,6.09399951171875,0.00023534160573035479,0.0008960835402831435,0.0006542049814015627
1761467621965952500,6.103952392578125,0.0001121428795158863,0.0002920504193753004,0.0005574284587055445
1761467621975905500,6.113905517578125,-0.00009478477295488119,-0.000054426840506494045,0.00014410587027668953
1761467621985858300,6.1238583984375,-0.0012791604967787862,-0.0003933709813281894,-0.0007281182333827019
1761467621995811300,6.133811279296875,0.0009448453201912344,0.0006713608745485544,0.0004178399685770273
1761467622005764400,6.143764404296875,-0.0008406788110733032,-0.0012323776027187705,0.0026837249752134085
1761467622015717400,6.15371728515625,-0.00047316262498497963,0.00018815248040482402,0.0006876857951283455
1761467622025670400,6.16367041015625,-0.0008972738869488239,-0.0009393751388415694,0.00025111623108386993
1761467622035623400,6.17362353515625,0.000009532435797154903,0.000006846035830676556,-0.0007169428281486034
1761467622045577200,6.1835771484375,-0.0009048078791238368,0.00007444218499585986,-0.0009606722742319107
1761467622055530200,6.1935302734375,0.0008406279375776649,-0.00015032861847430468,0.000049198511987924576
1761467622065483300,6.203483154296875,-0.00043366372119635344,0.0003208119887858629,0.0008581157308071852
1761467622075436300,6.213436279296875,0.0006691513117402792,0.001871304353699088,-0.000567208044230938
1761467622085389300,6.223389404296875,0.0012204759987071157,-0.0002655551943462342,0.000936586526222527
1761467622095342300,6.23334228515625,-0.0002866068098228425,0.0016101091168820858,-0.00006982195191085339
1761467622105295400,6.24329541015625,0.0004992145113646984,-0.000029533461201936007,0.0010952202137559652
1761467622115248000,6.253248046875,-0.0008470133761875331,0.0005899177631363273,-0.0002728456165641546
1761467622125201200,6.263201171875,-0.00037507747765630484,-0.0007029527914710343,-0.000039209844544529915
1761467622135155200,6.2731552734375,0.0007876586751081049,-0.00036819346132688224,-0.0012552090920507908
1761467622145108200,6.283108154296875,0.001083504525013268,-0.0008832138264551759,-0.001475937431678176
1761467622155061200,6.293061279296875,0.0013737891567870975,-0.00012634345330297947,0.0001581781543791294
1761467622165014300,6.30301416015625,0.0006757657392881811,-0.0005382134113460779,0.00011588819324970245
1761467622174967300,6.31296728515625,-0.00033623550552874804,-0.0007376841967925429,0.00010763248428702354
1761467622184920300,6.32292041015625,0.0009120433824136853,-0.00008753323345445096,-0.00023399502970278263
1761467622194873300,6.332873291015625,-0.0002751938591245562,0.0017505805008113384,0.0013276826357468963
1761467622204826400,6.342826416015625,0.0003020133590325713,0.0007040897035039961,-0.00012008403427898884
1761467622214779400,6.352779296875,-0.00046950438991189003,-0.00021177137386985123,0.0006261337548494339
1761467622224732400,6.362732421875,-0.0000393990776501596,0.00005658844020217657,0.0011185189941897988
1761467622234686500,6.3726865234375,0.00038324453635141253,-0.000525312265381217,0.0008247722871601582
1761467622244639500,6.382639404296875,-0.0003103382186964154,-0.0006966636865399778,0.0007831540424376726
1761467622254592500,6.392592529296875,-0.0006634733872488141,-0.0008961344137787819,0.0012414840748533607
1761467622264545300,6.402545166015625,-0.0009743429254740477,0.00037925189826637506,-0.0003150810953229666
1761467622274498300,6.412498291015625,-0.0007295984541997313,-0.000525423907674849,0.0006825390737503767
1761467622284451300,6.422451416015625,-0.0011934838257730007,0.0001255746465176344,0.0003360023256391287
1761467622294404400,6.432404296875,0.002659577876329422,0.0007972238818183541,0.0013464057119563222
1761467622304357400,6.442357421875,-0.00040347944013774395,-0.0006507802754640579,-0.000042669009417295456
1761467622314310400,6.452310302734375,0.00018774229101836681,-0.0009743543341755867,0.00023216917179524899
1761467622324264200,6.46226416015625,-0.0004098304489161819,-0.0010425389045849442,-0.00014835037291049957
1761467622334217200,6.47221728515625,0.0000895122648216784,0.0007231368217617273,0.0019534165039658546
1761467622344170200,6.482170166015625,0.0005994463572278619,0.001870599458925426,-0.0012273697648197412
1761467622354123300,6.492123291015625,0.0013006565859541297,0.0009126603836193681,0.00048424373380839825
1761467622364076300,6.502076171875,-0.000010854331776499748,0.000049833819502964616,0.0021933906245976686
1761467622374029300,6.512029296875,0.0012517502764239907,0.002188085811212659,0.0003012146335095167
1761467622383982000,6.521982177734375,-0.0005037848022766411,0.00048569642240181565,0.0010797831928357482
1761467622393935000,6.53193505859375,-0.00004199269460514188,0.00003002956509590149,-0.0002517972607165575
1761467622403888000,6.54188818359375,0.0010446780361235142,-0.0002047730959020555,0.0006282874383032322
1761467622413842200,6.55184228515625,0.00045425520511344075,0.00005595036782324314,0.00015797303058207035
1761467622423795200,6.561795166015625,-0.00011045153951272368,-0.0005137029220350087,-0.000651815440505743
1761467622433748200,6.571748291015625,0.0007050083950161934,0.0010900526540353894,0.0002001298125833273
1761467622443701200,6.581701171875,0.0006988578243181109,0.0003644921234808862,-0.00036414316855371
1761467622453654300,6.591654296875,0.0000799392000772059,0.00022733933292329311,-0.00037586106918752193
1761467622463607300,6.601607177734375,-0.0009034365648403764,0.0016840894240885973,0.0007324053440243006
1761467622473560300,6.611560302734375,0.00018899212591350079,0.0005895301583223045,-0.00041914544999599457
1761467622483513300,6.621513427734375,0.0008178803254850209,0.0008552959188818932,0.000035796547308564186
1761467622493466400,6.63146630859375,-0.0013131811283528805,-0.00032954447669908404,0.00010104384273290634
1761467622503420400,6.64142041015625,-0.001199781079776585,0.0004170687170699239,-0.0010077112819999456
1761467622513373400,6.65137353515625,0.0004148934967815876,0.000548096199054271,0.0009422552539035678
1761467622523326500,6.661326416015625,0.0013847509399056435,0.0010619382373988628,-0.0007188543677330017
1761467622533279500,6.671279541015625,0.00046276464127004147,-0.000039545149775221944,-0.00008715246804058552
1761467622543232300,6.681232177734375,0.0003036587731912732,0.00008713742136023939,0.00015579885803163052
1761467622553185300,6.691185302734375,0.0014059410896152258,-0.00036107259802520275,-0.000060183461755514145
1761467622563138300,6.70113818359375,0.00008483172859996557,0.00029389694100245833,-0.0004063383676111698
1761467622573091300,6.71109130859375,0.00015753600746393204,0.0009692745516076684,3.264285624027252e-7
1761467622583044400,6.72104443359375,-0.0011479138629510999,0.0010022511705756187,-0.00024114991538226604
1761467622592998100,6.730998046875,0.0007434631697833538,0.0011402030941098928,0.0013351751258596778
1761467622602951200,6.740951171875,0.0001438325853087008,0.00006822898285463452,0.0017148691695183516
1761467622612904200,6.750904296875,-0.0003350038023199886,0.0010021995985880494,-0.0005666608922183514
1761467622622857200,6.760857177734375,0.0011521840933710337,0.0006750075262971222,0.0020325258374214172
1761467622632810200,6.770810302734375,0.0005628265789709985,-0.0002797357155941427,-0.00029694102704524994
1761467622642763300,6.78076318359375,0.0006772539927624166,-0.0007124315015971661,-0.0006421825382858515
1761467622652716300,6.79071630859375,0.0015840604901313782,-0.000506835465785116,-0.000017671147361397743
1761467622662669000,6.8006689453125,0.0005642132018692791,-0.0005552772781811655,-0.0010357496794313192
1761467622672622000,6.8106220703125,0.0009626220562495291,0.00029134165379218757,0.00065242825075984
1761467622682576400,6.820576416015625,0.0011727894889190793,-0.00018480722792446613,0.0001459098421037197
1761467622692529200,6.830529052734375,-0.00017370475688949227,-0.00041730119846761227,0.000736066373065114
1761467622702482200,6.840482177734375,-0.001368663040921092,-0.0005554710514843464,0.0006059783045202494
1761467622712435200,6.850435302734375,-0.0002908817841671407,-0.0012481592129915953,0.00008879252709448338
1761467622722388200,6.86038818359375,-0.0006563955103047192,0.00018993753474205732,-0.000256767263635993
1761467622732341200,6.87034130859375,-0.0004364183987490833,-0.0011451051104813814,-0.0011430673766881227
1761467622742294300,6.880294189453125,0.0017251160461455584,0.0008985210442915559,-0.0007213400676846504
1761467622752247300,6.890247314453125,0.0005133777158334851,0.00026548770256340504,0.0003929263912141323
1761467622762200300,6.900200439453125,0.0008575206738896668,0.0009793909266591072,0.00042270845733582973
1761467622772154400,6.910154296875,-0.0007755296537652612,0.0009234645403921604,-0.0003597282338887453
1761467622782107400,6.920107421875,-0.0005519810947589576,0.0010602164547890425,0.0012002006405964494
1761467622792060400,6.930060302734375,0.0006714750779792666,-0.0000801490677986294,0.00012987619265913963
1761467622802013400,6.940013427734375,0.0001525472616776824,-0.000037291902117431164,-0.000145012978464365
1761467622811966500,6.949966552734375,-0.0014911557082086802,-0.00030174379935488105,0.0007090629078447819
1761467622821919200,6.959919189453125,0.0003910721279680729,-0.00004995139897800982,-0.000621135113760829
1761467622831872300,6.969872314453125,0.0008073241915553808,-0.001146907452493906,0.0009035245748236775
1761467622841825300,6.9798251953125,0.0002485872828401625,0.00015646498650312424,0.0005545620806515217
1761467622851778300,6.9897783203125,-0.0008321234490722418,-0.00022197020007297397,-0.00028832838870584965
1761467622861732600,6.999732666015625,0.0005238819285295904,-0.00012036052066832781,-0.0004233613144606352
1761467622871685400,7.009685302734375,0.00039152282988652587,-0.0005877452786080539,-0.001267316984012723
1761467622881638400,7.019638427734375,-0.00029059324879199266,-0.0017441092059016228,-0.0017376751638948917
1761467622891591400,7.02959130859375,-0.000287131144432351,0.00026950694154947996,-0.00033498811535537243
1761467622901544400,7.03954443359375,0.0006881032604724169,0.0004617170779965818,0.0010543407406657934
1761467622911497500,7.04949755859375,-0.0005009981687180698,-0.0003500143648125231,-0.0014200021978467703
1761467622921450500,7.059450439453125,0.0010649552568793297,0.000052112387493252754,-0.0006342846900224686
1761467622931403500,7.069403564453125,0.0015294105978682637,-0.0008259317837655544,0.0008525581797584891
1761467622941357300,7.079357421875,0.0005393289611674845,0.0004194195498712361,0.0005149771459400654
1761467622951310300,7.089310302734375,0.00007007998647168279,0.0009605739032849669,0.0004286905750632286
1761467622961263400,7.099263427734375,-0.0010775639675557613,0.0001896530156955123,0.00009699375368654728
1761467622971216400,7.10921630859375,-0.0004109747242182493,-0.0004287329502403736,0.0007084554526954889
1761467622981169400,7.11916943359375,-0.0006968684028834105,0.0005890720058232546,0.0001334690023213625
1761467622991122400,7.129122314453125,0.00039183179615065455,0.0003304790589027107,-0.00020022504031658173
1761467623001075200,7.1390751953125,-0.0003632694133557379,-0.0004511088482104242,0.000560086453333497
1761467623011028200,7.1490283203125,0.0009504680056124926,0.0005321302451193333,-0.00046576326712965965
1761467623020981200,7.158981201171875,0.00020130508346483111,0.0002953818766400218,-0.0007635143119841814
1761467623030935300,7.168935302734375,0.00012993236305192113,0.00028872396796941757,0.0010261299321427941
1761467623040888300,7.178888427734375,-0.00042670793482102454,0.0009497920982539654,0.0014091908233240247
1761467623050841300,7.18884130859375,-0.001393435406498611,-0.0010553018655627966,0.0018632598221302032
1761467623060794400,7.19879443359375,0.001212351955473423,0.0005517016397789121,-0.0010394554119557142
1761467623070747400,7.208747314453125,-0.00011842965614050627,-0.000754845212213695,-0.00020215753465890884
1761467623080700400,7.218700439453125,-0.001088000601157546,0.00006717874202877283,0.0004822060000151396
1761467623090653400,7.2286533203125,0.000732802611310035,0.0006040719454176724,-0.00043978053145110607
1761467623100606500,7.2386064453125,-0.00035962180118076503,0.000554695725440979,0.0006075780838727951
1761467623110559500,7.2485595703125,-0.0006206115940585732,-0.000584604567848146,-0.00047686113975942135
1761467623120513500,7.258513427734375,-0.00017177057452499866,-0.0017934351926669478,0.00012655486352741718
1761467623130466600,7.268466552734375,0.0009070759988389909,-0.001014194218441844,0.00012442446313798428
1761467623140419600,7.278419677734375,0.00011890043970197439,0.0012728316942229867,0.0020181795116513968
1761467623150372400,7.288372314453125,0.001120248925872147,0.0013500633649528027,-0.00028651999309659004
1761467623160325400,7.298325439453125,-0.000609618378803134,-0.0004637648235075176,-0.00040155532769858837
1761467623170278400,7.3082783203125,0.0019363637547940016,0.00048165733460336924,-0.0012420492712408304
1761467623180231400,7.3182314453125,-0.0009198515326716006,0.0013965512625873089,-0.000940731493756175
1761467623190184400,7.328184326171875,-0.00026364863151684403,-0.0011845845729112625,-0.00010769465006887913
1761467623200137500,7.338137451171875,-0.00010432838462293148,-0.0004888223484158516,-0.000050076283514499664
1761467623210091300,7.34809130859375,0.00043336383532732725,0.000029428803827613592,0.0004974696785211563
1761467623220044300,7.358044189453125,0.00021149514941498637,0.0003398347762413323,-0.00015798048116266727
1761467623229997300,7.367997314453125,0.0008575780666433275,0.0003771189949475229,0.0007528206333518028
1761467623239950300,7.377950439453125,-0.000558764673769474,-0.000754833105020225,0.00006936653517186642
1761467623249903400,7.3879033203125,-0.00040936138248071074,0.00019511644495651126,-0.0004403623752295971
1761467623259856400,7.3978564453125,-0.001190639566630125,0.000614881981164217,-0.00009116367436945438
1761467623269809400,7.407809326171875,-0.0003978165041189641,0.00043538492172956467,-0.0010600218083709478
1761467623279762200,7.41776220703125,-0.000538394961040467,-0.0007718828856013715,-0.0004186576697975397
1761467623289716500,7.427716552734375,-0.0005256118020042777,0.0007748810457997024,0.001255405368283391
1761467623299669200,7.437669189453125,-0.0016693735960870981,-0.0012228651903569698,-0.00034682569094002247
1761467623309622300,7.447622314453125,-0.000029132701456546783,-0.0012247294653207064,0.0005083153955638409
1761467623319575300,7.4575751953125,-0.0003298661031294614,-0.0003875911934301257,0.00007224385626614094
1761467623329528300,7.4675283203125,0.0006445844774134457,0.0010949906427413225,-0.00022203545086085796
1761467623339481300,7.4774814453125,0.0006020680884830654,0.00045315962051972747,-0.0008051146287471056
1761467623349434400,7.487434326171875,-0.0005335037712939084,-0.0008552513318136334,-0.00025384011678397655
1761467623359387400,7.497387451171875,0.0005024470156058669,-0.0016302212607115507,-0.000626599183306098
1761467623369340400,7.50734033203125,0.0009826149325817823,-0.0003348597383592278,0.0007023180369287729
1761467623379294500,7.51729443359375,0.00013857410522177815,-0.0004076816258020699,0.0016416397411376238
1761467623389247500,7.52724755859375,0.0014025104464963078,-0.00019862348563037813,0.0013249898329377174
1761467623399200500,7.537200439453125,0.00031699915416538715,-0.00029013038147240877,0.0009501313325017691
1761467623409153500,7.547153564453125,-0.00019965408137068152,-0.0005817465134896338,-0.0013780042063444853
1761467623419106600,7.5571064453125,0.0012489650398492813,-0.0008894374477677047,0.0014573604566976428
1761467623429059300,7.567059326171875,-0.0006189761916175485,-0.00043909691157750785,0.00020913686603307724
1761467623439012400,7.577012451171875,0.0012025292962789536,0.0001740449806675315,-0.0018603205680847168
1761467623448965400,7.58696533203125,-0.00086115428712219,-0.0003908114740625024,0.0005130886565893888
1761467623458919200,7.596919189453125,-0.0005811513401567936,0.00031313259387388825,-0.0012469436042010784
1761467623468872200,7.6068720703125,0.00004229467594996095,0.0009517586440779269,0.00015308032743632793
1761467623478825200,7.6168251953125,-0.000019996543414890766,0.0004440422053448856,0.00017604627646505833
1761467623488778200,7.6267783203125,-0.0008170806104317307,0.00004936178447678685,0.00021412945352494717
1761467623498731300,7.636731201171875,-0.00015413976507261395,-0.0008747334941290319,-0.0008800344076007605
1761467623508684300,7.646684326171875,-0.00009421864524483681,-0.00025901064509525895,-0.0000699006486684084
1761467623518637300,7.65663720703125,-0.0005135333049111068,-0.00013606768334284425,-0.0002017575316131115
1761467623528590300,7.66659033203125,-0.0019345959881320596,-0.0003395332023501396,-0.000596171710640192
1761467623538543400,7.67654345703125,-0.00010000111069530249,0.0006591950659640133,-0.00042191543616354465
1761467623548497400,7.686497314453125,-0.0007759113796055317,0.0009305711719207466,0.00016158330254256725
1761467623558450400,7.696450439453125,0.0016220363322645426,-0.002102710772305727,0.0009360490366816521
1761467623568403500,7.706403564453125,0.0016057912725955248,-0.0000763114367146045,-0.0005409400910139084
1761467623578356200,7.716356201171875,0.0005881539545953274,-0.0003270383458584547,0.0016193457413464785
1761467623588309200,7.726309326171875,0.0006422160658985376,-0.00017949921311810613,0.0009362449636682868
1761467623598262300,7.73626220703125,0.0008799345814622939,0.0010178983211517334,0.0001694946549832821
1761467623608215300,7.74621533203125,-0.00007241178536787629,0.00429172208532691,0.0020693938713520765
1761467623618168300,7.756168212890625,0.0008305424707941711,-0.0024045147001743317,0.0008354710880666971
1761467623628121300,7.766121337890625,-0.0011889325687661767,0.00042722461512312293,-0.00036428309977054596
1761467623638075400,7.776075439453125,0.0004949187277816236,-0.0010959012433886528,-0.0006304318085312843
1761467623648028400,7.7860283203125,-0.0012249506544321775,-0.0017590282950550318,0.00045746960677206516
1761467623657981400,7.7959814453125,0.0005195917910896242,-0.0019390517845749855,0.00072796072345227
1761467623667934500,7.8059345703125,-0.0003009281645063311,0.00016005168436095119,-0.0016166861169040203
1761467623677887500,7.815887451171875,-0.0005753103760071099,-0.00041198194958269596,-0.0011049823369830847
1761467623687840500,7.825840576171875,0.0021443096920847893,-0.001105202827602625,0.0011440571397542953
1761467623697793500,7.83579345703125,-0.0016324289608746767,-0.000424062367528677,0.0005105286836624146
1761467623707746300,7.845746337890625,0.0008344570524059236,0.0009306877036578953,0.0006231805309653282
