time,seconds_elapsed,z,y,x
1761508284315612000,0.07961181640625,0.019583821392059324,0.0071482825857587156,0.014018551947735249
1761508284325582800,0.089582763671875,0.01673895335495472,-0.0008167232103645801,0.0037075584142003204
1761508284335554800,0.099554931640625,0.014651625686883926,-0.0018046930680982768,0.010286836339812725
1761508284345525800,0.10952587890625,0.021390578553080557,0.005470430767722427,0.011047381516685708
1761508284355497000,0.1194970703125,0.01795358984172344,0.007892470282875002,0.004421387505671009
1761508284365468700,0.12946875,0.01886076781451702,0.00111875663055107,0.018290402314346282
1761508284375440000,0.13943994140625,0.010643559089303017,-0.0030645021371543406,0.01935291697932407
1761508284385411800,0.149411865234375,0.02127893487215042,-0.00207373753413558,0.002882176973344758
1761508284395382800,0.1593828125,0.0299678527623415,0.0010836305182427167,0.003759169870428741
1761508284405354800,0.169354736328125,0.024590835899114608,0.0016780527474358677,0.0038927422553766515
1761508284415326000,0.179325927734375,0.022202479457855223,0.0006760908969677984,0.007395507945632562
1761508284425297000,0.189296875,0.015772738671302796,-0.0009068857118487357,0.009099727180786431
1761508284435268900,0.199268798828125,0.0138379712164402,-0.0019081169099546967,0.006438399017043411
1761508284445239800,0.20923974609375,0.02386953588724136,-0.0015804010592401028,0.0033069691235199567
1761508284455211800,0.219211669921875,0.016992635855078698,0.0022649127246811983,-0.004713283124333247
1761508284465182700,0.2291826171875,0.017745500048995017,0.004642108451109379,-0.002451859264681116
1761508284475153700,0.239153564453125,0.015358897173404693,0.0084561685802415,0.0008771298944018781
1761508284485126000,0.2491259765625,0.015386954224109649,-0.00043519481318071484,-0.0020027911897748706
1761508284495096600,0.2590966796875,0.01720247921347618,0.0032727380603551864,-0.0006002765812445431
1761508284505068800,0.26906884765625,0.02304185289144516,0.003405607192404568,0.0006250365631654859
1761508284515039700,0.279039794921875,0.017947160100936888,0.00554274708526209,-0.002619918441120535
1761508284525011000,0.289010986328125,0.00746317548751831,0.0056740635810419915,-0.003548787655914202
1761508284534982700,0.298982666015625,0.008048281899094581,0.0005979293605312705,0.0070082073947880415
1761508284544953900,0.308953857421875,0.012239888370037078,0.002232161232549697,0.004481273599900305
1761508284554925600,0.318925537109375,0.014652210208773612,0.0017989209144376216,-0.0011153773633763193
1761508284564896800,0.328896728515625,0.03021101386845112,0.0044352607673965394,0.003079580975277349
1761508284574868700,0.33886865234375,0.025431378376483914,-0.0029556897341273722,0.00839173417505808
1761508284584840000,0.34883984375,0.024690789142251014,-0.010206976036634296,-0.0017086853477172553
1761508284594810600,0.358810546875,0.01287117201089859,0.0022001586590893567,0.006329221287835389
1761508284604782800,0.368782958984375,0.010925883162021637,-0.004741787699609995,-0.007038639065669849
1761508284614753800,0.37875390625,0.016315759506821632,-0.0006724011025391519,0.001243378524063155
1761508284624725800,0.388725830078125,0.018866613033413887,0.0028913740599527953,0.006853729219129309
1761508284634696700,0.39869677734375,0.015875614523887634,-0.0007857070175930857,-0.0011467223497107625
1761508284644668000,0.40866796875,0.02455927171707153,0.0017875592702068387,0.005935719325067475
1761508284654639600,0.4186396484375,0.012438625812530517,0.0019453436478041111,0.0034303397748619317
1761508284664610800,0.42861083984375,0.02095510974526405,-0.0018433628443628549,0.0018815485634375362
1761508284674582800,0.438582763671875,0.02515139239132404,-0.00027110855896025893,-0.010841976871388033
1761508284684554000,0.448553955078125,0.01780804389119148,0.00014592954302206635,0.0006186616213060915
1761508284694524700,0.458524658203125,0.011073182678222656,0.007244856561720371,0.003303562456881627
1761508284704497000,0.468496826171875,0.02020925981402397,0.0011550152540206909,0.0013770879063289612
1761508284714467800,0.4784677734375,0.020507950499653815,-0.0020924970335327087,-0.005161995006212964
1761508284724439800,0.488439697265625,0.014229016360640525,0.0038896643823012706,0.0014162234734743833
1761508284734410800,0.49841064453125,0.015277648630738258,0.0033875600790604947,-0.002335941267432645
1761508284744383000,0.508383056640625,0.014078209713101386,0.0008537672851234674,-0.0006031352586112916
1761508284754353700,0.518353759765625,0.020053192469477652,-0.004658219335693866,0.0033116909644100813
1761508284764324600,0.52832470703125,0.016458967369794845,-0.0011569880153983832,0.002231512778578326
1761508284774296800,0.538296875,0.02484334935545921,-0.006188095784094184,0.002700536796124652
1761508284784267800,0.548267822265625,0.01930734253823757,-0.006043353551160544,0.006451642091106623
1761508284794239700,0.55823974609375,0.020201076507568357,-0.0035964718556962907,0.0018907365168910472
1761508284804210700,0.568210693359375,0.010927636727690697,-0.0003173405871726572,-0.005933673498453572
1761508284814182000,0.578181884765625,0.010931143859028816,0.0010720131456851958,-0.004915609896555543
1761508284824153600,0.588153564453125,0.021707389417290685,0.0006075009064748883,0.005769852105714381
1761508284834124800,0.598124755859375,0.013777765461802483,0.00026117168683558703,0.007429547212552279
1761508284844096800,0.6080966796875,0.021108839002251623,0.006150321056973189,-0.0039547472414560615
1761508284854067700,0.618067626953125,0.02110240926146507,-0.004525806861370801,-0.008490125648770481
1761508284864038700,0.62803857421875,0.01795709697306156,0.005694887173362076,-0.0028747608518693594
1761508284874011000,0.638010986328125,0.020047347250580785,-0.0032427447808906435,0.0031236027800943702
1761508284883981800,0.64798193359375,0.011665303352475166,-0.006515811634808778,0.001789276303257793
1761508284893953800,0.657953857421875,0.020642975056171416,0.0015492022033780813,0.0020002978385891762
1761508284903924700,0.6679248046875,0.02588379831910133,-0.005521558166760951,0.009871716200280933
1761508284913896700,0.677896728515625,0.01765957533121109,-0.006497673189919442,0.004072756731091067
1761508284923867600,0.68786767578125,0.021701544198393822,0.0031571123240515587,0.005254568660492077
1761508284933838800,0.6978388671875,0.02214987248778343,0.006778919550403952,-0.00037573797721415753
1761508284943810800,0.707810791015625,0.008382043898105622,0.0019213234513998031,0.00817407283638604
1761508284953781800,0.71778173828125,0.01466097803711891,-0.0075840619208291165,0.002576910416455939
1761508284963753700,0.727753662109375,0.014206804528832434,-0.0018838592515327036,-0.0007514850875828415
1761508284973725000,0.737724853515625,0.012263853767514227,-0.007348864925466478,0.0013165898907463998
1761508284983696000,0.74769580078125,0.01854921764731407,-0.0007687193501740694,0.005688548764120787
1761508284993667800,0.757667724609375,0.021990298011898994,-0.0033289800259284673,0.004870126787014305
1761508285003638800,0.767638671875,0.01885024642050266,-0.0017508257227018475,-0.000883313040016219
1761508285013610800,0.77761083984375,0.017211831563711165,-0.00606965703619644,0.010958936048252507
1761508285023581700,0.787581787109375,0.021403438034653662,0.0031971703398041423,0.008292319788038731
1761508285033554000,0.797553955078125,0.0196066177457571,-0.0014280783080495893,0.00028415070362389086
1761508285043524900,0.80752490234375,0.016909633746743202,-0.0053626230116933585,0.0012620284256059675
1761508285053495800,0.817495849609375,0.014664485168457031,-0.0009288235490210354,-0.010491135873412712
1761508285063467800,0.8274677734375,0.013618190985918044,0.004901325642876327,0.001539849853143096
1761508285073439000,0.83743896484375,0.012268529942631721,0.0010146569352596998,0.003937567777791992
1761508285083410700,0.84741064453125,0.01376432145833969,-0.0023164967814460397,-0.001060989428171888
1761508285093382000,0.8573818359375,0.019153028759360313,-0.0025168416591361165,-0.0012694993460085242
1761508285103352800,0.867352783203125,0.030380525216460227,-0.004583364001195877,-0.006029571620980278
1761508285113324800,0.87732470703125,0.012571312281489371,-0.0002935395864769816,0.0009914495896082372
1761508285123295700,0.887295654296875,0.01600830099284649,-0.00262589152418077,0.0022156393560115247
1761508285133267500,0.897267333984375,0.01734627159833908,0.0003672624098137021,-0.0005838734357152134
1761508285143238400,0.90723828125,0.012861235138773918,-0.0003215966371819377,0.005552793555241077
1761508285153209300,0.917209228515625,0.011665887874364853,-0.008439856766257435,0.009826708014775067
1761508285163181300,0.927181396484375,0.018697101685404775,-0.00613959873355925,-0.00002241276120766997
1761508285173152500,0.937152587890625,0.02587561501264572,0.0012768150027841329,-0.0047981027304194864
1761508285183124200,0.947124267578125,0.025724808365106582,-0.0029685857483185826,0.0004506298443302512
1761508285193095400,0.957095458984375,0.03186345725059509,-0.0026284488074481485,0.001545083150686696
1761508285203067400,0.9670673828125,0.020940496698021886,-0.00033273908570408817,-0.0004905417296104133
1761508285213038300,0.977038330078125,0.018846154767274855,0.0020265739241614937,-0.00900717179281637
1761508285223009300,0.98700927734375,0.01644552336633205,-0.0005760828549042343,-0.00457834989936091
1761508285232981500,0.9969814453125,0.014645195946097374,0.003304229177162051,0.0063772251480259
1761508285242952400,1.006952392578125,0.022276129215955735,0.001018054468743503,-0.003731377681205049
1761508285252924400,1.01692431640625,0.013601239851117133,-0.001671020218450576,0.010264953301567584
1761508285262895400,1.026895263671875,0.014499649995565413,0.0042308790354058145,-0.0004361081286333501
1761508285272866600,1.036866455078125,0.012403554499149321,0.004677928683161735,0.0024911957612261176
1761508285282838300,1.04683837890625,0.02841536262333393,0.004139036033488809,0.003240972948912531
1761508285292809500,1.0568095703125,0.015995441511273384,-0.003645736091211438,0.005051995293097571
1761508285302781400,1.066781494140625,0.018835633373260496,-0.0009914039238356053,0.006604247970087454
1761508285312752400,1.07675244140625,0.012403554499149321,-0.009162727680709212,0.0050699419417418535
1761508285322723300,1.086723388671875,0.01629413219690323,0.0012819295693188904,0.0034504966469015926
1761508285332695600,1.096695556640625,0.02377601238489151,-0.0001058532609604299,0.005266697489703074
1761508285342666500,1.10666650390625,0.020930559825897217,-0.0031005780975334346,0.0021205632173921913
1761508285352638500,1.116638427734375,0.014795418071746825,0.0023230178537778554,-0.00032096644951961934
1761508285362609400,1.126609375,0.020483400580286977,0.008064977305568754,-0.0009071688396390527
1761508285372581400,1.136581298828125,0.02003507229089737,-0.0004107544916681945,0.003145595416193828
1761508285382552300,1.14655224609375,0.018089783442020415,0.0026100181016139685,0.0029651699485257264
1761508285392523300,1.156523193359375,0.01838496699631214,-0.0006415310402400792,0.0016520415233448147
1761508285402495500,1.16649560546875,0.02332417696416378,0.00006393208168447018,0.009715055200690404
1761508285412466200,1.176466064453125,0.018088029876351355,-0.0011953289981000124,0.0010369783649221062
1761508285422438400,1.1864384765625,0.021077274820208547,0.00012284092837944627,0.0025854499159380794
1761508285432409300,1.196409423828125,0.020174773022532462,0.0010659304647706448,-0.0019895572488661853
1761508285442380500,1.206380615234375,0.015238485664129256,0.0016156915683299303,0.00316144143929705
1761508285452352300,1.216352294921875,0.019279285487532615,0.002653747645486146,0.010352129261521622
1761508285462323500,1.226323486328125,0.00895195274055004,-0.005275017793476581,-0.004703026591800153
1761508285472295200,1.236295166015625,0.017033552387356758,-0.0026139453580603,-0.002183061393816024
1761508285482266400,1.246266357421875,0.01823591391444206,-0.0006408003878779709,-0.0014613412568345665
1761508285492237300,1.2562373046875,0.014492051210999488,-0.00022416414469480513,-0.0015915435077622532
1761508285502209500,1.26620947265625,0.018235329392552374,-0.00033997254408895967,0.0016536215590778737
1761508285512180200,1.27618017578125,0.017939561316370964,0.00000767184980213642,0.004542127808509394
1761508285522152400,1.28615234375,0.03050853551030159,-0.008927274957019836,0.007498064137808978
1761508285532123400,1.296123291015625,0.01838964317142963,-0.00274396494589746,-0.002693942658556625
1761508285542095400,1.306095458984375,0.01015840592086315,0.002052146756835282,0.0013929887283593415
1761508285552066300,1.31606640625,0.0034247137516736983,0.004469181303307414,0.0012151479434221982
1761508285562037500,1.32603759765625,0.015993687945604323,0.006622048488259315,-0.0000046487756539136165
1761508285572009200,1.33600927734375,0.015090601626038551,-0.0009815949158743023,-0.00036347215068526564
1761508285581980400,1.34598046875,0.02242518229782581,0.00045024625184014435,-0.004301341322576627
1761508285591952400,1.355952392578125,0.02616436882615089,0.00021749694189056754,-0.0030809052826836704
1761508285601923600,1.365923583984375,0.011795651733875274,-0.0006887494491413235,-0.0006676883948035538
1761508285611894300,1.375894287109375,0.011047463715076446,0.0020509411804378033,0.0010730086595285683
1761508285621866500,1.385866455078125,0.02196867070198059,0.008977452507987618,0.005494998953398317
1761508285631837400,1.39583740234375,0.02510930681526661,0.0028978768659755584,-0.0038879016834776846
1761508285641809400,1.405809326171875,0.01822773060798645,0.003850592747237533,-0.00833596713352017
1761508285651780400,1.4157802734375,0.01298573830127716,0.0066151255571283395,-0.0013263714992441237
1761508285661751600,1.42575146484375,0.013132453295588492,-0.003969232424534857,0.009316749198641627
1761508285671723300,1.43572314453125,0.017322890722751616,0.0006002309154719114,0.008471749741863458
1761508285681694500,1.445694580078125,0.016122867283225057,-0.0010945172384381294,-0.004956444230442866
1761508285691666400,1.45566650390625,0.01148819321990013,-0.0015347352866083384,-0.0029235775628127154
1761508285701637600,1.4656376953125,0.01852525224983692,-0.004661434206087142,0.00028048830865882334
1761508285711609300,1.475609375,0.013888240098953246,-0.00011580839939415454,0.010310536875808612
1761508285721580500,1.48558056640625,0.011941197684407233,0.003605257950350642,0.00611080189733766
1761508285731551500,1.495551513671875,0.012096095985174178,0.0018593823974020777,-0.0020980499914847314
1761508285741523500,1.5055234375,0.011349077010154723,0.0045106092922389505,0.006264101896062493
1761508285751494400,1.515494384765625,0.013894085317850111,0.007413162333332002,0.00041049876334145664
1761508285761466600,1.525466552734375,0.035894320201873775,-0.003842025848291814,-0.0001647986402735114
1761508285771437300,1.535437255859375,0.016889760002493856,0.001598448172584176,0.007727607710519805
1761508285781408300,1.545408203125,0.014044307443499564,0.0012335055840201675,0.0008861808505374938
1761508285791380500,1.55538037109375,0.026163784304261205,0.0010601217784918845,-0.00401860625790432
1761508285801351400,1.565351318359375,0.022722119417786596,0.0013222433133982122,-0.0036869814170524475
1761508285811323400,1.575323486328125,0.02107552125453949,-0.0012236235108226538,0.005363764656009152
1761508285821294300,1.58529443359375,0.021225158858299255,0.001368183080665767,-0.002031158767733723
1761508285831265500,1.595265625,0.020184125372767446,0.000027783056069165466,-0.0032609654241707174
1761508285841237200,1.6052373046875,0.015995441511273384,0.003860456554125994,0.0016538498879410325
1761508285851208400,1.61520849609375,0.023777765950560567,0.006679404698684811,-0.008856100283795966
1761508285861180400,1.625180419921875,0.01974047325849533,0.0034807547878473997,0.003468525493936613
1761508285871151400,1.6351513671875,0.02273673246502876,0.00003589329728856683,0.0002845708287321031
1761508285881122300,1.645122314453125,0.01719897208213806,-0.0018883162309415637,0.000649705213541165
1761508285891094500,1.655094482421875,0.018394903868436813,0.009089808574970812,0.0024235464856494217
1761508285901065500,1.6650654296875,0.02363397356569767,0.005127334684785455,0.0018335447032470256
1761508285911037400,1.675037353515625,0.024382161584496496,0.0009517112342640757,0.005708906565560027
1761508285921008400,1.68500830078125,0.016595745491981506,0.009822251035366207,-0.002748577188933268
1761508285930980400,1.69498046875,0.01988601920902729,0.006082936642877757,-0.0011565861565992236
1761508285940951300,1.704951416015625,0.015250176101922988,-0.0032066140215843914,0.00054506666213274
1761508285950922500,1.714922607421875,0.02138297976851463,-0.002533190005738288,0.006720092902099713
1761508285960894500,1.72489453125,0.020785598397254943,-0.008870174474921076,-0.0015027692457661032
1761508285970865400,1.734865478515625,0.019443536138534546,0.0023270729743875562,0.002914691003458574
1761508285980837400,1.74483740234375,0.02483165891766548,-0.0038794900481589137,0.0009718498399946838
1761508285990808600,1.75480859375,0.019593758264183997,0.0015231727129779754,0.00038853352670557796
1761508286000779300,1.764779296875,0.018097382226586342,-0.0021284085971303283,0.00018075426123104988
1761508286010751500,1.77475146484375,0.010018705189228058,-0.0021738917066715657,0.003150034129293635
1761508286020722400,1.784722412109375,0.009568623334169387,0.0013826865300536155,-0.0015153729990124703
1761508286030694400,1.7946943359375,0.013457447466254234,-0.0007970321292057633,0.004042763451626524
1761508286040665300,1.804665283203125,0.021991467055678365,-0.003863835821300745,0.003385806513391435
1761508286050636300,1.81463623046875,0.02094692643880844,0.0017452727647498249,0.00029996932726353406
1761508286060608500,1.8246083984375,0.005382862082123756,-0.0004352496121078729,-0.003289369534747675
1761508286070579200,1.8345791015625,0.02558627667725086,-0.003217482475470751,-0.0010682228865567594
1761508286080551400,1.844551513671875,0.022295418438315392,-0.002622201729752123,0.0010941884448751806
1761508286090522400,1.8545224609375,0.01436345639526844,-0.002684873436111957,0.004510901553183793
1761508286100494300,1.864494384765625,0.01825344957113266,0.0015830862066708504,0.0017253533547278493
1761508286110465300,1.87446533203125,0.020949849048256874,-0.00011960779167711734,0.006714978335564956
1761508286120436500,1.8844365234375,0.017057517784833907,0.00530512067079544,-0.006242812512861564
1761508286130408200,1.894408203125,0.011373042407631873,-0.0009118724142201244,-0.0008623524503782391
1761508286140379600,1.904379638671875,0.014217325922846793,-0.0006349369026720523,0.007627417005365714
1761508286150352000,1.914351806640625,0.022298341047763823,-0.0004272307024337351,0.001042019866220653
1761508286160322600,1.924322509765625,0.02184709014892578,-0.0048443895575590425,-0.0005206994058564305
1761508286170293800,1.934293701171875,0.021996727752685546,-0.00015256021320819854,0.006114062433503568
1761508286180265700,1.944265625,0.022296002960205077,-0.0014980200054123998,-0.004111746167764068
1761508286190237000,1.95423681640625,0.015555881050229071,-0.005726451355405151,-0.003596508388314396
1761508286200208600,1.964208740234375,0.01106558389365673,0.0015608378422446547,0.00027594913085922596
1761508286210179800,1.974179931640625,0.011215806019306182,-0.002188395156059414,-0.0040923930133227255
1761508286220150800,1.98415087890625,0.01704991900026798,-0.003120543173328042,-0.006957646251330152
1761508286230122800,1.994122802734375,0.030517303338646887,0.0006953253204002975,-0.00042492001433856784
1761508286240093700,2.00409375,0.0300637143522501,0.0035072774685919283,0.007066111594485118
1761508286250066000,2.01406591796875,0.011359013882279395,0.002579184571933001,-0.0005220785121899098
1761508286260036600,2.02403662109375,0.017644962283968925,-0.0025478761182166636,-0.008177159842615947
1761508286270007800,2.0340078125,0.020639467924833295,-0.007216616847924888,-0.0000347151203546673
1761508286279979800,2.043979736328125,0.02063888340294361,0.0012417984883300959,0.0072427833356428885
1761508286289950700,2.05395068359375,0.01644552336633205,0.0007383972771465778,0.00016232355539686977
1761508286299922700,2.063922607421875,0.0065676879525184625,-0.00175570282721892,-0.007438241975661367
1761508286309894000,2.073893798828125,0.024077041158080098,-0.003098331341519952,0.003054884925438091
1761508286319865600,2.083865478515625,0.017046411868929863,-0.0022279234488494695,-0.000501455849269405
1761508286329836800,2.0938369140625,0.021988544446229934,-0.006604110972769558,0.0044356717593502255
1761508286339807700,2.103807861328125,0.021539631634950637,0.001751793837081641,0.0005462996379937976
1761508286349780000,2.113780029296875,0.02482990535199642,0.0024755598006770013,-0.007424204317154362
1761508286359750700,2.123750732421875,0.018543372428417203,-0.0009072875706478953,0.0008493011725600808
1761508286369723000,2.133722900390625,0.02288286293745041,-0.0030336503411643205,0.0005929883239325135
1761508286379693800,2.14369384765625,0.0218330616235733,0.004010733478702604,0.010453260681591928
1761508286389664800,2.153664794921875,0.01614683268070221,0.00336916590584442,-0.004607813455862924
1761508286399636700,2.16363671875,0.017494740158319474,0.0019576186074875294,-0.0005309011394623666
1761508286409608000,2.17360791015625,0.014503157126903534,0.004175404254812747,0.004523761034756899
1761508286419579600,2.18357958984375,0.019891279906034467,-0.0056862106765620405,-0.00494634296153672
1761508286429550800,2.19355078125,0.018098551270365713,-0.002788425142131746,-0.0033559045654721555
1761508286439521800,2.203521728515625,0.016007131949067114,0.0026077713456004858,-0.00582642286485061
1761508286449493800,2.21349365234375,0.019900047734379766,0.0017290705486200748,0.0017975509412586689
1761508286459464700,2.223464599609375,0.016909049224853513,0.0044364298111759124,0.004188071940140798
1761508286469437000,2.23343701171875,0.019303250885009764,-0.002087930456269532,-0.0013056301053147763
1761508286479407900,2.243407958984375,0.02393792494833469,0.003748538878560066,-0.0022491762994322926
1761508286489379800,2.2533798828125,0.022293080350756642,0.003428019953612238,-0.009216595026105641
1761508286499350800,2.263350830078125,0.01855097121298313,-0.0060012131761759515,0.00009045476242899895
1761508286509321700,2.27332177734375,0.02423603111207485,-0.0005811608888208866,-0.01051974091338925
1761508286519293700,2.283293701171875,0.021988544446229934,0.0017831205571070313,-0.006588383680675178
1761508286529264600,2.2932646484375,0.01690145044028759,-0.0019647059353999794,0.0070164637664798645
1761508286539236900,2.30323681640625,0.014805354943871498,0.00005352028552442789,0.001587734982324764
1761508286549207800,2.313207763671875,0.013308978906273842,0.0036515265111811456,-0.0015448274223599581
1761508286559178800,2.3231787109375,0.01690145044028759,-0.0003067826605401933,0.004904997170995921
1761508286569150700,2.333150634765625,0.014357611176371573,0.0008194083577953279,-0.0020296243977732955
1761508286579122000,2.343121826171875,0.010617840126156807,-0.0030301066772080954,-0.005717537396587431
1761508286589093600,2.35309375,0.022585925817489624,0.0005584376003593206,0.00018262655790895221
1761508286599064800,2.36306494140625,0.027219430837035177,0.003504811516869813,0.006377179482253268
1761508286609035800,2.373035888671875,0.011655366480350494,-0.0011304653346538543,0.003450898505700752
1761508286619007700,2.3830078125,0.01659340740442276,-0.0006265891994349658,-0.002899749162653461
1761508286628978700,2.392978759765625,0.021235680252313614,0.0031037199026905,-0.0032261863717343658
1761508286638951000,2.402950927734375,0.014053075271844863,-0.0031378231016919015,-0.005374569177813828
1761508286648921900,2.412921875,0.006421557480096817,0.0014440247958526014,0.002266501893568784
1761508286658892800,2.422892822265625,0.015098200410604477,-0.0019270773387514053,-0.00562092688800767
1761508286668864800,2.43286474609375,0.021084873604774474,-0.0025434191388078032,-0.0023547098999843
1761508286678836000,2.4428359375,0.0127051677942276,-0.0016843911566771566,-0.002178330419771373
1761508286688807700,2.4528076171875,0.015250176101922988,-0.007872048549354076,-0.0008273542022332549
1761508286698779000,2.46277880859375,0.02108428908288479,-0.00008135814052075148,-0.0076044562548864625
1761508286708749800,2.472749755859375,0.021836568754911422,-0.0034938882640562947,-0.00039204065804369746
1761508286718721800,2.4827216796875,0.012709259447455405,-0.006294844094198197,0.004467500802874565
1761508286728692700,2.492692626953125,0.012862988704442977,0.0006684373134747147,-0.0013311846716795115
1761508286738665000,2.5026650390625,0.020346622458100316,0.00522208202984184,0.003594462561700493
1761508286748635600,2.5126357421875,0.014660393515229225,-0.00039992257039994,-0.006355935764824971
1761508286758608000,2.52260791015625,0.01645779832601547,0.007196469109039753,-0.012706994425132869
1761508286768578800,2.532578857421875,0.021842998495697975,0.003694890728872269,-0.006452180947223678
1761508286778549800,2.5425498046875,0.02019581581056118,0.0029588315392844377,-0.002797576562967151
1761508286788521700,2.552521728515625,0.016752981880307195,0.0010688165416009724,0.0034790468879509714
1761508286798492700,2.56249267578125,0.02079085909426212,0.0014767397553659975,0.0051390159894246605
1761508286808464600,2.572464599609375,0.015403320837020873,0.0006804930774495005,0.003908962737815455
1761508286818435600,2.582435546875,0.0116594581335783,0.00748957030409947,-0.00018860877412371337
1761508286828406800,2.59240673828125,0.0224345346480608,0.010999514653813094,-0.0019495448988862333
1761508286838378800,2.602378662109375,0.016748305705189703,0.008579557497892529,0.0009385594917461276
1761508286848349700,2.612349609375,0.013903437668085097,-0.0012890534298494458,0.00043566060406155884
1761508286858321700,2.62232177734375,0.014802432334423065,0.0015413476904854177,-0.0031953345757443456
1761508286868292900,2.63229296875,0.029018589213490483,0.004888941085338592,-0.003021704175043851
1761508286878263800,2.642263916015625,0.020641221490502355,-0.003914488296303898,-0.0028574991898145524
1761508286888235800,2.65223583984375,0.020641806012392044,-0.0011669796864502131,0.0007596501277294009
1761508286898206700,2.662206787109375,0.02258651033937931,0.004385229346901178,-0.000562383123114705
1761508286908178700,2.6721787109375,0.017648469415307046,0.003190704066399485,-0.005794374625617638
1761508286918149600,2.682149658203125,0.027827333602309226,0.006507610062044113,0.0011674728767946362
1761508286928120800,2.692120849609375,0.013164017477631568,-0.003693794750329107,0.001125177238183096
1761508286938092800,2.7020927734375,0.02154606137573719,0.003787263453751802,0.004688322213012725
1761508286948063700,2.712063720703125,0.021994974187016486,0.0036761860284022984,-0.0007527545960620046
1761508286958035700,2.72203564453125,0.02109597952067852,0.00030923034595325586,-0.001969071583263576
1761508286968007000,2.7320068359375,0.024837504136562345,-0.0015718524266034363,-0.0034467977193184196
1761508286977978600,2.741978515625,0.016159692162275315,-0.004925144909881055,-0.004360222769808024
1761508286987949800,2.75194970703125,0.015561726269125938,0.0026400661800056696,-0.0023393753335345536
1761508286997920800,2.761920654296875,0.021995558708906172,0.0072816449081525205,0.0036697654207702725
1761508287007892700,2.771892822265625,0.014368717092275619,0.0032350546647794544,-0.0025664894871413706
1761508287017863700,2.78186376953125,0.010180033230781555,0.006835362445376813,-0.0023685100964736193
1761508287027836000,2.7918359375,0.011226911935210228,0.0010766162555664778,0.0027986908078193665
1761508287037806800,2.801806884765625,0.01765957533121109,0.0014071999168023465,-0.002030181520199403
1761508287047777800,2.81177783203125,0.025139117431640625,-0.0014972162878140807,-0.005833857252635062
1761508287057749800,2.821749755859375,0.018106734576821326,-0.0024561061815358697,0.005888354785693809
1761508287067721000,2.831720947265625,0.017061609438061714,-0.00413923696288839,0.003967981182364746
1761508287077692700,2.841692626953125,0.013023732224106788,-0.00354603857640177,-0.0005138221404980867
1761508287087663900,2.851663818359375,0.01676291875243187,0.003591905278433114,-0.005044780101021751
1761508287097634800,2.861634765625,0.029179917255043982,0.0009759140937589108,-0.0045039238231256605
1761508287107606800,2.871606689453125,0.010925883162021637,-0.0038111557859927415,-0.001181547067919746
1761508287117577700,2.88157763671875,0.022748422902822495,-0.002517919371370226,-0.00581538088102825
1761508287127550000,2.891550048828125,0.019155951368808745,0.006497654923610389,-0.0031171456398442388
1761508287137520600,2.901520751953125,0.012571896803379059,0.00046210108641535043,0.0027995310580357907
1761508287147491300,2.9114912109375,0.01586217052042484,-0.000056899552699178456,0.0005624653215054422
1761508287157463600,2.921463623046875,0.02393967851400375,0.004987834882549941,-0.002808107090136036
1761508287167434500,2.9314345703125,0.01630932976603508,-0.0003021612843498587,0.006163774193590507
1761508287177406500,2.941406494140625,0.009425415471196174,0.004787362140696495,0.0054469768268987535
1761508287187377400,2.95137744140625,0.017354454904794692,-0.0009506700546480715,-0.0029581191532313824
1761508287197348600,2.9613486328125,0.01959843443930149,0.0007535217810422181,-0.004784147270303219
1761508287207320600,2.971320556640625,0.011669395005702972,0.000023874065931886434,0.0006421155621297658
1761508287217291500,2.98129150390625,0.015858663389086723,-0.003012881547771394,-0.0022838092213962225
1761508287227263500,2.991263427734375,0.014664485168457031,0.0010317907331511378,-0.00512652183403261
1761508287237234700,3.001234619140625,0.016164952859282492,-0.003407433823309839,-0.003914104703813791
1761508287247206400,3.011206298828125,0.016761749708652494,-0.00016994973942637443,0.005473673037579283
1761508287257177600,3.021177490234375,0.0211012402176857,0.003136471394822001,-0.0026016612652223557
1761508287267148500,3.0311484375,0.02603869661986828,0.005239179295115173,-0.007980002435855567
1761508287277120500,3.04112060546875,0.010479892960190772,0.003470982312504202,0.002724885786091909
1761508287287091500,3.051091552734375,0.021404607078433037,-0.0007832775984890759,0.004383128721360117
1761508287297063700,3.061063720703125,0.02709083602130413,0.003306768194120377,-0.00010137801524251698
1761508287307034400,3.071034423828125,0.012875263664126396,-0.001838814533408731,-0.0006118026222568005
1761508287317005600,3.081005615234375,0.021551322072744367,0.005119608036056161,0.004733741390472277
1761508287326977500,3.0909775390625,0.021551906594634056,0.0062516625395976,-0.004970481888949871
1761508287336948700,3.10094873046875,0.023645079481601713,0.00960617886558175,0.001976031047012657
1761508287346920400,3.11092041015625,0.009575053074955939,0.0004867788699455559,0.008763106504408643
1761508287356891600,3.1208916015625,0.017352116817235946,-0.004337061089929193,-0.004456175691261887
1761508287366862600,3.130862548828125,0.014358780220150946,-0.006016246348526329,-0.008780313367536291
1761508287376834600,3.14083447265625,0.014658639949560164,-0.0009512180439196526,-0.0021974461121950298
1761508287386805500,3.150805419921875,0.020196400332450865,0.0011435622782446444,-0.009615869142534211
1761508287396777700,3.16077783203125,0.01974748752117157,0.0001745893819257617,-0.00030373218692839147
1761508287406748400,3.17074853515625,0.014661562559008598,-0.005725117914844304,0.004308666112506762
1761508287416719400,3.18071923828125,0.011220482194423675,-0.009159129217825829,0.005006886642891914
1761508287426691600,3.190691650390625,0.01900456019937992,0.0005660363849252462,-0.005137472486309707
1761508287436662500,3.20066259765625,0.011976268997788428,-0.004128386775311082,-0.0018748722274787722
1761508287446634500,3.210634521484375,0.011527356186509132,0.0006336947936564683,0.0041327980889473105
1761508287456605400,3.22060546875,0.019756839871406553,0.0021299429670907557,0.005381510375253856
1761508287466577400,3.230577392578125,0.015714286482334135,0.007199921441450714,-0.0007703176522161811
1761508287476548400,3.24054833984375,0.025585107633471486,-0.001549275268614292,-0.0013577986839693038
1761508287486519600,3.25051953125,0.017503507986664772,-0.005452876844722778,-0.00042581506348215043
1761508287496491500,3.260491455078125,0.018248773396015164,0.004357519356068223,0.0023372564416844397
1761508287506462500,3.27046240234375,0.024836335092782973,-0.0022417510448023677,-0.0051198089654557405
1761508287516434400,3.280434326171875,0.018850830942392347,-0.003442596468236297,-0.005577032947354018
1761508287526405600,3.290405517578125,0.021693945413827895,0.005235836560558527,-0.004680248504411429
1761508287536376600,3.30037646484375,0.017653730112314223,0.006296323665231466,0.001752003899635747
1761508287546348500,3.3103486328125,0.020800211444497108,0.003099244656972587,-0.0025979532044846563
1761508287556319500,3.320319580078125,0.008083937734365464,-0.0001353168174624443,0.0010751549508422613
1761508287566291500,3.33029150390625,0.023049451676011082,-0.004781060264073312,0.0020082162835635244
1761508287576262400,3.340262451171875,0.016760580664873122,0.0032878260316327214,-0.00014487923025153577
1761508287586233600,3.350233642578125,0.022297756525874138,0.002075600697658956,0.0038610136765521016
1761508287596205600,3.36020556640625,0.019903554865717887,-0.004289221626520156,0.007072395204799249
1761508287606176500,3.370176513671875,0.014669161343574523,0.0011281089807860553,0.00013416603999212383
1761508287616148500,3.3801484375,0.014521861827373504,-0.002474829148314893,-0.004400308185024186
1761508287626119700,3.39011962890625,0.007191957330703735,0.002750522550847381,0.0023796890776138753
1761508287636090600,3.400090576171875,0.02350537874996662,-0.0007540697703137993,-0.0011768160938750952
1761508287646062600,3.4100625,0.019465747970342635,-0.002697751183994114,-0.004785407645627856
1761508287656033500,3.420033447265625,0.021560089901089666,-0.005718962168693542,0.0012613799716345965
1761508287666005500,3.430005615234375,0.0166220489770174,0.003963277607783675,0.0013220058513805269
1761508287675976400,3.4399765625,0.017372575083374975,0.004422492617368698,-0.002644148700078949
1761508287685947400,3.449947509765625,0.01857493661046028,0.0020242906355299054,0.0046557077181991185
1761508287695919600,3.459919677734375,0.015882628786563872,-0.002457074295915663,-0.002135212797252461
1761508287705890300,3.469890380859375,0.019324878194928168,0.0005805946332402527,0.0007379314862657338
1761508287715862500,3.479862548828125,0.008997545447945595,0.005709189693350345,0.0017231887971051036
1761508287725833500,3.48983349609375,0.0157288995295763,0.0037404469036497173,-0.0029396245153155177
1761508287735805400,3.499805419921875,0.01902034229040146,0.00565731337564066,-0.0034305863700341433
1761508287745776400,3.5097763671875,0.017673603856563566,0.0021968707234598693,0.00615532602565363
1761508287755747600,3.51974755859375,0.02216214744746685,0.006807232329435646,0.007727808639919385
1761508287765719300,3.52971923828125,0.02141220586299896,0.0051719592778012155,-0.016259882867429406
1761508287775690500,3.5396904296875,0.015876783567667006,0.002932820315193385,0.0010254157912917435
1761508287785662500,3.549662353515625,0.0266477684289217,0.002444233080651611,0.0013642284247558562
1761508287795633700,3.559633544921875,0.01767126576900482,0.0022768223581835626,-0.0014955631868448108
1761508287805604400,3.569604248046875,0.02261047573685646,-0.0021785130828619,-0.00038105347314849495
1761508287815576600,3.57957666015625,0.025454174730181692,0.00005552957952022552,-0.0021990900800097734
1761508287825547500,3.589547607421875,0.019918167912960052,0.0021742935654707253,0.004929748019762337
1761508287835519500,3.59951953125,0.02515489952266216,0.0017999072951264679,0.00004488945449702442
1761508287845490400,3.609490478515625,0.01991641434729099,-0.0025105763151310385,-0.0010878317693248391
1761508287855461600,3.619461669921875,0.014229016360640525,0.001061637882143259,-0.003846007903665304
1761508287865433300,3.629433349609375,0.01812485475540161,0.0005404818185605108,-0.005218447034340352
1761508287875404500,3.639404541015625,0.023065233767032622,0.002545903356838971,-0.0005969429798424244
1761508287885376500,3.64937646484375,0.032196634727716444,0.001691259288880974,-0.0016214271893724799
1761508287895347700,3.65934765625,0.023667291313409805,0.00185203934116289,0.004952133381506428
1761508287905318400,3.669318359375,0.010201660540699958,-0.0019037147294729947,-0.0021897742623928932
1761508287915290600,3.67929052734375,0.01828384470939636,0.0014818908545188604,-0.005207578580453991
1761508287925261600,3.689261474609375,0.007362053200602531,0.00042385143525898455,0.002334059837600216
1761508287935233500,3.699233642578125,0.019633505752682686,-0.0028660752219147978,-0.0040304245598614214
1761508287945204500,3.70920458984375,0.02277647995352745,0.0036805882088840006,0.00032121304469183085
1761508287955176700,3.7191767578125,0.014249474626779555,0.0011084361659362912,-0.01300191311794333
1761508287965147400,3.7291474609375,0.014997078123688697,-0.00391801369395107,-0.007363660635799169
1761508287975118600,3.73911865234375,0.020983166795969007,-0.010925316906441003,0.0012381908922921864
1761508287985090600,3.749090576171875,0.020528408765792844,-0.0022970796949230133,-0.008746292366925626
1761508287995061800,3.759061767578125,0.016634908458590506,0.004781498655490577,-0.00041642618062905963
1761508288005033500,3.769033447265625,0.009601941081881523,-0.006598101357091218,0.0012412139664404094
1761508288015004700,3.779004638671875,0.02097089183628559,-0.0014650675838813185,-0.007133961799461394
1761508288024975600,3.7889755859375,0.0166308168053627,-0.00013235767539590597,0.0007336571699474006
1761508288034947600,3.798947509765625,0.02037701759636402,0.002647664964571595,-0.006664015333307907
1761508288044918500,3.80891845703125,0.012898060017824172,-0.00010590805988758802,-0.0019970647018868475
1761508288054890800,3.818890869140625,0.02053133137524128,0.0007397855166345834,0.003658285045530647
1761508288064861400,3.828861328125,0.01588847400546074,-0.0026305676992982624,-0.0005697353125084191
1761508288074832400,3.838832275390625,0.012147533911466597,0.004645195457339287,0.0010004640131257474
1761508288084804600,3.8488046875,0.008255787169933318,0.0024508637508377433,0.00158561609047465
1761508288094775600,3.858775634765625,0.02292202590405941,0.0011092216172255574,-0.0005582640704233199
1761508288104747500,3.86874755859375,0.01918283937573433,0.0018590718701481817,0.0013453501943498849
1761508288114718500,3.878718505859375,0.027413492104411123,-0.0006942658744752407,0.006680491544073447
1761508288124689700,3.888689697265625,0.016491116073727607,-0.00025806641429662705,0.004684111828776076
1761508288134661400,3.898661376953125,0.018885902255773544,-0.002484766020439565,0.003575392535049468
1761508288144632600,3.908632568359375,0.016941782450675964,-0.006191164524015039,-0.009563901493279263
1761508288154604800,3.918604736328125,0.020085341173410414,-0.0027693551154807207,0.00008551372583024203
1761508288164575500,3.928575439453125,0.0223299052298069,0.002345540212839842,0.004992985981702804
1761508288174546700,3.938546630859375,0.019192191725969313,-0.0010464768456295132,0.004668028343655169
1761508288184518700,3.9485185546875,0.032360300856828686,-0.007030063033569604,-0.0046039227320346975
1761508288194489600,3.958489501953125,0.02802373295724392,-0.007907430389989168,0.00164984956625849
1761508288204461600,3.968461669921875,0.01710194144845009,-0.004253401394467801,-0.0025425697554368526
1761508288214432800,3.978432861328125,0.016804419806599614,-0.011736943816579878,-0.0005535513626877219
1761508288224403700,3.98840380859375,0.016805004328489304,-0.002344791294168681,0.001992361127305776
1761508288234375700,3.998375732421875,0.017405308309197426,-0.00218512548673898,-0.0009383220297284424
1761508288244346600,4.0083466796875,0.020846388673782346,0.0018755846135318278,0.002689613543311134
1761508288254318600,4.018318603515625,0.015610241585969924,-0.0011709252092055975,0.0044823330458253615
1761508288264289500,4.02828955078125,0.016359598648548124,-0.0084480583390221,-0.003999198304535821
1761508288274261800,4.03826171875,0.009777297648787498,-0.0033235183995217084,0.004422172956960275
1761508288284232700,4.048232666015625,0.01725683974921703,0.0029557080004364252,-0.002598903052555397
1761508288294203600,4.05820361328125,0.018454525101184845,0.0015696056705899535,-0.0061656099576503035
1761508288304175600,4.068175537109375,0.016214052698016165,-0.0020261903316713867,-0.004269978069933131
1761508288314146800,4.078146728515625,0.02399462357163429,0.002219831473939121,-0.0009020086073316633
1761508288324118500,4.088118408203125,0.020855741024017334,-0.00702281130887568,0.0021664390525780617
1761508288334089700,4.09808984375,0.02624386380314827,-0.00583573868246749,0.007629106638953089
1761508288344060700,4.108060791015625,0.024002806878089904,-0.00778168511847034,0.0017983363925479351
1761508288354032600,4.11803271484375,0.01397825646996498,-0.001816109511256218,-0.0026304398351348936
1761508288364003600,4.128003662109375,0.019365210205316542,-0.0009028488575480878,0.0004900120066478848
1761508288373975800,4.137975830078125,0.016820201897621154,-0.000525448646210134,-0.005226950001204386
1761508288383946800,4.14794677734375,0.014575053319334983,-0.000007142126839607954,-0.002107429741183296
1761508288393917700,4.157917724609375,0.017419336834549902,-0.008741707523353397,-0.003615642347047105
1761508288403889700,4.1678896484375,0.014274609068036079,-0.007616320222616196,-0.0019453984467312693
1761508288413860900,4.17786083984375,0.018312486281991003,-0.006192205703631043,-0.006207476337999105
1761508288423832600,4.18783251953125,0.011725509107112883,-0.004865085285715758,-0.0005063694864045828
1761508288433803800,4.1978037109375,0.016363105779886245,0.0014602635446004568,0.0051998062659520655
1761508288443774700,4.207774658203125,0.017557284000515937,-0.008543700733222068,0.002079409223096445
1761508288453746700,4.21774658203125,0.024291560691595077,-0.002355769345909357,-0.004263749258546158
1761508288463717600,4.227717529296875,0.01665653576850891,0.0009863076236099003,0.0029536804401315746
1761508288473689900,4.23768994140625,0.015158406165242194,0.0057693954479880625,0.004268461966281756
1761508288483660800,4.247660888671875,0.019798925447463988,-0.001174377541616559,-0.004731074509350583
1761508288493631500,4.257631591796875,0.018006196811795234,-0.007264821637514979,0.0015024404522031545
1761508288503603700,4.267603759765625,0.013369184660911559,-0.002832994936220348,-0.007664068354479968
1761508288513574700,4.27757470703125,0.012619243076443671,0.0044442843240685755,0.004724306841846555
1761508288523546600,4.287546630859375,0.012469605472683906,-0.003140818776376545,0.009900165976630524
1761508288533517600,4.297517578125,0.021295886006951332,-0.004712890398688614,0.0010046652642078696
1761508288543488800,4.30748876953125,0.014711246919631956,0.004397175513021647,0.001193739829212427
1761508288553460500,4.31746044921875,0.014564531925320624,-0.005716057825554162,0.0003856931156478822
1761508288563431700,4.327431640625,0.010973813956975937,-0.0038297326222993433,0.010308975106384604
1761508288573403600,4.337403564453125,0.009179916277527808,-0.002741042336449027,0.006747574564069509
1761508288583374800,4.347374755859375,0.02384206335842609,0.004450403537601232,-0.0031938184720929712
1761508288593346600,4.3573466796875,0.016657120290398595,-0.0004310666273348033,-0.004786978548206389
1761508288603317800,4.36731787109375,0.018153496327996253,0.000047072278428822755,-0.0006002674480900168
1761508288613288700,4.377288818359375,0.019352935245633123,-0.0016798063131049275,0.007567348248045891
1761508288623261700,4.38726171875,0.018902853390574455,0.0011098974706605076,0.001372009872412309
1761508288633232600,4.397232666015625,0.03102525286078453,-0.005937189762946218,-0.004255036229128018
1761508288643203800,4.407203857421875,0.02489011110663414,0.00783933358984068,0.0006720083768945187
1761508288653175600,4.417175537109375,0.026237434062361717,-0.0012056494627147912,0.002211301107611507
1761508288663146800,4.427146728515625,0.01337093822658062,-0.0030330475529655814,0.0031526188120245932
1761508288673118500,4.437118408203125,0.005886135429143905,-0.0039571218616329135,-0.0028060612635221333
1761508288683089700,4.447089599609375,0.0030418519139289854,0.0017177819696255028,-0.011700913521973416
1761508288693060600,4.457060546875,0.009779051214456557,-0.0034705987200140953,-0.002961626284569502
1761508288703032800,4.46703271484375,0.021000702452659607,-0.0032558417244814334,-0.00911515307878144
1761508288713003500,4.47700341796875,0.01995557731389999,-0.004060819698125124,0.005912018789071589
1761508288722975700,4.486975830078125,0.013223054188489913,-0.0060906632916070515,0.005038039832981303
1761508288732946700,4.49694677734375,0.01741466065943241,0.002460307432617992,0.0034687264233361926
1761508288742918000,4.50691796875,0.01651800408065319,0.0002738667716272175,0.00037143626143224537
1761508288752889600,4.5168896484375,0.01786474251449108,0.004470660874340683,0.002620201568910852
1761508288762860800,4.52686083984375,0.01995616183578968,-0.0012720109635032712,0.006763265323545783
1761508288772832500,4.53683251953125,0.016064999616146085,-0.0018678579648025333,-0.0008232990816235542
1761508288782803700,4.5468037109375,0.025342531049251556,0.0027435996197164056,0.0008714216728229076
1761508288792774700,4.556774658203125,0.022052257332205772,0.0010199724311940371,-0.0037767877255100754
1761508288802747000,4.566746826171875,0.017713351345062255,-0.003951441039517522,0.005939856644067913
1761508288812717600,4.576717529296875,0.014874328526854514,-0.0014835530886426567,0.00577839160519652
1761508288822689800,4.586689697265625,0.01876782883405685,-0.0036188298179768022,-0.0010362659788690507
1761508288832660700,4.59666064453125,0.014728782576322555,-0.0026643786373548206,-0.005946761308889836
1761508288842632700,4.6066328125,0.012931962287425994,-0.002778835329879075,0.0006610851240810006
1761508288852603600,4.616603759765625,0.017720365607738493,-0.003922909064777195,0.007189747107308357
1761508288862574600,4.62657470703125,0.018612346011400223,0.0003891089154407382,0.0006389554906636476
1761508288872546600,4.636546630859375,0.01741115352809429,-0.0016489545171149073,0.00007095547751523554
1761508288882517500,4.646517578125,0.019506664502620695,-0.00140573861207813,-0.00046653979951515794
1761508288892489700,4.65648974609375,0.020861586242914197,0.0025937976191751657,-0.003169076756481081
1761508288902460700,4.666460693359375,0.013377367967367172,-0.005036514596175402,0.0036424664218910035
1761508288912431600,4.676431640625,0.01666004289984703,-0.010758929097279905,-0.0015372012383304534
1761508288922403600,4.686403564453125,0.009324877706170081,0.006053326955903321,-0.004155530510563403
1761508288932374800,4.696374755859375,0.023691256710886954,-0.003282894128188491,-0.0062452419319655745
1761508288942346500,4.706346435546875,0.022643793484568596,-0.002248454780224711,-0.003075288392649963
1761508288952317700,4.716317626953125,0.018753800308704376,0.00099292002748698,-0.0012766780054662375
1761508288962288600,4.72628857421875,0.02279343108832836,-0.0018459201276302337,-0.006183227812731638
1761508288972260600,4.736260498046875,0.013667875346541404,-0.004892904874403029,-0.0029756000109948215
1761508288982231600,4.7462314453125,0.01905249099433422,0.0009551818329840898,-0.00139206627975218
1761508288992203800,4.756203857421875,0.015159575209021567,-0.0027154512374661863,-0.0013421079244930296
1761508289002174700,4.7661748046875,0.016506898164749144,0.0011337350039742886,-0.0023522896140348165
1761508289012145700,4.776145751953125,0.01950081928372383,-0.0032078926632180807,-0.004967504480574279
1761508289022117600,4.78611767578125,0.02010287683010101,-0.0035140725355595347,-0.005729666225798428
1761508289032088800,4.7960888671875,0.024444120904803274,-0.003273176451772451,-0.00967847691681236
1761508289042060500,4.806060546875,0.024295652344822883,-0.0038331301557831465,-0.0023926307575777173
1761508289052031700,4.81603173828125,0.023398411244153976,0.001615819432493299,-0.0027501846241299063
1761508289062002700,4.826002685546875,0.014268179327249527,-0.009682038847077638,-0.009596287659229711
1761508289071974700,4.835974609375,0.025488076999783515,-0.011964925619866697,-0.0026553094149101525
1761508289081945600,4.845945556640625,0.022796353697776793,-0.0020075769627466798,0.0010617566131521016
1761508289091917800,4.855917724609375,0.017559622088074683,0.0031411841025575996,-0.005901104669412597
1761508289101888800,4.865888671875,0.02294774486720562,-0.004562010685913265,0.00278646151390858
1761508289111860700,4.87586083984375,0.022349194452166557,0.0008913410828448831,0.0025469902022276073
1761508289121831700,4.885831787109375,0.02115209362208843,-0.0035033684784546494,-0.002612575384881347
1761508289131803000,4.895802978515625,0.018603578183054924,0.002918663925677538,-0.006203868741961196
1761508289141774600,4.905774658203125,0.017252748095989225,-0.006928721550945192,0.0011358356295153498
1761508289151745500,4.91574560546875,0.029968437284231184,-0.011404405660275369,-0.005864453320298344
1761508289161717800,4.9257177734375,0.02921615761220455,-0.007556863386649638,0.0006827672329265624
1761508289171688400,4.9356884765625,0.028166940820217132,0.006409684379212558,0.0014912888705264776
1761508289181659400,4.945659423828125,0.023676059141755103,0.00032873876402154565,0.004694112632982432
1761508289191631600,4.955631591796875,0.01993570356965065,-0.0036021161451935766,-0.004564759765425697
1761508289201602600,4.9656025390625,0.016045125871896743,-0.001855528206191957,0.004902668216591701
1761508289211574500,4.975574462890625,0.016191840866208076,-0.003069927230942994,-0.0037325832576025277
1761508289221545500,4.98554541015625,0.014994155514240264,-0.004557005717232823,-0.002362683143885806
1761508289231516700,4.9955166015625,0.02532265730500221,-0.004551945949625224,-0.0009310155061073601
1761508289241488400,5.00548828125,0.02457271572053432,-0.00531679284228012,0.007378903870703652
1761508289251459600,5.01545947265625,0.015740005445480345,0.0021663294547237455,-0.001965144326817244
1761508289261431600,5.025431640625,0.025761633244156836,0.0007539784387685358,-0.0013554331969469785
1761508289271402500,5.035402587890625,0.01872398969233036,0.0025936514887027443,0.008860374600114301
1761508289281373400,5.04537353515625,0.019027356553077697,0.005004219761770218,-0.00003561930265277624
1761508289291345700,5.055345703125,0.019627076011896134,-0.004631696654949337,-0.01380924744545482
1761508289301316600,5.065316650390625,0.019177578678727148,-0.0027999694494530557,-0.009881433876696974
1761508289311288600,5.07528857421875,0.007355038937926292,0.001553933177422732,-0.0003818115249741822
1761508289321259500,5.085259521484375,0.014240706798434257,-0.0004645122392103076,0.0018059625765774398
1761508289331230700,5.095230712890625,0.011250877332687377,0.0018164565711282193,0.004618955904385075
1761508289341202400,5.105202392578125,0.017833178332448005,-0.0012957571652717887,-0.00011509601334109902
1761508289351173600,5.115173583984375,0.012446224597096442,0.00038083427743986246,0.0007354107356164604
1761508289361145600,5.1251455078125,0.020527239722013473,0.001190031768474728,-0.0050495932734571395
1761508289371116500,5.135116455078125,0.018428221616148946,-0.0032408998836763203,-0.006059829761926085
1761508289381087500,5.14508740234375,0.011393500673770905,-0.006191347187105566,-0.0003210121152922511
1761508289391059700,5.155059814453125,0.01887304277420044,-0.0015361965913325546,-0.00003931823023594915
1761508289401030700,5.16503076171875,0.025454174730181692,0.003722892980650067,-0.00044067470589652656
1761508289411002600,5.175002685546875,0.026949381723999976,0.0014011903011240064,0.0032622075331863016
1761508289420973600,5.1849736328125,0.01991466078162193,0.006143891316186636,0.0014300784688908606
1761508289430945500,5.194945556640625,0.020364158114790917,-0.0013813896221108735,0.008062273891828954
1761508289440916500,5.20491650390625,0.022307108876109122,0.0038904863662086427,0.0057760809171013535
1761508289450887700,5.2148876953125,0.01856616878211498,-0.002681256706919521,0.002439730435470119
1761508289460859600,5.224859619140625,0.010035656324028969,-0.0009210969002917408,-0.004041576141538098
1761508289470830600,5.23483056640625,0.018265724530816076,0.004674403285514563,-0.0048228170465677974
1761508289480802600,5.244802490234375,0.01886252138018608,-0.004778320317715406,0.00917272848491557
1761508289490773800,5.254773681640625,0.022751345512270926,-0.0021798099908046423,0.0005380706657655537
1761508289500744700,5.26474462890625,0.02170329776406288,-0.00083535484559834,0.0019284747113939374
1761508289510716700,5.274716552734375,0.016917817053198815,0.0009271247822791337,0.0023611122413072735
1761508289520687600,5.2846875,0.017964695757627488,0.008031111568585037,0.0036764417567290365
1761508289530659600,5.29465966796875,0.019461071795225143,-0.000988207319751382,0.0029788422808516768
1761508289540630500,5.304630615234375,0.022153964141011236,-0.00334141938239336,0.006707260819990187
1761508289550601500,5.3146015625,0.017216507738828657,-0.0019110029867850243,0.0004506663769483566
1761508289560573700,5.32457373046875,0.016167875468730927,0.0017649273132905362,0.0032826201335527
1761508289570544400,5.33454443359375,0.020057868644595144,0.001795980038680136,-0.000034943449217826126
1761508289580516600,5.3445166015625,0.016768179449439046,-0.007578271500859409,0.002789676384301856
1761508289590487600,5.354487548828125,0.02051028858721256,-0.00014476049924269318,-0.003652311962470412
1761508289600458500,5.36445849609375,0.017816227197647094,-0.0022969883633777496,0.0007556589392013847
1761508289610430500,5.374430419921875,0.01796586480140686,-0.004277786917053163,0.0066163311335258185
1761508289620401700,5.384401611328125,0.02036006646156311,0.004540858300030232,0.0012563567366451025
1761508289630373400,5.394373291015625,0.019012743505835532,-0.002647281372081488,0.0019159257570747284
1761508289640344600,5.404344482421875,0.026195933008193967,-0.0013453319280408323,0.003965661361115053
1761508289650315500,5.4143154296875,0.013628127858042717,0.0020960406974889338,0.003701722328457981
1761508289660287700,5.424287841796875,0.013626374292373657,0.0024660430536605415,-0.007510631358437239
1761508289670258400,5.434258544921875,0.0083873045951128,-0.003156235541217029,-0.009895224940031767
1761508289680230700,5.444230712890625,0.023201427367329597,-0.0029507760969921947,-0.002495716672716662
1761508289690201600,5.45420166015625,0.023651509222388265,0.00039575785193592307,-0.0006930785643868148
1761508289700172500,5.464172607421875,0.017070377266407012,0.004379329329077154,-0.0026862616755999624
1761508289710144500,5.47414453125,0.016920739662647247,-0.002681201907992363,-0.002640267109405249
1761508289720115700,5.48411572265625,0.014229016360640525,-0.008881006396189332,0.0010653276765719055
1761508289730087400,5.49408740234375,0.01767126576900482,-0.004948799780104309,-0.0000795497759245336
1761508289740058600,5.50405859375,0.020364158114790917,0.005560209676716476,-0.0014390746260993183
1761508289750029600,5.514029541015625,0.026944121026992795,0.00037767420597374434,0.00488939774306491
1761508289760001500,5.52400146484375,0.021856442499160765,-0.003497797254193574,-0.0027558563130907713
1761508289769972500,5.533972412109375,0.01482347512245178,-0.0005260149017907679,-0.0015335571096744386
1761508289779944700,5.54394482421875,0.01841594665646553,0.004175952244084328,-0.004195131868589669
1761508289789915600,5.55391552734375,0.010931728380918502,0.002310870758257806,-0.010267519717989488
1761508289799886600,5.563886474609375,0.02574526663124561,-0.0011555815096013248,-0.004963814686145633
1761508289809858600,5.573858642578125,0.015118658676743507,0.0016679332122206687,0.0019168299393728374
1761508289819829500,5.58382958984375,0.014222002097964285,-0.0021615436817519367,0.007798773250589147
1761508289829801500,5.593801513671875,0.02694002937376499,-0.00023355302754789588,0.0002579385501332581
1761508289839772400,5.6037724609375,0.021705635851621625,-0.0022067893292754886,-0.007619142367364838
1761508289849744600,5.61374462890625,0.016170213556289673,0.005735237450059503,-0.006585652867471799
1761508289859715600,5.623715576171875,0.031732524347305294,0.0013968977184966205,-0.012720685023767874
1761508289869686500,5.6336865234375,0.015422025537490844,0.0008793766504153609,-0.0051758956674020735
1761508289879658500,5.643658447265625,0.019611293920874594,-0.0007872961864806711,0.005231151252286508
1761508289889629700,5.653629638671875,0.02230418626666069,-0.0024984474859200416,0.0034195717856753617
1761508289899601400,5.663601318359375,0.020509704065322876,0.00012826602216809988,0.0011894289802759886
1761508289909572600,5.673572509765625,0.02424772154986858,-0.0006842376708053052,0.0005272204781882465
1761508289919543600,5.68354345703125,0.02274725385904312,-0.006281893281079828,-0.002910051360959187
1761508289929515500,5.693515625,0.017805705803632735,-0.0029294227817095813,-0.0008047861773986368
1761508289939486500,5.703486572265625,0.013014379873871803,-0.01021145128235221,0.00366401153341867
1761508289949458700,5.713458740234375,0.020198153898119926,-0.0023642449133098125,-0.0075166044414974745
1761508289959429400,5.723429443359375,0.02049509101808071,0.004301770580839365,0.006424407024309038
1761508289969400600,5.733400634765625,0.015552958440780638,-0.0016130064208991824,0.0042250520828180016
1761508289979372500,5.74337255859375,0.02303308506309986,0.006858469326328486,0.0000929846462327987
1761508289989343700,5.75334375,0.022429858472943303,-0.001994005095120519,-0.0011215513758361338
1761508289999315500,5.7633154296875,0.017490648505091667,-0.0012474975767545401,-0.005525631553679704
1761508290009286700,5.77328662109375,0.021681670454144476,-0.00259348709192127,-0.0024655041975434866
1761508290019257600,5.783257568359375,0.02197919209599495,-0.0032887576133944093,0.0008673939516767859
1761508290029229600,5.7932294921875,0.01643967814743519,-0.003110040045622736,-0.007184385945601389
1761508290039200500,5.803200439453125,0.02003156515955925,-0.009677910661231725,-0.007082048949133605
1761508290049172700,5.8131728515625,0.01135316866338253,-0.003989672424364835,-0.0007112626750487834
1761508290059143400,5.823143310546875,0.016888590958714485,-0.006623893385473639,0.003483823527768254
1761508290069114400,5.8331142578125,0.017037059518694875,0.0015992153575643895,0.005976069601764902
1761508290079086600,5.843086669921875,0.020177111110091208,0.006711516869999468,0.0012830712136346846
1761508290089057800,5.853057861328125,0.020178280153870583,-0.005839958199858665,0.001488165331678465
1761508290099029500,5.863029541015625,0.02047989344894886,-0.0031979009921662507,0.010540911565581335
1761508290109000700,5.873000732421875,0.023621114084124564,-0.006481178712844848,0.006990123748825862
1761508290118971600,5.8829716796875,0.018828034588694573,0.0019352789115160702,0.0010759860679041594
1761508290128943600,5.892943603515625,0.01972527568936348,0.00369719228381291,0.0011717197936493902
1761508290138914000,5.9029140625,0.027057518273591992,-0.0019041713871993124,-0.00015159209882840513
1761508290148886300,5.91288623046875,0.02107026055753231,-0.0032642807592637834,0.004603904465725645
1761508290158857200,5.922857177734375,0.024509002834558487,-0.0011263554151169956,0.0041527996973600234
1761508290168829200,5.9328291015625,0.024210896670818327,0.004497421017102897,-0.0007658241401892155
1761508290178800000,5.942800048828125,0.0213712893307209,-0.003701959790475666,0.008907172883907332
1761508290188771300,5.952771240234375,0.022568390160799024,-0.005073704801406711,0.007865664474340155
1761508290198743000,5.962742919921875,0.021819033098220825,0.006190196409635245,0.006410113637475297
1761508290208714200,5.97271435546875,0.023167525097727775,-0.003368416987173259,0.007667904279381036
1761508290218686200,5.982686279296875,0.00805529616177082,-0.0007576864995062351,0.009954526512371376
1761508290228657200,5.9926572265625,0.013591302978992461,0.0014809592727571725,0.0047683286466635765
1761508290238628000,6.002628173828125,0.017330489507317543,-0.0010851831545121966,0.0028142263036686926
1761508290248600300,6.012600341796875,0.01777764875292778,0.0008665354351513087,0.00008570552207529544
1761508290258571300,6.0225712890625,0.02436754853725433,0.00139041317878291,0.004183980286912992
1761508290268543200,6.032543212890625,0.019878420424461363,0.005403758739680051,-0.005496606388594955
1761508290278514200,6.04251416015625,0.01912964788377285,0.0023074549584649502,-0.00043865627874620255
1761508290288485000,6.052485107421875,0.02107552125453949,-0.001099942332226783,0.009361912647774442
1761508290298457000,6.06245703125,0.025415596285462378,-0.0026731647320091725,0.006131114033004269
1761508290308428000,6.072427978515625,0.02122398981451988,-0.004192647650558501,-0.0009540493218228221
1761508290318400300,6.082400146484375,0.02316986318528652,-0.005044022049196064,0.005214583709975704
1761508290328371000,6.092370849609375,0.02301964105963707,0.0016675861523486673,-0.002503141927346587
1761508290338342100,6.102342041015625,0.014040800312161445,0.0025584340448491275,0.0018875125133432447
1761508290348314000,6.112314208984375,0.008801730614900588,0.00509091166453436,-0.0021349570689257235
1761508290358285300,6.122285400390625,0.01792962444424629,0.00028533801371231676,-0.0015354385395068674
1761508290368257000,6.132257080078125,0.016883330261707304,0.0014100129283964632,0.0034429891938809304
1761508290378228200,6.142228271484375,0.012095511463284492,0.001649045848660171,0.010074983687419443
1761508290388199200,6.15219921875,0.024066519764065743,0.0013487659941427408,-0.0027978414244484153
1761508290398171100,6.162171142578125,0.0224257668197155,0.0020003252380527553,-0.0006270915229339152
1761508290408142000,6.17214208984375,0.010758709901571272,-0.0019358451670967042,-0.0008705996889155357
1761508290418114300,6.1821142578125,0.019137831190228462,0.0008623707166872918,0.001290377737255767
1761508290428085000,6.1920849609375,0.028116087415814398,-0.005115699045918882,0.0021890801426488905
1761508290438056200,6.20205615234375,0.015093524235486983,0.004033785560727119,0.0016240666710305959
1761508290448028200,6.212028076171875,0.01225333237349987,0.00436451535243541,0.002602629379602149
1761508290457999000,6.2219990234375,0.015092939713597297,0.000013590133935213088,0.0014519615071360021
1761508290467971000,6.23197119140625,0.0165916538387537,-0.0017528715493157505,-0.0015413020247127859
1761508290477942300,6.2419423828125,0.022429858472943303,0.00477800979046151,0.0016777056875638663
1761508290487913200,6.251913330078125,0.020785013875365257,0.0056340968968346715,0.00042431722613982855
1761508290497885200,6.26188525390625,0.018691256466507912,0.003366992215067148,-0.009349637688091024
1761508290507856100,6.271856201171875,0.00013736264407634735,0.002687467251997441,-0.004342604914726689
1761508290517828400,6.281828369140625,0.017048165434598923,-0.0006896627645939589,-0.004940168949076906
1761508290527799000,6.291799072265625,0.018691256466507912,-0.0023730492742732165,0.005098053791373968
1761508290537770000,6.30177001953125,0.011509236007928848,-0.0025632746167480944,-0.0023715697032399476
1761508290547742200,6.3117421875,0.02049041484296322,-0.00582642286485061,0.0015044132135808466
1761508290557713200,6.321713134765625,0.013162848433852195,-0.004733513061609119,-0.007595195236196741
1761508290567685000,6.33168505859375,0.028876550394296645,-0.00012629326079040764,-0.0034489714100956917
1761508290577656000,6.341656005859375,0.017056348741054533,0.004518555136676878,0.007974604741530493
1761508290587627300,6.351627197265625,0.011219313150644302,-0.009323252004664391,0.003582297199871391
1761508290597599200,6.36159912109375,0.010920622465014457,0.0011813187390565872,0.0005205441422294825
1761508290607570200,6.371570068359375,0.01840191813111305,0.0007576499668881297,-0.00038419527830556034
1761508290617542100,6.381542236328125,0.027382512444257736,0.0008821165967732667,0.0006290186185389756
1761508290627513000,6.39151318359375,0.02080196501016617,0.0017678499227389692,0.0035987460111733525
1761508290637485300,6.4014853515625,0.016013561689853666,-0.003328395504038781,-0.0011767978275660424
1761508290647456300,6.411456298828125,0.016910218268632888,0.005067749984655529,-0.002477989219781011
1761508290657427200,6.42142724609375,0.02080196501016617,-0.006656517013441771,-0.008774815208511427
1761508290667399200,6.431399169921875,0.016762334230542183,-0.008312997249886394,0.0031798630119767037
1761508290677370000,6.4413701171875,0.01721124704182148,-0.001672572854720056,0.003547362883808091
1761508290687342000,6.451342041015625,0.016011808124184606,-0.0031255116093903777,0.006518542448012158
1761508290697313000,6.46131298828125,0.025139117431640625,-0.0012654168259352446,0.007579614074574783
1761508290707284200,6.4712841796875,0.022445640563964843,-0.008762732045073062,0.011032193080708384
1761508290717256200,6.481256103515625,0.019605448701977727,-0.0036453159661032257,0.008400556802330539
1761508290727227100,6.49122705078125,0.009575053074955939,0.00028665318796411156,0.006797359389392659
1761508290737199000,6.50119921875,0.013162848433852195,-0.004617485466506332,0.004726060407515615
1761508290747170300,6.51117041015625,0.01660685140788555,-0.002767857278138399,0.00023534312583506107
1761508290757141000,6.52114111328125,0.01750759963989258,-0.00030183249078691006,-0.003743497377261519
1761508290767113200,6.53111328125,0.018854922595620154,0.0006941380103118718,-0.004632080247439444
1761508290777084200,6.541084228515625,0.018104981011152266,-0.00783345183832571,0.000270514903916046
1761508290787056000,6.55105615234375,0.017805705803632735,0.0011601480868645012,0.004883954382967203
1761508290797027000,6.561027099609375,0.02139993090331554,0.0013487111952155827,-0.0030735804927535353
1761508290806998300,6.570998291015625,0.02035305219888687,-0.00012004618309438228,0.005676566065382212
1761508290816970000,6.580969970703125,0.01975099465250969,0.0009483319670893251,0.0065747204815037544
1761508290826941200,6.590941162109375,0.012118892338871956,0.0003663490943610668,0.005860690460633486
1761508290836913200,6.6009130859375,0.019001053068041802,0.0007408449625596403,-0.0013863671913277357
1761508290846884400,6.61088427734375,0.01945113492310047,0.0066916248594410714,0.004451453850371763
1761508290856855000,6.62085498046875,0.014665654212236404,-0.004755030773673207,0.005379007890913635
1761508290866827300,6.6308271484375,0.011223989325761794,0.008228405972663312,0.002593852418102324
1761508290876798200,6.640798095703125,0.018258125746250152,0.0046874819627963004,-0.003015365765802562
1761508290886770200,6.650770263671875,0.010031564670801163,0.0015222228649072347,0.004106385006057098
1761508290896741000,6.6607412109375,0.017520459121465683,-0.002875993827730417,-0.006286679054051637
1761508290906712000,6.670712158203125,0.008549217158555984,-0.003679693159740418,0.0020889899021945893
1761508290916684000,6.68068408203125,0.021716741767525673,-0.0025877514708787202,0.006380348686873912
1761508290926655000,6.690655029296875,0.015281155762076377,-0.0028809805301018058,0.005254559527337551
1761508290936627200,6.700627197265625,0.019169395372271535,0.0026371618368662892,-0.0007398585818707942
1761508290946598100,6.71059814453125,0.01303016196489334,-0.007708254556078463,0.0018945907081011682
1761508290956569000,6.720569091796875,0.02006079125404358,-0.0008773856227286159,-0.0007586272144224494
1761508290966541000,6.730541015625,0.022007249146699905,-0.004993040780629962,0.011966030731564386
1761508290976512300,6.74051220703125,0.012879355317354202,-0.0023237850387580693,0.000636790933040902
1761508290986484000,6.75048388671875,0.025750527328252792,0.000010886720195412635,-0.0009602416005916893
1761508290996455200,6.760455078125,0.017367898908257483,-0.000043400750309228896,-0.0004174582270905375
1761508291006426000,6.770426025390625,0.024545243191719055,0.0007060476438142359,-0.006711717799399048
1761508291016398000,6.780398193359375,0.017506430596113204,0.0025153255554847417,0.0017041553030721843
1761508291026369000,6.790369140625,0.01600654742717743,0.0009589994915761053,0.010025217128405347
1761508291036341200,6.80034130859375,0.02273848603069782,0.0019355711724609135,0.0000016622341237962245
1761508291046312200,6.810312255859375,0.01959317374229431,0.001738313301000744,0.0010989376852288842
1761508291056283100,6.820283203125,0.019741642302274702,-0.00117114440491423,0.00452683890783228
1761508291066255000,6.830255126953125,0.02004500916302204,0.0028039515048265454,0.0029615440861787646
1761508291076226300,6.840226318359375,0.018549802169203756,0.0030781653363257644,0.009504243727913126
1761508291086198000,6.850197998046875,0.010768646773695946,-0.0034178638857789334,-0.0019875570880249142
1761508291096169200,6.860169189453125,0.025285832425951955,-0.006920867038052529,0.00032280221357941627
1761508291106141200,6.87014111328125,0.027979893815517423,0.006387929205130785,-0.00640149193960242
1761508291116112100,6.880112060546875,0.02004968533813953,-0.0020976663989946244,-0.007262985873455181
1761508291126083000,6.8900830078125,0.018851999986171722,0.000454429236613214,-0.004977733613643795
1761508291136055000,6.900054931640625,0.015257774886488914,0.0005611410140991211,0.005676529532764107
1761508291146026000,6.91002587890625,0.012713935622572899,-0.00626333471108228,-0.00033922362541779875
1761508291155996700,6.91999658203125,0.016905542093515396,-0.0007975983847863971,0.0010007471409160644
1761508291165969000,6.929968994140625,0.024389175847172737,0.0017805084749124944,0.0023704371920786798
1761508291175939800,6.93993994140625,0.020499182671308517,-0.004640117423422635,0.004740381193812936
1761508291185911800,6.949911865234375,0.03247136001586914,-0.0018969744614325463,0.0028229119336232542
1761508291195882800,6.9598828125,0.016313421419262886,-0.00007491013342514634,-0.003609888459695503
1761508291205855000,6.96985498046875,0.013023732224106788,0.0006924392435699701,0.0015017463324591516
1761508291215826000,6.979825927734375,0.01646481258869171,0.00039595878133550283,0.0007979911104310304
1761508291225796900,6.989796875,0.01751052224934101,-0.0011728797042742372,0.0034916780406609176
1761508291235768800,6.999768798828125,0.02020049198567867,0.0018954583577811717,0.0013692790592089294
1761508291245740000,7.009739990234375,0.013912790018320083,0.0013477796134538948,0.009663197149289772
1761508291255711700,7.019711669921875,0.020945757395029067,0.003614774697367102,0.006783321730885654
1761508291265683000,7.029682861328125,0.015557634615898132,-0.0006570208703167736,0.012012116629304364
1761508291275654000,7.03965380859375,0.021093056911230087,-0.0063492046299390495,0.006717480819905176
1761508291285625900,7.0496259765625,0.024535306319594382,-0.008572835496161132,0.0005145984586328268
1761508291295596800,7.0595966796875,0.019299159231781958,-0.009347089537978172,0.011248740174528211
1761508291305569000,7.069569091796875,0.022740239596366882,-0.0020177147642709316,-0.0038341165364719925
1761508291315539700,7.079539794921875,0.02139525472819805,-0.009750026049371809,0.004746445608418435
1761508291325511000,7.089510986328125,0.01196925473511219,-0.005754179612547159,0.006366119232121855
1761508291335483000,7.09948291015625,0.013318331256508827,0.00512824800023809,0.0017596026842016726
1761508291345454000,7.1094541015625,0.030829438027739523,-0.0007581248909235,0.002342261410364881
1761508291355425800,7.11942578125,0.020502689802646634,0.002446406771428883,0.0025357655553147197
1761508291365397000,7.12939697265625,0.01182195521891117,-0.002777958547044545,-0.00006598704145289957
1761508291375368000,7.139367919921875,0.01810615005493164,-0.002168905004300177,0.0010173146832268684
1761508291385340000,7.14933984375,0.009127309307456016,-0.00022067527966573833,0.0035749906762503085
1761508291395310800,7.159310791015625,0.01421791044473648,-0.0012130290515720843,0.003679154303623363
1761508291405283000,7.169282958984375,0.014367548048496246,0.0035722689962014555,0.0005230374934151768
1761508291415253800,7.179253662109375,0.012719196319580078,0.0012808883897028863,0.003853716286085546
1761508291425224700,7.189224609375,0.019902385821938512,0.0002556369951926172,0.002110206220159307
1761508291435197000,7.199197021484375,0.022446809607744214,-0.0013562551808543502,0.0034324951993301507
1761508291445167900,7.20916796875,0.02050210528075695,-0.005651632553525268,0.0010185933248605579
1761508291455139800,7.219139892578125,0.012271452552080155,-0.001278988693561405,-0.008420969402696937
1761508291465111000,7.229111083984375,0.008380290332436561,0.01086096469964832,0.006983748806966468
1761508291475082000,7.23908203125,0.016460136413574217,0.005373308802489191,0.0020214502244722096
1761508291485054000,7.249053955078125,0.01945464205443859,-0.0006027151335030793,0.0005585928639862686
1761508291495025000,7.25902490234375,0.02109948665201664,-0.006094517482817172,0.0032781266215257347
1761508291504997000,7.2689970703125,0.026935353198647496,-0.006144987294729799,0.0010922978818882255
1761508291514967800,7.2789677734375,0.022296002960205077,-0.0017558672240003943,0.0003030654666479677
1761508291524938800,7.288938720703125,0.022295418438315392,-0.008720281142834574,-0.002309190257824957
1761508291534911000,7.298910888671875,0.014065350231528282,0.0005339972788468003,0.011224856975441799
1761508291544882000,7.3088818359375,0.02154898398518562,-0.000278926539234817,-0.0031403621186502275
1761508291554854000,7.31885400390625,0.013174538871645927,-0.00037318069394677876,0.004940625606803223
1761508291564824800,7.328824951171875,0.013773089286684989,0.0025061376020312307,-0.0013346552703995256
1761508291574796000,7.338796142578125,0.01542261005938053,0.0028746603871695696,-0.0030948333433363584
1761508291584767700,7.348767822265625,0.017517536512017248,0.0031755430298857387,-0.0014382069764193146
1761508291594739000,7.358739013671875,0.016616788280010224,0.00029702845150604844,-0.00006994169736281037
1761508291604711000,7.3687109375,0.023054127851128578,-0.004966572898812592,-0.0012243084974121303
1761508291614681900,7.378681884765625,0.015125672939419745,-0.000744717420078814,0.006701278603775426
1761508291624652800,7.38865283203125,0.020665186887979508,-0.006272833191789686,0.008221537840459495
1761508291634625000,7.398625,0.011236264285445212,-0.0057729573782533405,-0.006991621586168184
1761508291644596000,7.408595947265625,0.011388239976763725,-0.005553688604384661,-0.006745373473828658
1761508291654568000,7.41856787109375,0.027101941937208173,-0.005475289605930448,0.00453197174067609
1761508291664539000,7.428538818359375,0.020371172377467155,-0.0017287965539842843,0.0004686678245197981
1761508291674510800,7.4385107421875,0.022012509843707083,-0.008625241536833346,0.004211754209827632
1761508291684481800,7.448481689453125,0.01736848343014717,-0.004615001248475164,0.0013804397740401328
1761508291694453000,7.458452880859375,0.01976151604652405,0.000644764176942408,0.003224432806065306
1761508291704425000,7.468425048828125,0.01871054568886757,-0.004492361249495297,0.007387278973404318
1761508291714396000,7.47839599609375,0.021849428236484527,-0.0002766432506032288,0.004726444000005722
1761508291724368000,7.488367919921875,0.018407178828120232,-0.004791800853796303,0.005717546529741957
1761508291734339000,7.498339111328125,0.022749591946601866,0.001991466078162193,0.00026874307193793353
1761508291744310000,7.50831005859375,0.01945814918577671,-0.004930296009033918,0.008969351399922743
1761508291754282000,7.518281982421875,0.011377718582749366,-0.005396799275930971,0.005691215645242482
1761508291764253000,7.5282529296875,0.023498364487290382,0.0029522191354073584,-0.002197683574212715
1761508291774225000,7.538224853515625,0.025442484292387962,0.0012294504634104669,0.0009465510019566863
1761508291784195800,7.54819580078125,0.01900923637449741,-0.006274824219476431,0.00490181883322075
1761508291794166800,7.558166748046875,0.01735971560180187,-0.003923420521430671,0.0014167988622095435
1761508291804139000,7.568138916015625,0.01870996116697788,-0.00534596413783729,-0.0007303966337814927
1761508291814109700,7.578109619140625,0.01466974586546421,-0.0045243090240284795,0.0032366712331306185
1761508291824082000,7.58808203125,0.014370470657944678,0.001043937828671187,0.003819037698348984
1761508291834052900,7.598052978515625,0.0208048876196146,-0.0032178843342699106,0.003093865228956565
1761508291844024000,7.608024169921875,0.019908815562725064,0.004752162963151931,0.0043309601427055896
1761508291853995800,7.617995849609375,0.023650340178608894,-0.002327255637478083,-0.0025443324542604386
1761508291863967000,7.627967041015625,0.01961187844276428,-0.002661620424687862,-0.00455796469845809
1761508291873938700,7.637938720703125,0.019313772279024123,-0.0011361096241511404,0.011341861818078905
1761508291883910000,7.647909912109375,0.013325345519185065,-0.002528459031693637,0.0012373323757667095
1761508291893880800,7.657880859375,0.020810148316621778,-0.0005406462153419852,-0.000005653422651812434
1761508291903853000,7.66785302734375,0.02230418626666069,-0.002300513761024922,0.003965981021523475
1761508291913823700,7.67782373046875,0.014371639701724052,-0.00022173472559079525,0.00839526870585978
1761508291923796000,7.6877958984375,0.015570494097471237,-0.00202047297693789,0.005269583566533401
1761508291933767000,7.697766845703125,0.021405776122212408,-0.0016791121933609247,-0.0020694814841262996
1761508291943737900,7.70773779296875,0.02888940987586975,0.0009127126644365488,-0.0014313845099881292
1761508291953709800,7.717709716796875,0.015420271971821784,0.00054196138959378,0.0005272296113427728
1761508291963681000,7.727680908203125,0.01557166314125061,-0.005202153486665338,0.001983748562587425
1761508291973652700,7.73765283203125,0.023203765454888343,-0.0016479681364260613,0.004537542964937165
1761508291983624000,7.7476240234375,0.028437574455142018,-0.0011717471931129693,0.00906006189067848
1761508291993595000,7.757594970703125,0.0179641112357378,-0.006979410558566451,0.004359820911008864
1761508292003567000,7.767567138671875,0.012127660167217254,-0.005710724063310772,-0.00016878069564700126
1761508292013537800,7.777537841796875,0.016320435681939124,0.0017734942122362553,0.008939111525285988
1761508292023510000,7.787510009765625,0.017069208222627637,-0.0016773403613828122,0.005183220457332208
1761508292033481000,7.79748095703125,0.030987843459844587,0.0015183138747699558,0.002922445051651448
1761508292043452000,7.807451904296875,0.026499299868941305,-0.0015533486555330453,0.0016377755359746515
1761508292053423900,7.817423828125,0.014530045133829116,-0.0059463411837816236,0.00892703749500215
1761508292063394800,7.827394775390625,0.019768530309200286,0.0065311918670311565,0.0003001976561266929
1761508292073366800,7.83736669921875,0.014530045133829116,-0.00999523298209533,-0.006268010886199772
1761508292083337700,7.847337646484375,0.017819149807095525,-0.003925027956627309,0.005183814112376422
1761508292093309000,7.857308837890625,0.014530629655718802,0.002788954865094274,-0.0010014229943510144
1761508292103281000,7.867281005859375,0.013933248284459113,-0.00697320001348853,0.0009228230664972215
1761508292113251800,7.877251953125,0.027546178573369978,-0.006746040194109082,0.007648551124939695
1761508292123223800,7.887223876953125,0.02320785710811615,-0.0014015008283779025,0.012881200214568525
1761508292133195000,7.897195068359375,0.027249825975298878,-0.004714698763284832,-0.002929313183855265
1761508292143167700,7.907167724609375,0.01542787075638771,0.00011266659423708915,0.0008174355964176356
1761508292153138700,7.917138671875,0.018270985227823257,-0.003184475255012512,0.0014050992912612854
1761508292163109600,7.927109619140625,0.02305880402624607,-0.0048295025156810875,0.011789970911759883
1761508292173081600,7.93708154296875,0.028893501529097556,0.0008999262480996549,0.004010222022049129
1761508292183052500,7.947052490234375,0.02679799055457115,-0.0025789836425334214,0.0013470215616282074
1761508292193023700,7.957023681640625,0.016621464455127716,-0.0027985446773469446,0.009560969750676303
1761508292202995500,7.966995361328125,0.01721416965126991,-0.004864299834426492,0.006113267849059775
1761508292212966700,7.976966552734375,0.015716040048003196,-0.0000018266309052705764,-0.0024171989432536065
1761508292222938600,7.986938720703125,0.01901157446205616,-0.005762910908274352,0.0018080449358094483
1761508292232909600,7.99690966796875,0.023951368951797485,-0.005979987725056707,0.007899539344478398
1761508292242881500,8.006881591796875,0.031133973932266235,-0.001451879308745265,0.0032023123058024794
1761508292252851700,8.016851806640625,0.031131635844707486,-0.001332435913849622,0.003209299169015139
1761508292262822700,8.02682275390625,0.02036006646156311,0.002252144574653357,0.0041786830572877074
1761508292272794600,8.036794677734376,0.013922726890444754,-0.004226312458142638,0.0060181003788951784
1761508292282765600,8.046765625,0.013473814079165458,-0.004537022375129163,0.002741973918210715
1761508292292737800,8.05673779296875,0.013924480456113815,-0.001936228759586811,0.00798923605508171
1761508292302708700,8.066708740234375,0.01407236449420452,-0.004588332437258214,0.008505359750520438
1761508292312680700,8.0766806640625,0.02649170108437538,-8.402502164244651e-7,0.002337576102092862
1761508292322651600,8.086651611328126,0.02125321590900421,0.0025071422490291297,-0.0010575188294518739
1761508292332622800,8.096622802734375,0.01841068595945835,0.0014148900329135359,0.006003889190452173
1761508292342594600,8.106594482421874,0.012423428243398666,-0.010187796412128955,0.007664506745897233
1761508292352565800,8.116565673828125,0.026188334223628044,-0.007239285337459296,0.0006211184398736805
1761508292362537700,8.126537841796875,0.024245967984199524,-0.000710011432878673,0.0058596310147084295
1761508292372508700,8.1365087890625,0.017064532047510145,-0.0035185660475865006,0.004715191953629255
1761508292382479600,8.146479736328125,0.032626258316636084,-0.009226604963466525,0.0020650793036445974
1761508292392451800,8.156451904296874,0.021104747349023817,-0.004941767251119018,0.007794252339098602
1761508292402422800,8.1664228515625,0.01183072304725647,-0.0006758351686410606,0.005880281077092513
1761508292412394800,8.176394775390625,0.015276479586958885,0.0007836429246701299,0.00615570048498921
1761508292422365700,8.18636572265625,0.02245966908931732,-0.006371927918400615,0.00905064560836181
1761508292432336600,8.196336669921875,0.019317279410362244,-0.004381959677580744,0.006355223378771916
1761508292442308600,8.20630859375,0.016474749460816382,-0.003923237858340144,0.006668024788144975
1761508292452279600,8.216279541015625,0.022612813824415205,-0.005693078808765858,-0.00024993790676817296
1761508292462251800,8.226251708984375,0.013632804033160209,-0.004159366435464471,0.010014056413574144
1761508292472222500,8.236222412109376,0.025154315000772476,-0.003565072070434689,0.007967179486900568
1761508292482193700,8.246193603515625,0.020667524975538254,-0.0033003019207157192,0.0005288279133848846
1761508292492165600,8.25616552734375,0.018125439277291298,-0.011409684623591602,-0.0007636595825664699
1761508292502136800,8.26613671875,0.015281740283966063,-0.007638714717514813,0.007099940798850729
1761508292512108500,8.276108642578125,0.006149754801392555,-0.00396554263010621,0.004848919602204114
1761508292522079700,8.286079833984376,0.02006546742916107,0.006110628367401659,0.014567262738524003
1761508292532050700,8.29605078125,0.019018004202842713,-0.004155841037817299,0.00210992309236899
1761508292542022700,8.306022705078124,0.021565350598096847,-0.008248590244166553,0.007494940598960965
1761508292551993600,8.31599365234375,0.005105798706412315,0.0016084033110179007,0.004158982842974364
1761508292561965800,8.3259658203125,0.014231354448199271,0.0041469636116176845,0.009379366106074302
1761508292571936500,8.3359365234375,0.021859365108609197,-0.0015640527126379311,0.005671743759792298
1761508292581907700,8.34590771484375,0.018719313517212868,-0.0061185742118395866,0.0069525682174135
1761508292591879700,8.355879638671874,0.021418051081895827,-0.00014903481556102633,0.0038583924612030384
1761508292601850600,8.3658505859375,0.024414310288429258,-0.002777666286099702,-0.0023460242700297385
1761508292611822600,8.375822509765625,0.026655951735377312,-0.00430524117955938,-0.0015457864035852253
1761508292621793800,8.385793701171876,0.015581015491485595,0.0004411496299318969,0.0015348174849990754
1761508292631766500,8.3957666015625,0.014983634120225905,-0.0002383935994468629,0.008761590400757267
1761508292641737700,8.40573779296875,0.016330372554063798,-0.0001537657896056771,0.002706308949785307
1761508292651708700,8.415708740234376,0.012887538623809813,-0.0063797824312932785,-0.0017767090826295315
1761508292661680600,8.4256806640625,0.014683774390816688,-0.006166048349067569,-0.0026320198708679526
1761508292671651600,8.435651611328124,0.020672201150655746,-0.007811404403299093,0.004087826436059549
1761508292681623800,8.445623779296875,0.013494856867194175,-0.011607636614795774,0.005966890781465918
1761508292691594500,8.455594482421875,0.014244213929772376,-0.005964717090688645,0.0002741224999539554
1761508292701565700,8.465565673828126,0.016788637715578078,-0.0009700506085529923,0.00034326961287297307
1761508292711537700,8.47553759765625,0.010055530068278312,-0.007684362223837524,0.002069627614598721
1761508292721508900,8.4855087890625,0.01978314335644245,-0.006940941711701452,-0.0000874590877443552
1761508292731480600,8.49548046875,0.01200023439526558,-0.004100603719241917,0.0012217055483721196
1761508292741451800,8.50545166015625,0.020527239722013473,-0.0025331534731201826,0.004424885503854602
1761508292751423500,8.515423583984376,0.01828033757805824,-0.002314377889595926,0.002864029395300895
1761508292761394700,8.525394775390625,0.014388590836524962,-0.00473210655581206,0.007090076991962268
1761508292771365600,8.53536572265625,0.01393909350335598,-0.0052778673376888035,0.01155573289762251
1761508292781337900,8.545337890625,0.021119360396265982,-0.0036615912474691867,0.008388966829236595
1761508292791308500,8.55530859375,0.023362170886993407,-0.009833904940541833,0.002226937068160623
1761508292801280800,8.56528076171875,0.02022153477370739,-0.00016357479756698011,0.0039699996095150705
1761508292811251700,8.575251708984375,0.01917407154738903,-0.010866280195582657,0.002830702514434233
1761508292821222700,8.58522265625,0.020071312648057938,-0.0035373072806745764,-0.00012618366293609142
1761508292831194600,8.595194580078125,0.021415128472447396,-0.0012425474070012568,0.0013416603999212384
1761508292841165600,8.60516552734375,0.016627309674024583,-0.006027333998121321,0.006413465505186468
1761508292851137500,8.615137451171876,0.02351414657831192,-0.00036497912118211385,0.005362312484439462
1761508292861108500,8.6251083984375,0.028303718942403792,-0.013069544127210973,0.0012134674429893494
1761508292871079700,8.63507958984375,0.012291326296329497,-0.005592011320777237,-0.0006421429615933447
1761508292881051600,8.6450517578125,0.013338789522647857,-0.002905238188523799,0.00129785779081285
1761508292891022600,8.655022705078125,0.025160744741559028,0.007193966624699533,0.0019278353905770927
1761508292900994600,8.66499462890625,0.025906010150909424,0.00011171674616634845,0.005560164010943844
1761508292910965800,8.6749658203125,0.033687165546417236,-0.002687211523670703,0.009403733362350612
1761508292920936700,8.684936767578124,0.0169271694034338,0.0042226957289502026,0.006720047236327082
1761508292930908700,8.69490869140625,0.02111819135248661,-0.006503080017399043,-0.0007213548108004033
1761508292940879600,8.704879638671875,0.011393500673770905,-0.005079623085539788,0.0010747530920431018
1761508292950851600,8.7148515625,0.019772621962428093,-0.00370185019262135,0.0029965606006328014
1761508292960822500,8.724822509765625,0.01722936722040176,-0.007710172518528997,0.000966653075069189
1761508292970793700,8.734793701171874,0.02261398286819458,-0.010609802950173617,0.00040716516193933783
1761508292980765700,8.744765625,0.021119944918155668,0.0036419732315465807,0.005052424551360309
1761508292990736600,8.754736572265625,0.010046177718043326,0.0006594137568026781,0.0001283756200224161
1761508293000708600,8.76470849609375,0.015880290699005126,-0.010170735679473727,-0.0012338161112740635
1761508293010679800,8.7746796875,0.031442016968131065,-0.001067537899967283,0.008437710474943742
1761508293020650800,8.784650634765624,0.016775193712115288,-0.0019149850421585142,-0.001676509244320914
1761508293030622700,8.794622802734375,0.017521628165245055,-0.005723985403683037,-0.0012175408299081028
1761508293040593700,8.80459375,0.01437865396440029,0.0009299925928004085,-0.0012123714644461869
1761508293050565600,8.814565673828126,0.02859013466835022,0.0015740626499988139,-0.003697548476839438
1761508293060536600,8.82453662109375,0.01601823786497116,0.0058302039908245205,-0.005107397008454427
1761508293070508800,8.8345087890625,0.020507950499653815,-0.0004903955991379916,0.013322048450401053
1761508293080479700,8.844479736328125,0.02394844634234905,-0.004663059907592833,0.004907627519499511
1761508293090450700,8.85445068359375,0.004790156885981559,0.008020370978862046,-0.0011077146467287093
1761508293100422700,8.864422607421876,0.019448212313652038,-0.00432948057167232,-0.0015827300136443227
1761508293110393900,8.874393798828125,0.018697686207294464,-0.0029302264993079003,0.0025508352602832017
1761508293120365600,8.884365478515624,0.02557984693646431,-0.006929032078199089,0.006907176439417526
1761508293130336800,8.894336669921875,0.02243570369184017,-0.0038873628273606298,0.004995534131815657
1761508293140307700,8.9043076171875,0.02288403198122978,-0.010202299861516802,0.002224964306782931
1761508293150279700,8.91427978515625,0.02587561501264572,-0.006906053061410784,0.006815717029990628
1761508293160250600,8.924250732421875,0.025579262414574623,0.0006913067324087023,-0.001074552162643522
1761508293170222800,8.934222900390624,0.006131634622812271,0.0007553849445655941,0.001905559626687318
1761508293180193500,8.944193603515625,0.017954758885502815,0.0005558437844738364,0.0043980066300835455
1761508293190164700,8.954164794921875,0.012418752068281172,-0.008871014725137502,0.010330282755894586
1761508293200136700,8.96413671875,0.011219897672533988,-0.002777848949190229,0.008506702324235811
1761508293210108000,8.97410791015625,0.019746902999281883,-0.0023451748866587874,0.0049087234980426725
1761508293220079600,8.98407958984375,0.014063012143969536,-0.0022790691141970454,0.0026162012472283093
1761508293230050800,8.99405078125,0.002390110006928444,-0.006428096818737686,0.005629046262381598
1761508293240021800,9.004021728515625,0.013308394384384154,0.003124835755955428,0.003399369247863069
1761508293249993700,9.01399365234375,0.013756722673773765,0.0005214483245275914,-0.000860434487927705
1761508293259964700,9.023964599609375,0.022132921352982518,-0.004443736334796995,0.007422176756849512
1761508293269937000,9.03393701171875,0.01629880837202072,-0.005693571999110281,0.0015333470471203326
1761508293279907600,9.043907470703125,0.020787351962924003,-0.001984671011194587,0.008232013568701221
1761508293289878500,9.05387841796875,0.015099953976273535,0.0005036934721283614,0.004882118618907407
1761508293299850800,9.063850830078126,0.015997195076942444,-0.005177512235753238,-0.004055266740173101
1761508293309821700,9.07382177734375,0.01853869625329971,-0.005742964098788797,-0.0011143179174512624
1761508293319793700,9.083793701171874,0.022727964636683463,0.0025231618020683526,0.00397661201339215
1761508293329764600,9.0937646484375,0.01988601920902729,0.0034965186125598844,0.005174132968578487
1761508293339735800,9.10373583984375,-0.0025590368330478666,0.0009434731288813054,0.003936873658047989
1761508293349707500,9.11370751953125,0.018840894070267677,-0.001976652101520449,-0.0017335549274925142
1761508293359678700,9.1236787109375,0.021683424019813536,-0.0031932248170487582,-0.002735717707360163
1761508293369650700,9.133650634765624,0.029014497560262677,-0.0009298647286370396,0.001233258988847956
1761508293379621600,9.14362158203125,0.01809212152957916,-0.0032444070150144397,-0.0008620419231243432
1761508293389592600,9.153592529296875,0.018392565780878067,0.002819697063229978,0.003056108768144622
1761508293399564800,9.163564697265626,0.012706921359896659,0.004570888112112879,0.003970090941060335
1761508293409535700,9.17353564453125,0.014204466441273688,-0.005209697472304106,0.001447248799400404
1761508293419507700,9.1835078125,0.02034136176109314,0.0033678507315926254,0.008173068189388141
1761508293429478700,9.193478759765625,0.019894202515482903,-0.0017332900660112498,0.001045152538223192
1761508293439449900,9.203449951171875,0.021091887867450712,-0.008263988742697983,0.0037928529443219303
1761508293449421600,9.213421630859376,0.021687515673041342,0.003293872179929167,-0.004006294765602797
1761508293459392800,9.223392822265625,0.01794482201337814,-0.0005034925427287816,0.003028124782675877
1761508293469364700,9.23336474609375,0.017648469415307046,-0.003734309423808008,0.006994891255488619
1761508293479335700,9.243335693359375,0.02094166574180126,-0.0028341822463087735,-0.0002880231611430645
1761508293489306600,9.253306640625,0.016005378383398054,-0.004389174869656563,0.004613165484415367
1761508293499278800,9.26327880859375,0.020192893201112744,-0.0031789770959876474,-0.0006332655353937297
1761508293509249800,9.273249755859375,0.021689269238710403,-0.004675133937876671,0.001002190179331228
1761508293519221800,9.2832216796875,0.01540390535891056,-0.004369995245151221,0.0047522634278517216
1761508293529192700,9.293192626953125,0.021989713490009305,-0.0024896796575747428,0.005617392357205972
1761508293539164700,9.30316455078125,0.01570493413209915,0.0020591792858205733,0.001225212679710239
1761508293549135600,9.313135498046876,0.01286065061688423,-0.00040478140860795975,0.0030163338801823553
1761508293559106600,9.3231064453125,0.019889526340365407,-0.0021616532796062526,0.0010776391688734292
1761508293569078800,9.333078857421874,0.029763270100951193,-0.004497768076974898,0.0023317765489686277
1761508293579049500,9.343049560546875,0.018240005567669866,-0.004791289397142827,0.008410457141837104
1761508293589021700,9.353021728515625,0.008958382481336593,-0.0007218845337629318,0.001382494733808562
1761508293598992600,9.36299267578125,0.018835633373260496,-0.002562123839277774,0.006176222683209926
1761508293608963800,9.3729638671875,0.0007189619243144989,0.010220054713916033,0.008696251813275739
1761508293618935600,9.382935546875,0.021214052942395208,-0.0073518240675330155,0.0027658114515244957
1761508293628906800,9.39290673828125,0.02300385896861553,-0.001827215427160263,-0.0019086374997626988
1761508293638878500,9.40287841796875,0.014615385329723358,-0.004783033025451004,0.0006033179217018186
1761508293648849700,9.412849609375,0.01385842948257923,-0.005307422225736081,-0.0025364688082132486
1761508293658820600,9.422820556640625,0.015502105036377906,0.0006750314510427415,0.002625352668063715
1761508293668792800,9.432792724609374,0.03061433397233486,-0.004018861986231059,0.006145617482392117
1761508293678763500,9.442763427734375,0.028071663752198217,-0.006425795263797045,0.007289325891109183
1761508293688735700,9.45273583984375,0.022544424763321875,-0.005530307728797197,0.006095613461360335
1761508293698706700,9.462706787109376,0.013425883284211158,-0.0010045739326626061,0.00335421493188478
1761508293708678000,9.472677978515625,-0.009773205995559692,0.00583303526872769,-0.0012299253874458371
