time,seconds_elapsed,z,y,x
1761508284315612000,0.07961181640625,0.00009896419942378998,0.00030596822034567595,-0.0011157630942761898
1761508284325582800,0.089582763671875,-0.0010539120994508266,-0.0023793401196599007,-0.00020398059859871864
1761508284335554800,0.099554931640625,-0.00008798344060778618,0.0003482693573459983,-0.002944373292848468
1761508284345525800,0.10952587890625,-0.0007314137183129787,0.0023217573761940002,0.0013141838135197759
1761508284355497000,0.1194970703125,-0.0014781639911234379,0.0003203917294740677,-0.001228602253831923
1761508284365468700,0.12946875,0.0025816396810114384,-0.00006150803528726101,-0.0006949695525690913
1761508284375440000,0.13943994140625,0.0012276885099709034,-0.0012050692457705736,-0.0014462473336607218
1761508284385411800,0.149411865234375,0.0002310359850525856,0.0005294391303323209,0.00004687614273279905
1761508284395382800,0.1593828125,0.0002480801194906235,-0.0017385088140144944,-0.001613338477909565
1761508284405354800,0.169354736328125,-0.0011276286095380783,-0.0005666610086336732,-0.00005640496965497732
1761508284415326000,0.179325927734375,-0.00022614933550357819,-0.0017022329848259687,-0.0006513551343232393
1761508284425297000,0.189296875,-0.0005125491879880428,0.0018053969833999872,0.0011823016684502363
1761508284435268900,0.199268798828125,0.0010597812943160534,0.0011494603240862489,0.00012236367911100388
1761508284445239800,0.20923974609375,-0.0011739591136574745,0.000037467340007424355,-0.0005560254794545472
1761508284455211800,0.219211669921875,0.002368045039474964,0.0005964648444205523,0.00046076939906924963
1761508284465182700,0.2291826171875,0.0005662180483341217,0.0014660540036857128,-0.00164790078997612
1761508284475153700,0.239153564453125,0.0010527772828936577,0.0019976210314780474,0.0010445552179589868
1761508284485126000,0.2491259765625,0.0003838632255792618,0.0007210540352389216,0.00014153739903122187
1761508284495096600,0.2590966796875,0.002143147401511669,-0.0017660721205174923,0.001044349162839353
1761508284505068800,0.26906884765625,0.001617130357772112,-0.0010148922447115183,0.00009456579573452473
1761508284515039700,0.279039794921875,-0.0005791783332824707,-0.00015043013263493776,0.0016200244426727295
1761508284525011000,0.289010986328125,-0.0001328461803495884,0.001549589796923101,-0.0007671902421861887
1761508284534982700,0.298982666015625,0.0006866082549095154,0.0005759381456300616,0.0013367069186642766
1761508284544953900,0.308953857421875,0.00034062517806887627,-0.0011069837491959333,-0.0026093360502272844
1761508284554925600,0.318925537109375,0.001499632839113474,-0.0023847685661166906,-0.0008210234227590263
1761508284564896800,0.328896728515625,-0.001964517403393984,-0.0005551044596359134,-0.001367540331557393
1761508284574868700,0.33886865234375,-0.00009444635361433029,-0.00032101268880069256,-0.0008772523142397404
1761508284584840000,0.34883984375,0.0001640869304537773,-0.0019385972991585732,-0.0021519060246646404
1761508284594810600,0.358810546875,0.001844807993620634,0.0006478648283518851,0.0018476293189451098
1761508284604782800,0.368782958984375,-0.001420612446963787,0.0009030231740325689,0.0035428362898528576
1761508284614753800,0.37875390625,0.002576259896159172,0.0024348734878003597,0.00012999540194869041
1761508284624725800,0.388725830078125,-0.00047525670379400253,-0.003293560817837715,-0.001274258946068585
1761508284634696700,0.39869677734375,0.0010872194543480873,-0.0016847451915964484,-0.0008838395588099957
1761508284644668000,0.40866796875,-0.00138044822961092,-0.0019170035375282168,0.0005354976747184992
1761508284654639600,0.4186396484375,0.0005908231250941753,0.0013293897500261664,0.001112072030082345
1761508284664610800,0.42861083984375,-0.00008099200204014778,-0.0006921292515471578,0.0010582017712295055
1761508284674582800,0.438582763671875,0.0013001235201954842,0.0006615555030293763,0.00007229961920529604
1761508284684554000,0.448553955078125,0.0015341900289058685,-0.0008861236274242401,0.0003774747019633651
1761508284694524700,0.458524658203125,-0.0000565163791179657,0.0008848784491419792,-0.00004037527833133936
1761508284704497000,0.468496826171875,0.0015287105925381184,-0.001233832212164998,0.0007629051106050611
1761508284714467800,0.4784677734375,-0.0007669348269701004,-0.001296682981774211,-0.002075491938740015
1761508284724439800,0.488439697265625,0.0015360722318291664,-0.0019522428046911955,0.00031394045799970627
1761508284734410800,0.49841064453125,-0.0009113731794059277,0.0017042773542925715,-0.0014115215744823217
1761508284744383000,0.508383056640625,-0.0023361165076494217,-0.00036411976907402277,-0.0002995173563249409
1761508284754353700,0.518353759765625,-0.0024972371757030487,-0.001524725230410695,0.0024139774031937122
1761508284764324600,0.52832470703125,-0.00014109304174780846,0.0002204087795689702,0.0004721899749711156
1761508284774296800,0.538296875,0.00045172683894634247,-0.0032190638594329357,-0.001385897514410317
1761508284784267800,0.548267822265625,0.000059081241488456726,-0.0011408519931137562,-0.0015301763778552413
1761508284794239700,0.55823974609375,0.0012207520194351673,0.0005289499531500041,-0.0008508040336892009
1761508284804210700,0.568210693359375,0.00010180054232478142,0.0001148096052929759,0.0005754343001171947
1761508284814182000,0.578181884765625,-0.00028249388560652733,-0.00022687390446662903,-0.002014489844441414
1761508284824153600,0.588153564453125,-0.0009782281704246998,-0.0024047833867371082,-0.003192959353327751
1761508284834124800,0.598124755859375,-0.0019585383124649525,0.001377704436890781,-0.0025854920968413353
1761508284844096800,0.6080966796875,0.00037413230165839195,-0.0013551448937505484,0.0012962439795956016
1761508284854067700,0.618067626953125,0.0001016911119222641,-0.0017250580713152885,-0.0014148540794849396
1761508284864038700,0.62803857421875,-0.001592664048075676,-0.00015867094043642282,0.0010361471213400364
1761508284874011000,0.638010986328125,-0.0005127517506480217,-0.00028330693021416664,0.0014627855271100998
1761508284883981800,0.64798193359375,0.001041982788592577,0.0015037369448691607,0.00023049418814480305
1761508284893953800,0.657953857421875,0.00018204841762781143,0.0006307527073659003,-0.00033755810000002384
1761508284903924700,0.6679248046875,-0.0012805839069187641,0.0012522777542471886,-0.00022795930271968246
1761508284913896700,0.677896728515625,0.0025932500138878822,0.0016932971775531769,0.0002245117211714387
1761508284923867600,0.68786767578125,-0.0008883094415068626,-0.0005073748761788011,-0.0034575872123241425
1761508284933838800,0.6978388671875,-0.00015966873615980148,-0.0013984685065224767,0.0005113219376653433
1761508284943810800,0.707810791015625,-0.0011076987721025944,-0.0023879101499915123,0.00286356033757329
1761508284953781800,0.71778173828125,0.0028388402424752712,-0.0010083925444632769,0.000287218252196908
1761508284963753700,0.727753662109375,-0.0010684896260499954,-0.00040075171273201704,-0.0001180481631308794
1761508284973725000,0.737724853515625,0.0002740100026130676,0.0011273701675236225,0.0011791775468736887
1761508284983696000,0.74769580078125,-0.0016112877056002617,-0.0011828371789306402,-0.0014006143901497126
1761508284993667800,0.757667724609375,0.0007562623359262943,-0.0010379613377153873,0.0008726598462089896
1761508285003638800,0.767638671875,-0.00016011344268918037,-0.0005461710970848799,-0.0031366560142487288
1761508285013610800,0.77761083984375,-0.0025702742859721184,0.002574521116912365,0.00006073515396565199
1761508285023581700,0.787581787109375,0.0010326048359274864,-0.0008502823766320944,-0.0004054211312904954
1761508285033554000,0.797553955078125,-0.002597283571958542,-0.0013919693883508444,-0.0012435178505256772
1761508285043524900,0.80752490234375,0.0019188695587217808,-0.0018145785434171557,0.0011797731276601553
1761508285053495800,0.817495849609375,-0.0015128799714148045,0.0014624411705881357,-0.00020453811157494783
1761508285063467800,0.8274677734375,0.0008350326679646969,0.00039757409831508994,0.0005158401327207685
1761508285073439000,0.83743896484375,0.0007383599877357483,-0.0012759563978761435,0.0007278277771547437
1761508285083410700,0.84741064453125,-0.00025943946093320847,-0.0008032586192712188,-0.0037576518952846527
1761508285093382000,0.8573818359375,0.0018748180009424686,-0.0006748941959813237,-0.0013887701788917184
1761508285103352800,0.867352783203125,-0.00042031798511743546,-0.0007735021645203233,-0.0007910276763141155
1761508285113324800,0.87732470703125,0.0008579995483160019,0.00048564031021669507,0.003110503079369664
1761508285123295700,0.887295654296875,0.0004239017143845558,0.00029660330619663,0.0014965132577344775
1761508285133267500,0.897267333984375,0.002030853182077408,-0.0004584029084071517,0.0008323207730427384
1761508285143238400,0.90723828125,-0.0008471528999507427,0.000400767894461751,-0.00228920578956604
1761508285153209300,0.917209228515625,-0.002329734619706869,0.00041701318696141243,-0.0022372740786522627
1761508285163181300,0.927181396484375,-0.00026534777134656906,-0.0013118605129420757,0.000695948489010334
1761508285173152500,0.937152587890625,0.00043319910764694214,-0.0024117459543049335,-0.0002180484007112682
1761508285183124200,0.947124267578125,-0.0002890690229833126,0.0016764882020652294,-0.004636566620320082
1761508285193095400,0.957095458984375,-0.00204861955717206,0.0014898005174472928,-0.00021278992062434554
1761508285203067400,0.9670673828125,0.00010413350537419319,-0.00008401856757700443,0.0003602763172239065
1761508285213038300,0.977038330078125,-0.001237034797668457,-0.0024049635976552963,0.0011360550997778773
1761508285223009300,0.98700927734375,0.00039384281262755394,-0.0007701340364292264,0.0013516818871721625
1761508285232981500,0.9969814453125,0.0012718872167170048,0.00044799590250477195,0.0013370345113798976
1761508285242952400,1.006952392578125,0.0017927861772477627,0.002496145199984312,-0.0010571562452241778
1761508285252924400,1.01692431640625,0.0012718718498945236,0.0007909230189397931,-0.002288601826876402
1761508285262895400,1.026895263671875,0.0007607662118971348,-0.001096700900234282,-0.001827494241297245
1761508285272866600,1.036866455078125,0.0011746212840080261,0.00022236269433051348,-0.000022403663024306297
1761508285282838300,1.04683837890625,-0.0022692615166306496,0.00350941508077085,-0.0008737097959965467
1761508285292809500,1.0568095703125,-0.00019865389913320541,-0.0013500549830496311,-0.0004228366306051612
1761508285302781400,1.066781494140625,-0.0007236436940729618,0.00038475956534966826,0.0019778781570494175
1761508285312752400,1.07675244140625,-0.0001859511248767376,-0.0013998246286064386,-0.001004862366244197
1761508285322723300,1.086723388671875,0.0011541680432856083,0.00024883076548576355,0.0003616766771301627
1761508285332695600,1.096695556640625,0.000914483331143856,-0.002324049361050129,0.0008301266934722662
1761508285342666500,1.10666650390625,0.0002518408000469208,-0.0008119471604004502,0.0010852082632482052
1761508285352638500,1.116638427734375,-0.0017540515400469303,-0.000160271767526865,-0.0015915348194539547
1761508285362609400,1.126609375,0.0012652501463890076,-0.0002936819801107049,0.0020306995138525963
1761508285372581400,1.136581298828125,-0.0007110820151865482,0.00015346275176852942,-0.00039703812217339873
1761508285382552300,1.14655224609375,0.0028303610160946846,-0.00036155804991722107,0.0005983482114970684
1761508285392523300,1.156523193359375,-0.0002479869872331619,-0.0011631695087999105,0.0012668016133829951
1761508285402495500,1.16649560546875,0.00134761119261384,0.0003166497917845845,-0.0007611518958583474
1761508285412466200,1.176466064453125,0.0012922175228595734,-0.002335858531296253,0.0009504618356004357
1761508285422438400,1.1864384765625,-0.0011841985397040844,-0.00201988872140646,0.0035554019268602133
1761508285432409300,1.196409423828125,0.0017474088817834854,-0.0004323784960433841,0.0005026201251894236
1761508285442380500,1.206380615234375,-0.0007379837334156036,-0.000014104647561907768,-0.0009291768074035645
1761508285452352300,1.216352294921875,0.0016767042689025402,0.000996298622339964,-0.0002572612720541656
1761508285462323500,1.226323486328125,-0.0004381844773888588,0.00033814646303653717,0.0025864150375127792
1761508285472295200,1.236295166015625,0.001992748584598303,-0.0007811802206560969,-0.002481314353644848
1761508285482266400,1.246266357421875,-0.0019812998361885548,-0.0005263633793219924,0.00005485746078193188
1761508285492237300,1.2562373046875,0.0011750790290534496,0.00019668485037982464,0.0013813779223710299
1761508285502209500,1.26620947265625,-0.00011080829426646233,0.0019147053826600313,0.00039692199788987637
1761508285512180200,1.27618017578125,-0.00031560519710183144,0.0005463731940835714,-0.0011322650825604796
1761508285522152400,1.28615234375,0.0009145345538854599,-0.0020036872010678053,0.0018861835123971105
1761508285532123400,1.296123291015625,0.00007910095155239105,0.0003854344831779599,-0.00016737997066229582
1761508285542095400,1.306095458984375,0.0013012122362852097,0.0017741213086992502,0.0012210230343043804
1761508285552066300,1.31606640625,-0.0005867024883627892,0.0008119211415760219,-0.00017021247185766697
1761508285562037500,1.32603759765625,0.0021077520214021206,0.00028958707116544247,0.0024680993519723415
1761508285572009200,1.33600927734375,-0.00011971592903137207,-0.0008707521483302116,0.0025426680222153664
1761508285581980400,1.34598046875,-0.0042099133133888245,-0.00046251341700553894,-0.0013106473488733172
1761508285591952400,1.355952392578125,0.0023579751141369343,-0.00014639622531831264,0.0012675590114668012
1761508285601923600,1.365923583984375,-0.0019067199900746346,-0.00036477542016655207,0.00031255942303687334
1761508285611894300,1.375894287109375,0.0007492504082620144,0.0014664141926914454,0.00008512544445693493
1761508285621866500,1.385866455078125,0.0007719984278082848,0.00001985125709325075,-0.002010159660130739
1761508285631837400,1.39583740234375,0.0003357725217938423,-0.0016440919134765863,-0.0018346575088799
1761508285641809400,1.405809326171875,0.0007002213969826698,-0.00006474589463323355,0.00178053870331496
1761508285651780400,1.4157802734375,0.0011183377355337143,-0.0008772762957960367,0.0006284553091973066
1761508285661751600,1.42575146484375,0.0019116583280265331,-0.0013148389989510179,-0.0015199842164292932
1761508285671723300,1.43572314453125,-0.0024862857535481453,0.0015429990598931909,0.0010960388462990522
1761508285681694500,1.445694580078125,0.0006232317537069321,-0.0008293316932395101,-0.00008849322330206633
1761508285691666400,1.45566650390625,-0.000016193371266126633,-0.00028151937294751406,-0.0009641406359151006
1761508285701637600,1.4656376953125,-0.0005168863572180271,0.0002042955020442605,-0.0006963812629692256
1761508285711609300,1.475609375,-0.0025390242226421833,-0.000413291621953249,-0.0026756427250802517
1761508285721580500,1.48558056640625,0.00011252565309405327,0.001452081953175366,-0.000050363363698124886
1761508285731551500,1.495551513671875,0.000008928589522838593,0.0010579341324046254,-0.003135369159281254
1761508285741523500,1.5055234375,-0.0006150291301310062,-0.00030589778907597065,0.0012253037421032786
1761508285751494400,1.515494384765625,0.002181289717555046,-0.00031228933949023485,-0.0018985841888934374
1761508285761466600,1.525466552734375,-0.002608072943985462,0.000004544854164123535,-0.0005129899363964796
1761508285771437300,1.535437255859375,-0.002221648581326008,0.00021173874847590923,0.0022106249816715717
1761508285781408300,1.545408203125,0.0004520667716860771,0.00012131873518228531,-0.0007304801838472486
1761508285791380500,1.55538037109375,-0.0004946868866682053,0.00013756402768194675,0.0008365238318219781
1761508285801351400,1.565351318359375,-0.0020695840939879417,-0.0015118145383894444,0.0025599468499422073
1761508285811323400,1.575323486328125,-0.0010357452556490898,-0.0011533531360328197,0.00018866825848817825
1761508285821294300,1.58529443359375,0.0005233478732407093,-0.0009111310355365276,-0.001453352626413107
1761508285831265500,1.595265625,-0.0009246128611266613,-0.0009281754028052092,0.00005293136928230524
1761508285841237200,1.6052373046875,-0.0005521778948605061,-0.0007614479400217533,0.00015663052909076214
1761508285851208400,1.61520849609375,-0.0005282093770802021,0.0017062370898202062,0.00013026525266468525
1761508285861180400,1.625180419921875,0.0007343986071646214,0.0007951980805955827,-0.00018836057279258966
1761508285871151400,1.6351513671875,0.0002723401412367821,-0.001162225380539894,-0.0009968962986022234
1761508285881122300,1.645122314453125,0.00010045850649476051,0.0008557201363146305,-0.0002751527354121208
1761508285891094500,1.655094482421875,0.00018434785306453705,0.0001547761494293809,-0.0021329738665372133
1761508285901065500,1.6650654296875,0.0015166816301643848,0.000057231634855270386,0.0016042952192947268
1761508285911037400,1.675037353515625,0.0000032070092856884003,-0.0014911302132532,0.001423466601409018
1761508285921008400,1.68500830078125,-0.0016586813144385815,-0.0008865621639415622,0.00012366333976387978
1761508285930980400,1.69498046875,0.0003093951381742954,-0.0018378434469923377,-0.00020816648611798882
1761508285940951300,1.704951416015625,0.0004912847653031349,-0.0012151927221566439,0.0005249627865850925
1761508285950922500,1.714922607421875,0.00009926781058311462,-0.0013169252779334784,0.0007079220376908779
1761508285960894500,1.72489453125,-0.0023082313127815723,0.00013386853970587254,0.0005460255779325962
1761508285970865400,1.734865478515625,0.0007988782599568367,-0.00007891806308180094,0.00010021240450441837
1761508285980837400,1.74483740234375,-0.0003129211254417896,-0.0017263084882870317,-0.0000832495279610157
1761508285990808600,1.75480859375,0.000023968983441591263,0.00020980951376259327,0.0003867984050884843
1761508286000779300,1.764779296875,0.0013409936800599098,-0.001501461723819375,0.001491549308411777
1761508286010751500,1.77475146484375,0.0012097000144422054,0.0014099059626460075,-0.0021947980858385563
1761508286020722400,1.784722412109375,-0.0003736354410648346,-0.0024088164791464806,0.002795642241835594
1761508286030694400,1.7946943359375,-0.0007049329578876495,0.0016690155025571585,-0.0019152234308421612
1761508286040665300,1.804665283203125,0.0013110693544149399,0.0020594443194568157,-0.00015480781439691782
1761508286050636300,1.81463623046875,0.0013038786128163338,0.0019060461781919003,-0.0013540292857214808
1761508286060608500,1.8246083984375,-0.0014461996033787727,-0.0020300745964050293,-0.0002815831685438752
1761508286070579200,1.8345791015625,-0.00030689919367432594,0.0012922185705974698,0.0007538538193330169
1761508286080551400,1.844551513671875,-0.0014863675460219383,-0.0006217202171683311,-0.0017206354532390833
1761508286090522400,1.8545224609375,0.0018377900123596191,0.0035908680874854326,0.00021228683181107044
1761508286100494300,1.864494384765625,-0.0013473862782120705,0.0002558928681537509,-0.001285497099161148
1761508286110465300,1.87446533203125,0.0014001969248056412,-0.00023972138296812773,-0.0016090711578726768
1761508286120436500,1.8844365234375,-0.0015360219404101372,0.00020728213712573051,-0.0010122114326804876
1761508286130408200,1.894408203125,0.0024888133630156517,0.000604359433054924,0.0012810365296900272
1761508286140379600,1.904379638671875,-0.0020483890548348427,0.0005677427398040891,0.0005468105664476752
1761508286150352000,1.914351806640625,-0.000047822482883930206,0.000058013712987303734,-0.00039781269151717424
1761508286160322600,1.924322509765625,0.0022285175509750843,0.0008401956292800605,-0.000261120090726763
1761508286170293800,1.934293701171875,-0.0023691640235483646,0.0019701749552041292,0.000637164106592536
1761508286180265700,1.944265625,-0.001297004520893097,0.00012374331708997488,0.0018301712116226554
1761508286190237000,1.95423681640625,0.0011951816268265247,-0.00019024335779249668,0.0022440264001488686
1761508286200208600,1.964208740234375,0.000378594733774662,0.0008185654296539724,0.0000621048966422677
1761508286210179800,1.974179931640625,-0.002496819943189621,-0.00030129379592835903,0.0013140569208189845
1761508286220150800,1.98415087890625,-0.00006725965067744255,0.0012000545393675566,0.0005756746977567673
1761508286230122800,1.994122802734375,-0.00043690623715519905,-0.001720367930829525,0.0011527817696332932
1761508286240093700,2.00409375,-0.00031909532845020294,0.00023888901341706514,0.0019157060887664557
1761508286250066000,2.01406591796875,0.003199739381670952,-0.0018769924063235521,0.0008349954150617123
1761508286260036600,2.02403662109375,-0.0008920948021113873,0.0013024827931076288,-0.0007944719982333481
1761508286270007800,2.0340078125,0.00036358553916215897,-0.00033829070162028074,-0.00034466409124433994
1761508286279979800,2.043979736328125,-0.0020788111723959446,0.0005880604148842394,0.0015462352894246578
1761508286289950700,2.05395068359375,-0.0009054229594767094,-0.0009355340152978897,-0.0005004039849154651
1761508286299922700,2.063922607421875,0.00021801935508847237,0.0010793021647259593,-0.0003536846488714218
1761508286309894000,2.073893798828125,-0.0003303252160549164,0.00008620938751846552,0.0006697681965306401
1761508286319865600,2.083865478515625,-0.0002741352654993534,0.0019465407822281122,-0.0026370007544755936
1761508286329836800,2.0938369140625,-0.002422506920993328,-0.0020628483034670353,0.0007579969242215157
1761508286339807700,2.103807861328125,0.0006312541663646698,0.0006496155983768404,-0.0005016376962885261
1761508286349780000,2.113780029296875,0.0011945124715566635,-0.0008609293727204204,-0.00010615831706672907
1761508286359750700,2.123750732421875,0.0022516432218253613,-0.0006826850585639477,-0.0008683374035172164
1761508286369723000,2.133722900390625,0.0013184715062379837,0.000675793329719454,0.00157511280849576
1761508286379693800,2.14369384765625,-0.00023933500051498413,-0.0007016053423285484,0.00024775159545242786
1761508286389664800,2.153664794921875,-0.0012436131946742535,0.0012161369668319821,-0.0016252496279776096
1761508286399636700,2.16363671875,-0.0009427443146705627,0.00131930410861969,0.0004790242528542876
1761508286409608000,2.17360791015625,-0.0005480637773871422,-0.0014567748876288533,-0.0027471291832625866
1761508286419579600,2.18357958984375,-0.0003143502399325371,-0.0006085153436288238,-0.0010979578364640474
1761508286429550800,2.19355078125,0.0006326697766780853,0.0005752597353421152,-0.00037224648986011744
1761508286439521800,2.203521728515625,-0.0008195689879357815,0.00289613613858819,-0.001430813572369516
1761508286449493800,2.21349365234375,0.0010901843197643757,0.002405848354101181,-0.0006787368911318481
1761508286459464700,2.223464599609375,-0.0010901596397161484,0.001837763818912208,-0.00037223880644887686
1761508286469437000,2.23343701171875,0.00003848830237984657,-0.0002738565672188997,0.0009103395277634263
1761508286479407900,2.243407958984375,-0.00007343757897615433,-0.001184958964586258,0.0008094804361462593
1761508286489379800,2.2533798828125,-0.0027142278850078583,0.0018148258095607162,-0.0009077258873730898
1761508286499350800,2.263350830078125,0.0011463477276265621,0.0026426268741488457,-0.00035564147401601076
1761508286509321700,2.27332177734375,-0.0005644671618938446,0.0015256971819326282,0.000441176351159811
1761508286519293700,2.283293701171875,0.00015508942306041718,-0.0018564362544566393,-0.0008641901658847928
1761508286529264600,2.2932646484375,-0.003767214249819517,0.0007334880065172911,0.0024719517678022385
1761508286539236900,2.30323681640625,-0.0018600896000862122,0.00026846828404814005,-0.00044443836668506265
1761508286549207800,2.313207763671875,-0.0026989849284291267,-0.0016173161566257477,-0.00016906752716749907
1761508286559178800,2.3231787109375,-0.0015097619034349918,-0.00007095676846802235,-0.0011441633105278015
1761508286569150700,2.333150634765625,-0.0009691403247416019,-0.0009223694214597344,-0.0013694667723029852
1761508286579122000,2.343121826171875,0.0001666848547756672,0.0006621471839025617,-0.0025159986689686775
1761508286589093600,2.35309375,0.0009621712379157543,-0.003296108916401863,0.0009639539057388902
1761508286599064800,2.36306494140625,0.0015082242898643017,-0.00046534056309610605,0.00445487629622221
1761508286609035800,2.373035888671875,-0.000049192458391189575,-0.0004022236680611968,0.00018263340461999178
1761508286619007700,2.3830078125,-0.00011097732931375504,0.0016621393151581287,-0.0017659282311797142
1761508286628978700,2.392978759765625,0.0008887732401490211,0.00023947865702211857,-0.00065565638942644
1761508286638951000,2.402950927734375,-0.0012434162199497223,0.0014951993944123387,0.00019554246682673693
1761508286648921900,2.412921875,0.0006442321464419365,0.0015410056803375483,0.0007452189456671476
1761508286658892800,2.422892822265625,0.0004050922580063343,0.000032605486921966076,0.0006121071055531502
1761508286668864800,2.43286474609375,-0.00010277237743139267,-0.001035588444210589,-0.00014636118430644274
1761508286678836000,2.4428359375,0.00043100444599986076,-0.00023383775260299444,-0.0006842187140136957
1761508286688807700,2.4528076171875,-0.0014129681512713432,-0.0010021596681326628,-0.0006495976122096181
1761508286698779000,2.46277880859375,-0.0010129231959581375,-0.0007747574709355831,0.0008445277344435453
1761508286708749800,2.472749755859375,-0.0010347608476877213,-0.0002541095018386841,-0.0003677431377582252
1761508286718721800,2.4827216796875,0.00027697253972291946,0.0009122619521804154,-0.0003185623208992183
1761508286728692700,2.492692626953125,-0.0003675119951367378,-0.00034475012216717005,-0.0013396183494478464
1761508286738665000,2.5026650390625,-0.0019340971484780312,0.0001314912224188447,0.0008668332593515515
1761508286748635600,2.5126357421875,-0.00045764073729515076,0.002426070859655738,-0.0016674308571964502
1761508286758608000,2.52260791015625,-0.0010511409491300583,-0.00008146848995238543,-0.000475604145321995
1761508286768578800,2.532578857421875,0.0013611502945423126,0.001877552829682827,0.0026197880506515503
1761508286778549800,2.5425498046875,-0.0011863023974001408,-0.0006252992898225784,-0.005105114541947842
1761508286788521700,2.552521728515625,0.0010321112349629402,-0.0007235698867589235,-0.00012100848834961653
1761508286798492700,2.56249267578125,-0.0010274266824126244,-0.0010820782044902444,0.001179728889837861
1761508286808464600,2.572464599609375,-0.0008130418136715889,-0.0029833088628947735,-0.00003600423224270344
1761508286818435600,2.582435546875,0.002419687807559967,-0.0010517274495214224,-0.0006706964923068881
1761508286828406800,2.59240673828125,0.00005240412428975105,-0.000435205758549273,-0.0010344843612983823
1761508286838378800,2.602378662109375,0.0004119556397199631,0.0006188186234794557,-0.001169731141999364
1761508286848349700,2.612349609375,-0.0015310863964259624,-0.0019378160359337926,-0.0007984865223988891
1761508286858321700,2.62232177734375,0.0005593579262495041,0.0020630061626434326,0.0022103942465037107
1761508286868292900,2.63229296875,-0.00044891517609357834,0.0007785634370520711,0.0017608527559787035
1761508286878263800,2.642263916015625,-0.002704494632780552,0.001526766223832965,-0.0015254173194989562
1761508286888235800,2.65223583984375,-0.0007902141660451889,0.0006639020284637809,0.0014432084280997515
1761508286898206700,2.662206787109375,-0.00025560660287737846,-0.0008263221243396401,0.001214564312249422
1761508286908178700,2.6721787109375,0.000934826210141182,0.0002298875479027629,-0.0012746924767270684
1761508286918149600,2.682149658203125,-0.0002621258608996868,0.0015986013459041715,-0.0023886575363576412
1761508286928120800,2.692120849609375,-0.001019529066979885,0.0015514633851125836,0.0015328472945839167
1761508286938092800,2.7020927734375,-0.0027937637642025948,0.002559090033173561,0.0009068992221727967
1761508286948063700,2.712063720703125,-0.0019010715186595917,0.00039766845293343067,-0.00044864980736747384
1761508286958035700,2.72203564453125,0.00042408285662531853,0.0012395133962854743,0.0004369294038042426
1761508286968007000,2.7320068359375,-0.00007739057764410973,0.0010443037608638406,0.0010904690716415644
1761508286977978600,2.741978515625,-0.00038540735840797424,0.0017278939485549927,-0.001193271134980023
1761508286987949800,2.75194970703125,0.0002625398337841034,-0.0021826918236911297,-0.0012507954379543662
1761508286997920800,2.761920654296875,0.002645664382725954,0.0019043285865336657,-0.000796936103142798
1761508287007892700,2.771892822265625,-0.0007879487238824368,0.00054292066488415,-0.0007897455943748355
1761508287017863700,2.78186376953125,0.0003520650789141655,0.0024475138634443283,0.0001327571226283908
1761508287027836000,2.7918359375,-0.0015574214048683643,-0.0007112614111974835,0.001701891771517694
1761508287037806800,2.801806884765625,0.0003971434198319912,-0.0021781683899462223,0.0019014928257092834
1761508287047777800,2.81177783203125,0.00177346495911479,-0.00036215875297784805,0.00035366369411349297
1761508287057749800,2.821749755859375,0.0013282648287713528,0.0002212870167568326,-0.0010341189336031675
1761508287067721000,2.831720947265625,-0.000595602672547102,0.0015645853709429502,0.0005475323414430022
1761508287077692700,2.841692626953125,-0.0006071417592465878,0.0017204646719619632,0.0010261016432195902
1761508287087663900,2.851663818359375,0.0012038075365126133,0.0006048664799891412,0.0009981384500861168
1761508287097634800,2.861634765625,0.00015046866610646248,-0.0007176796207204461,0.0007032208377495408
1761508287107606800,2.871606689453125,0.0010365024209022522,0.002314063021913171,0.00045794376637786627
1761508287117577700,2.88157763671875,0.0021005021408200264,-0.0013548772549256682,-0.0005248733796179295
1761508287127550000,2.891550048828125,-0.00041405484080314636,-0.001042222254909575,0.000609899521805346
1761508287137520600,2.901520751953125,0.002185653429478407,-0.000723500270396471,0.0008265069918707013
1761508287147491300,2.9114912109375,0.00009453948587179184,0.0008285900694318116,-0.0008499529794789851
1761508287157463600,2.921463623046875,-0.0015494734980165958,-0.001133827376179397,-0.0008380843792110682
1761508287167434500,2.9314345703125,0.0003336472436785698,-0.0008533963700756431,0.0011094853980466723
1761508287177406500,2.941406494140625,0.00025519030168652534,-0.000698972144164145,-0.0006935299606993794
1761508287187377400,2.95137744140625,0.0019561508670449257,0.0006943937623873353,0.0004894462181255221
1761508287197348600,2.9613486328125,0.00038533471524715424,-0.00016086467076092958,0.0012880231952294707
1761508287207320600,2.971320556640625,0.0009347447194159031,0.0029001724906265736,0.0007141120731830597
1761508287217291500,2.98129150390625,-0.0011844583787024021,0.00004635634832084179,0.0003266364801675081
1761508287227263500,2.991263427734375,-0.0020899330265820026,0.0011992387007921934,-0.0003743075649254024
1761508287237234700,3.001234619140625,-0.00004674866795539856,0.001354672946035862,0.0001416071318089962
1761508287247206400,3.011206298828125,0.00024140533059835434,-0.001203559571877122,-0.0006072737160138786
1761508287257177600,3.021177490234375,-0.0012650080025196075,-0.000036615761928260326,-0.00016768649220466614
1761508287267148500,3.0311484375,0.0016005532816052437,-0.000327432993799448,-0.0013490647543221712
1761508287277120500,3.04112060546875,-0.001435132697224617,-0.0011740326881408691,-0.0012260082876309752
1761508287287091500,3.051091552734375,0.0012988685630261898,0.000730127387214452,-0.0014531759079545736
1761508287297063700,3.061063720703125,0.0022697406820952892,-0.0006765763973817229,-0.00009621353819966316
1761508287307034400,3.071034423828125,0.000222835224121809,-0.0015913721872493625,-0.00009861041326075792
1761508287317005600,3.081005615234375,0.0012208009138703346,0.00009851157665252686,-0.0019720536656677723
1761508287326977500,3.0909775390625,0.00029961345717310905,0.000036992598325014114,0.0001251857029274106
1761508287336948700,3.10094873046875,0.0018108789809048176,-0.00045255443546921015,0.0019266362069174647
1761508287346920400,3.11092041015625,-0.000029365532100200653,-0.002130079548805952,0.0010208949679508805
1761508287356891600,3.1208916015625,0.0028253174386918545,0.0015145104844123125,-0.001738482853397727
1761508287366862600,3.130862548828125,-0.0013217572122812271,-0.0002447738079354167,0.0013065756065770984
1761508287376834600,3.14083447265625,-0.0005142288282513618,0.0014239181764423847,-0.0011873221956193447
1761508287386805500,3.150805419921875,-0.0033206678926944733,0.001644960604608059,-0.0016658923123031855
1761508287396777700,3.16077783203125,0.0006306534633040428,-0.0009400313720107079,0.001907660742290318
1761508287406748400,3.17074853515625,-0.0011225058697164059,-0.0009131333790719509,0.0002338639460504055
1761508287416719400,3.18071923828125,-0.0004321932792663574,0.00002364290412515402,-0.0010935042519122362
1761508287426691600,3.190691650390625,0.001404056791216135,0.00028729590121656656,-0.001845580991357565
1761508287436662500,3.20066259765625,0.0007243524305522442,0.0007846532389521599,-0.0012004156596958637
1761508287446634500,3.210634521484375,0.0004628300666809082,-0.00028567120898514986,-0.0010033417493104935
1761508287456605400,3.22060546875,-0.0016214116476476192,-0.0009366892045363784,-0.0019278506515547633
1761508287466577400,3.230577392578125,-0.000411005225032568,0.00010700360871851444,0.002597925253212452
1761508287476548400,3.24054833984375,-0.0012783566489815712,-0.00020154181402176619,0.0010358815779909492
1761508287486519600,3.25051953125,-0.00004904111847281456,-0.0014100841945037246,0.0013370850356295705
1761508287496491500,3.260491455078125,0.0009120292961597443,-0.0019939483609050512,-0.0017766603268682957
1761508287506462500,3.27046240234375,-0.0011031846515834332,-0.00021921785082668066,0.00031099165789783
1761508287516434400,3.280434326171875,0.0021606432273983955,0.00009755045175552368,0.00023192609660327435
1761508287526405600,3.290405517578125,0.00008843746036291122,-0.0008681116160005331,0.000050032162107527256
1761508287536376600,3.30037646484375,0.00027059484273195267,-0.0007289232453331351,-0.00042147201020270586
1761508287546348500,3.3103486328125,-0.0011459407396614552,0.0004921359941363335,-0.001501650083810091
1761508287556319500,3.320319580078125,-0.001288868486881256,0.001529037021100521,-0.0008303613285534084
1761508287566291500,3.33029150390625,-0.00007260311394929886,-0.00009762181434780359,0.002417097333818674
1761508287576262400,3.340262451171875,-0.00007992144674062729,0.0006335277575999498,0.003191028255969286
1761508287586233600,3.350233642578125,-0.0003582220524549484,-0.0005238819867372513,0.001253578462637961
1761508287596205600,3.36020556640625,-0.001851765438914299,0.0020982911810278893,-0.002793618943542242
1761508287606176500,3.370176513671875,0.0007006083615124226,-0.0010295914253219962,0.0005928566679358482
1761508287616148500,3.3801484375,-0.0025004162453114986,0.0006399387493729591,-0.0009502929751761258
1761508287626119700,3.39011962890625,0.0003909775987267494,-0.00037818774580955505,-0.0002019447274506092
1761508287636090600,3.400090576171875,-0.0000017881393432617188,0.00030087423510849476,0.0018515045521780849
1761508287646062600,3.4100625,-0.00007209554314613342,0.00008515827357769012,-0.0012907591881230474
1761508287656033500,3.420033447265625,0.0015034051612019539,0.0012818865943700075,0.0004056121688336134
1761508287666005500,3.430005615234375,-0.0008340515196323395,-0.0021980658639222383,0.0003917637513950467
1761508287675976400,3.4399765625,0.002266167663037777,-0.0005029796157032251,-0.004247826524078846
1761508287685947400,3.449947509765625,0.00150397140532732,0.0008706788648851216,0.001505666528828442
1761508287695919600,3.459919677734375,-0.0012927800416946411,0.002783986274152994,0.0006615211023017764
1761508287705890300,3.469890380859375,0.001391686499118805,0.00046676979400217533,0.0013483504299074411
1761508287715862500,3.479862548828125,0.0014328458346426487,-0.00007762724999338388,0.00002225919160991907
1761508287725833500,3.48983349609375,0.001617136411368847,-0.00005072937346994877,0.0015983178745955229
1761508287735805400,3.499805419921875,-0.0008789212442934513,0.0003521398175507784,-0.0023862309753894806
1761508287745776400,3.5097763671875,0.0004430715925991535,0.000463992590084672,-0.0001859273761510849
1761508287755747600,3.51974755859375,0.000470584724098444,-0.001617812435142696,0.001068736775778234
1761508287765719300,3.52971923828125,0.001873005647212267,0.0012307045981287956,-0.0004711029469035566
1761508287775690500,3.5396904296875,-0.0014668223448097706,0.0003358770627528429,0.0008031298639252782
1761508287785662500,3.549662353515625,0.0008578510023653507,-0.0019104991806671023,-0.0023138339165598154
1761508287795633700,3.559633544921875,0.0012073530815541744,-0.0013760431902483106,-0.0011234800331294537
1761508287805604400,3.569604248046875,-0.0007681800052523613,0.0004410315304994583,-0.0007490396383218467
1761508287815576600,3.57957666015625,-0.002143939957022667,-0.0010096696205437183,0.00022244418505579233
1761508287825547500,3.589547607421875,-0.00005495641380548477,0.0005879607633687556,-0.0014971588971093297
1761508287835519500,3.59951953125,-0.0002665356732904911,0.0015764378476887941,0.003314630826935172
1761508287845490400,3.609490478515625,-0.00036374107003211975,-0.0009996378794312477,-0.0009498890722170472
1761508287855461600,3.619461669921875,0.0012283208779990673,-0.0011935783550143242,-0.00010186049621552229
1761508287865433300,3.629433349609375,-0.000807665754109621,0.0004021876957267523,-0.001073914347216487
1761508287875404500,3.639404541015625,0.0002699890173971653,0.0008260955801233649,-0.0011967490427196026
1761508287885376500,3.64937646484375,-0.0010109911672770977,0.0009115830762311816,-0.0023211357183754444
1761508287895347700,3.65934765625,-0.000512941274791956,-0.0009855694370344281,0.0027840938419103622
1761508287905318400,3.669318359375,-0.0002476903609931469,0.0012464260216802359,-0.0010018557077273726
1761508287915290600,3.67929052734375,-0.0022734180092811584,0.0007486756658181548,-0.0031320364214479923
1761508287925261600,3.689261474609375,0.0012294379994273186,0.000047998037189245224,0.0025170608423650265
1761508287935233500,3.699233642578125,-0.0010651391930878162,-0.0002501185517758131,0.0008440412348136306
1761508287945204500,3.70920458984375,0.0014928271993994713,0.001954712439328432,-0.0014345594681799412
1761508287955176700,3.7191767578125,0.00040412042289972305,-0.0009626143146306276,-0.00023465754929929972
1761508287965147400,3.7291474609375,0.001505071297287941,0.0011620556470006704,0.0015549868112429976
1761508287975118600,3.73911865234375,0.0004838695749640465,-0.0012122741900384426,0.0013279166305437684
1761508287985090600,3.749090576171875,-0.001985413022339344,0.00013448623940348625,0.0024091601371765137
1761508287995061800,3.759061767578125,0.0015422399155795574,-0.0010742906015366316,0.0007383184274658561
1761508288005033500,3.769033447265625,0.000266052782535553,-0.002066051820293069,-0.00002174766268581152
1761508288015004700,3.779004638671875,0.00008521322160959244,0.0006042724126018584,-0.0006235810578800738
1761508288024975600,3.7889755859375,-0.0021608970127999783,0.00013315922114998102,-0.00019747531041502953
1761508288034947600,3.798947509765625,-0.00009745731949806213,0.0019004159839823842,-0.0025956262834370136
1761508288044918500,3.80891845703125,-0.00035019125789403915,0.0004599121166393161,-0.0019069330301135778
1761508288054890800,3.818890869140625,-0.0005739005282521248,0.0026427735574543476,0.00028796272817999125
1761508288064861400,3.828861328125,0.0005339742638170719,-0.0006632745498791337,0.0021689534187316895
1761508288074832400,3.838832275390625,-0.0025716572999954224,-0.0005834773182868958,-0.0006486576166935265
1761508288084804600,3.8488046875,0.00046461261808872223,0.0005198701983317733,-0.001334954285994172
1761508288094775600,3.858775634765625,0.00017908914014697075,-0.0013989545404911041,-0.0006580264307558537
1761508288104747500,3.86874755859375,0.0020132078789174557,-0.0001054573804140091,0.0004607675364241004
1761508288114718500,3.878718505859375,0.001155945472419262,0.0017081977566704154,-0.0013564730761572719
1761508288124689700,3.888689697265625,-0.0010017473250627518,-0.0015224828384816647,0.0005263818893581629
1761508288134661400,3.898661376953125,0.00009556720033288002,0.0010191603796556592,-0.0015754306223243475
1761508288144632600,3.908632568359375,0.0012809406034648418,0.0015981316100805998,0.0007545690750703216
1761508288154604800,3.918604736328125,0.0016169166192412376,0.0005822009406983852,0.0008221269818022847
1761508288164575500,3.928575439453125,-0.0001042843796312809,0.00051349145360291,-0.000006115995347499847
1761508288174546700,3.938546630859375,0.002299313433468342,0.0009841297287493944,-0.0008148610359057784
1761508288184518700,3.9485185546875,-0.00045572686940431595,-0.0004340036539360881,-0.0008614663383923471
1761508288194489600,3.958489501953125,0.0006126430816948414,-0.00022567622363567352,-0.0019098647171631455
1761508288204461600,3.968461669921875,0.0019839047454297543,0.00039830245077610016,-6.444752216339111e-7
1761508288214432800,3.978432861328125,0.0006058863364160061,-0.00004009238909929991,0.0013062143698334694
1761508288224403700,3.98840380859375,0.0013952474109828472,0.00038814393337816,-0.0009646630496717989
1761508288234375700,3.998375732421875,-0.001189129427075386,0.0002693652641028166,-0.0010188956512138247
1761508288244346600,4.0083466796875,0.001072426326572895,0.001624381635338068,0.0006993758725002408
1761508288254318600,4.018318603515625,-0.000053421128541231155,-0.0008967013563960791,-0.0023701819591224194
1761508288264289500,4.02828955078125,0.0019090622663497925,0.0018900304567068815,0.0021587894298136234
1761508288274261800,4.03826171875,0.003418510314077139,-0.0010768750216811895,-0.002581940498203039
1761508288284232700,4.048232666015625,-0.0005187070928514004,0.0005218206206336617,0.0013020135229453444
1761508288294203600,4.05820361328125,0.00029774243012070656,0.00009186146780848503,-0.0022521838545799255
1761508288304175600,4.068175537109375,-0.001314002089202404,0.0007544559775851667,0.0017215185798704624
1761508288314146800,4.078146728515625,0.0014054724015295506,0.0006189360283315182,-0.0012290081940591335
1761508288324118500,4.088118408203125,-0.0011575538665056229,0.000013599521480500698,-0.002155255526304245
1761508288334089700,4.09808984375,0.0017251325771212578,-0.0011370853753760457,0.0010068871779367328
1761508288344060700,4.108060791015625,-0.001300218515098095,0.001608101068995893,-0.002664013998582959
1761508288354032600,4.11803271484375,0.0014151670038700104,0.0009133507846854627,-0.0014374526217579842
1761508288364003600,4.128003662109375,0.0009352653287351131,-0.00047841714695096016,0.002035309560596943
1761508288373975800,4.137975830078125,0.00026010023429989815,0.0006608988624066114,0.0011751409620046616
1761508288383946800,4.14794677734375,0.0006201597861945629,0.0014995282981544733,-0.0014406158588826656
1761508288393917700,4.157917724609375,-0.0017373566515743732,0.0007615023641847074,-0.00019336841069161892
1761508288403889700,4.1678896484375,-0.0024143322370946407,-0.0015975256683304906,-0.00005088932812213898
1761508288413860900,4.17786083984375,-0.002592284232378006,-0.0009782619308680296,0.0005965420277789235
1761508288423832600,4.18783251953125,0.002432035282254219,-0.0002573443343862891,0.0035941959358751774
1761508288433803800,4.1978037109375,-0.0017510242760181427,-0.0009716931963339448,0.00029603345319628716
1761508288443774700,4.207774658203125,-0.00024260999634861946,-0.000012688920833170414,-0.0017348931869491935
1761508288453746700,4.21774658203125,0.0004307362250983715,-0.001995041035115719,-0.0019099434139207006
1761508288463717600,4.227717529296875,0.00032953592017292976,-0.0022760042920708656,0.00002937053795903921
1761508288473689900,4.23768994140625,-0.00007933052256703377,-0.0006539329187944531,-0.0005522141000255942
1761508288483660800,4.247660888671875,-0.0008734855800867081,0.0026180266868323088,-0.00199804431758821
1761508288493631500,4.257631591796875,-0.0020392523147165775,0.00022441684268414974,0.000012863310985267162
1761508288503603700,4.267603759765625,-0.0016179396770894527,0.00004571874160319567,0.0007582820253446698
1761508288513574700,4.27757470703125,-0.0016712499782443047,0.0018063165480270982,0.0009718092624098063
1761508288523546600,4.287546630859375,0.0010544960387051105,-0.0006528464145958424,-0.000614902179222554
1761508288533517600,4.297517578125,-0.0017670239321887493,-0.0009534179698675871,0.001307070255279541
1761508288543488800,4.30748876953125,0.0024170679971575737,-0.000019447412341833115,-0.0006663321983069181
1761508288553460500,4.31746044921875,0.0014794631861150265,0.0012380671687424183,-0.0007036436581984162
1761508288563431700,4.327431640625,0.0023362021893262863,-0.0003619600320234895,0.00032034178730100393
1761508288573403600,4.337403564453125,-0.0009003649465739727,0.0014886513818055391,0.00003834743984043598
1761508288583374800,4.347374755859375,0.0006080493330955505,0.0009893086971715093,-0.00027057924307882786
1761508288593346600,4.3573466796875,0.0015358035452663898,-0.0017557707615196705,0.0018055062973871827
1761508288603317800,4.36731787109375,0.00025082845240831375,-0.0020588384941220284,-0.0005958660622127354
1761508288613288700,4.377288818359375,-0.0014583412557840347,-0.00003708398435264826,0.00020159187261015177
1761508288623261700,4.38726171875,0.002624018583446741,0.001736847567372024,0.00033315212931483984
1761508288633232600,4.397232666015625,-0.001500401645898819,-0.000771921593695879,-0.0001401851186528802
1761508288643203800,4.407203857421875,0.0005174754187464714,-0.0004978823708370328,0.00021960795857012272
1761508288653175600,4.417175537109375,0.0017355340532958508,0.00007233652286231518,-0.0019393649417907
1761508288663146800,4.427146728515625,-0.0011657141149044037,0.0015844793524593115,0.0014063643757253885
1761508288673118500,4.437118408203125,0.0025242683477699757,-0.0008116058306768537,0.0009754077764227986
1761508288683089700,4.447089599609375,-0.001846511848270893,-0.0008193290559574962,-0.002804416697472334
1761508288693060600,4.457060546875,-0.0009080837480723858,0.0004628646420314908,0.001541719539090991
1761508288703032800,4.46703271484375,-0.0013949102722108364,0.0018921832088381052,-0.00036057643592357635
1761508288713003500,4.47700341796875,-0.0022783768363296986,-0.000008728820830583572,-0.002812836319208145
1761508288722975700,4.486975830078125,-0.0009454651735723019,-0.00045507459435611963,-0.00040427345084026456
1761508288732946700,4.49694677734375,0.00001460593193769455,-0.001209223992191255,0.0003994432045146823
1761508288742918000,4.50691796875,-0.0012189699336886406,-0.0008781930664554238,-0.003787578782066703
1761508288752889600,4.5168896484375,-0.0013473914004862309,-0.0009561843471601605,0.0016465515363961458
1761508288762860800,4.52686083984375,-0.0002309945411980152,-0.002990306820720434,0.0013152542524039745
1761508288772832500,4.53683251953125,0.0021718679927289486,0.00023577571846544743,0.0006391470087692142
1761508288782803700,4.5468037109375,-0.001319801900535822,0.0008016974898055196,-0.000994169618934393
1761508288792774700,4.556774658203125,0.0015146136283874512,-0.0009420219575986266,0.001221642829477787
1761508288802747000,4.566746826171875,-0.001048412173986435,0.000758139998652041,0.0021209921687841415
1761508288812717600,4.576717529296875,-0.00028389086946845055,0.00036168924998492,-0.002937288722023368
1761508288822689800,4.586689697265625,0.0010748542845249176,-0.0017078531673178077,-0.0009287325665354729
1761508288832660700,4.59666064453125,0.0009650061838328838,-0.00046732183545827866,0.00134846824221313
1761508288842632700,4.6066328125,-0.00027629313990473747,0.001289831823669374,-0.000906163826584816
1761508288852603600,4.616603759765625,0.0012926887720823288,0.00024243630468845367,0.0009849554626271129
1761508288862574600,4.62657470703125,0.0007086573168635368,-0.0005823447136208415,0.00014872290194034576
1761508288872546600,4.636546630859375,0.00018549710512161255,-0.0019681365229189396,0.002870897762477398
1761508288882517500,4.646517578125,0.002180471085011959,0.0012995621655136347,-0.002996845170855522
1761508288892489700,4.65648974609375,-0.0025069816038012505,0.0008295202278532088,-0.00011935376096516848
1761508288902460700,4.666460693359375,0.001593220978975296,-0.0010445461375638843,0.00509298499673605
1761508288912431600,4.676431640625,-0.0008023004047572613,-0.0013271276839077473,0.00031130784191191196
1761508288922403600,4.686403564453125,0.0004741526208817959,0.0006539978785440326,0.0023747249506413937
1761508288932374800,4.696374755859375,-0.0006902772001922131,0.00045751919969916344,0.00020661845337599516
1761508288942346500,4.706346435546875,0.0006538201123476028,0.0015914931427687407,0.0010433836141601205
1761508288952317700,4.716317626953125,-0.00019684433937072754,-0.001691537327133119,-0.002671981230378151
1761508288962288600,4.72628857421875,-0.0008445251733064651,-0.0007128255674615502,0.00008678727317601442
1761508288972260600,4.736260498046875,0.00040983129292726517,0.00012621795758605003,0.0008795475587248802
1761508288982231600,4.7462314453125,0.0004865303635597229,-0.000555285019800067,0.00037727539893239737
1761508288992203800,4.756203857421875,0.00047526415437459946,-0.00041531852912157774,0.0011571934446692467
1761508289002174700,4.7661748046875,-0.002608942799270153,0.0004542035167105496,-0.0008170078508555889
1761508289012145700,4.776145751953125,0.00018392689526081085,0.0017805092502385378,-0.0015726143028587103
1761508289022117600,4.78611767578125,0.0018976712599396706,-0.0017535054357722402,0.00029506057035177946
1761508289032088800,4.7960888671875,-0.0005927481688559055,-0.0008122016442939639,-0.0004659311380237341
1761508289042060500,4.806060546875,-0.0013794456608593464,-0.001190104172565043,0.000912254792638123
1761508289052031700,4.81603173828125,-0.001443847082555294,-0.0012040433939546347,0.0002391741145402193
1761508289062002700,4.826002685546875,0.001968194730579853,0.0015166420489549637,0.0021816836670041084
1761508289071974700,4.835974609375,0.001380611676722765,-0.0020879218354821205,0.0003054260741919279
1761508289081945600,4.845945556640625,0.0008716811425983906,-0.0004199841059744358,-0.0020458789076656103
1761508289091917800,4.855917724609375,0.0022298102267086506,0.0005827245186083019,-0.0012517641298472881
1761508289101888800,4.865888671875,0.0013626846484839916,0.0017907344736158848,-0.0012379155959933996
1761508289111860700,4.87586083984375,-0.0008675819262862206,0.0025516925379633904,-0.0013241898268461227
1761508289121831700,4.885831787109375,0.00008929148316383362,-0.002166896127164364,0.0011046130675822496
1761508289131803000,4.895802978515625,-0.000034722499549388885,-0.0010992145398631692,0.0007816585712134838
1761508289141774600,4.905774658203125,0.00043932022526860237,-0.0012129315873607993,0.0004921728977933526
1761508289151745500,4.91574560546875,0.0014623869210481644,-0.0002505671000108123,0.0024400544352829456
1761508289161717800,4.9257177734375,-0.0019778842106461525,-0.0009983826894313097,0.0006341647822409868
1761508289171688400,4.9356884765625,-0.0007805414497852325,-0.001461135339923203,0.00029549968894571066
1761508289181659400,4.945659423828125,-0.0020316941663622856,-0.000027289497666060925,-0.0014952098717913032
1761508289191631600,4.955631591796875,-0.0011020745150744915,-0.0006752230692654848,-0.00016083871014416218
1761508289201602600,4.9656025390625,0.00013975705951452255,0.0004856487503275275,0.000389902968890965
1761508289211574500,4.975574462890625,0.00027112243697047234,0.0005482713459059596,0.0015769656747579575
1761508289221545500,4.98554541015625,0.001156357116997242,0.001031368738040328,-0.0008323960937559605
1761508289231516700,4.9955166015625,-0.00019526993855834007,-0.0015149122336879373,-0.0008662579348310828
1761508289241488400,5.00548828125,0.0011994275264441967,-0.0008286157390102744,0.0024994451086968184
1761508289251459600,5.01545947265625,-0.0009864871390163898,-0.0014364810194820166,0.0010082063963636756
1761508289261431600,5.025431640625,-0.000388074666261673,-0.0006170263513922691,0.0023219436407089233
1761508289271402500,5.035402587890625,0.0025792764499783516,-0.000313629861921072,0.001195558113977313
1761508289281373400,5.04537353515625,-0.0002572564408183098,0.00030662037897855043,-0.0016822537872940302
1761508289291345700,5.055345703125,0.0011017117649316788,0.00067778246011585,-0.00034997821785509586
1761508289301316600,5.065316650390625,0.0012109014205634594,-0.0019185333512723446,-0.0005158931598998606
1761508289311288600,5.07528857421875,0.0011296523734927177,-0.0006659928476437926,-0.0011964535806328058
1761508289321259500,5.085259521484375,0.0004233820363879204,0.001935649081133306,-0.0024574603885412216
1761508289331230700,5.095230712890625,-0.00018271896988153458,-0.000011017662473022938,0.0017416205955669284
1761508289341202400,5.105202392578125,-0.0003243992105126381,-0.0018645778764039278,0.0012124503264203668
1761508289351173600,5.115173583984375,0.00036617834120988846,0.0017285033827647567,-0.00025858625303953886
1761508289361145600,5.1251455078125,-0.00009694555774331093,0.0008086476009339094,0.00023543008137494326
1761508289371116500,5.135116455078125,-0.00005892990157008171,-0.002656274475157261,0.0013941385550424457
1761508289381087500,5.14508740234375,-0.0001494777388870716,0.0012180921621620655,0.0002966498723253608
1761508289391059700,5.155059814453125,-0.000027997884899377823,-0.0011417303467169404,0.0009963870979845524
1761508289401030700,5.16503076171875,0.000603970605880022,-0.0005635580746456981,0.0010829397942870855
1761508289411002600,5.175002685546875,-0.0008895499631762505,0.00007112359162420034,-0.0002565843751654029
1761508289420973600,5.1849736328125,0.0009421720169484615,0.00007778150029480457,-0.0006541943293996155
1761508289430945500,5.194945556640625,0.0010654916986823082,0.0008176681003533304,0.0007441459456458688
1761508289440916500,5.20491650390625,-0.00025437120348215103,-0.0010931500000879169,0.0010852968553081155
1761508289450887700,5.2148876953125,0.00041206786409020424,0.0021447893232107162,-0.000181846902705729
1761508289460859600,5.224859619140625,-0.0006039277650415897,-0.00048694631550461054,-0.00047932198503986
1761508289470830600,5.23483056640625,0.0009381002746522427,0.0004092383896932006,0.0000977005111053586
1761508289480802600,5.244802490234375,-0.00027177389711141586,0.001921647461131215,-0.0011129725025966763
1761508289490773800,5.254773681640625,0.00013337144628167152,0.00033501756843179464,0.001418416970409453
1761508289500744700,5.26474462890625,-0.0006746314465999603,0.0008362244698219001,-0.002796035259962082
1761508289510716700,5.274716552734375,-0.00246586836874485,0.001793568953871727,-0.0006998724420554936
1761508289520687600,5.2846875,-0.001153728924691677,-0.0009705258999019861,-0.0008266388904303312
1761508289530659600,5.29465966796875,-0.0022735977545380592,0.0007507195696234703,0.0007180944085121155
1761508289540630500,5.304630615234375,-0.000929766334593296,0.000020480831153690815,-0.0025754370726644993
1761508289550601500,5.3146015625,-0.001931014470756054,-0.0023316675797104836,-0.0014547408791258931
1761508289560573700,5.32457373046875,0.001348402351140976,0.002173601882532239,0.0010912410216405988
1761508289570544400,5.33454443359375,-0.00017713475972414017,0.0002445676364004612,-0.0027205157093703747
1761508289580516600,5.3445166015625,0.0016244938597083092,-0.000036395853385329247,-0.0032139995601028204
1761508289590487600,5.354487548828125,0.001479830127209425,-0.0012845414457842708,0.0016272705979645252
1761508289600458500,5.36445849609375,0.0014052614569664001,0.0009383991127833724,0.00007757707498967648
1761508289610430500,5.374430419921875,-0.00006757257506251335,0.0013795990962535143,-0.0005679500754922628
1761508289620401700,5.384401611328125,-0.0029818699695169926,-0.0005748949479311705,0.0001300644362345338
1761508289630373400,5.394373291015625,-0.0015563019551336765,0.0003919663140550256,0.0012751886388286948
1761508289640344600,5.404344482421875,0.00019765552133321762,0.002449524588882923,0.0012450950453057885
1761508289650315500,5.4143154296875,0.000011652708053588867,-0.00039945205207914114,-0.001117201056331396
1761508289660287700,5.424287841796875,-0.0018000956624746323,-0.0007280861027538776,-0.000022109132260084152
1761508289670258400,5.434258544921875,0.0020530973561108112,0.0007827930385246873,0.000985337421298027
1761508289680230700,5.444230712890625,-0.002834069076925516,0.0009801333071663976,0.00022393977269530296
1761508289690201600,5.45420166015625,0.0005824691615998745,0.0007510908180847764,-0.002598713617771864
1761508289700172500,5.464172607421875,-0.00014697061851620674,-0.000710451859049499,-0.000035687233321368694
1761508289710144500,5.47414453125,-0.001500105019658804,-0.0007377960719168186,-0.0011530924821272492
1761508289720115700,5.48411572265625,-0.000971734058111906,0.0010300101712346077,0.0012493450194597244
1761508289730087400,5.49408740234375,-0.0011814306490123272,0.0007084711687639356,0.0015517673455178738
1761508289740058600,5.50405859375,0.0013656164519488811,-0.0010766456834971905,0.0025094400625675917
1761508289750029600,5.514029541015625,-0.0003201039507985115,-0.00049412134103477,-0.002517544664442539
1761508289760001500,5.52400146484375,0.0017960439436137676,0.0006007042247802019,0.00035494088660925627
1761508289769972500,5.533972412109375,-0.000646623782813549,0.0007947920821607113,0.000650051049888134
1761508289779944700,5.54394482421875,-0.0002428889274597168,0.00047228322364389896,0.000012756558135151863
1761508289789915600,5.55391552734375,0.000036162324249744415,-0.0015498970169574022,-0.0009298152872361243
1761508289799886600,5.563886474609375,-0.0008629201911389828,-0.0003024723846465349,0.0018316165078431368
1761508289809858600,5.573858642578125,-0.00011497596278786659,0.0011831356678158045,-0.0006349865579977632
1761508289819829500,5.58382958984375,-0.0008726455271244049,-0.0011971975909546018,-0.000021926825866103172
1761508289829801500,5.593801513671875,-0.0016701254062354565,-0.0007597882067784667,0.001172882504761219
1761508289839772400,5.6037724609375,-0.0016133994795382023,-0.00022742233704775572,-0.0015581890475004911
1761508289849744600,5.61374462890625,-0.0005036150105297565,-0.0014066539006307721,0.00020652415696531534
1761508289859715600,5.623715576171875,0.001738233957439661,0.00069165084278211,0.0012065410846844316
1761508289869686500,5.6336865234375,-0.0008275755681097507,-0.0012854745145887136,0.00008402031380683184
1761508289879658500,5.643658447265625,-0.0015783212147653103,-0.0007640277035534382,0.0000928087392821908
1761508289889629700,5.653629638671875,-0.0004899450577795506,-0.0010272959480062127,-0.0003505467320792377
1761508289899601400,5.663601318359375,0.0011148755438625813,-0.001063781208358705,0.00041511200834065676
1761508289909572600,5.673572509765625,0.0025286697782576084,-0.003210874507203698,0.0011025900021195412
1761508289919543600,5.68354345703125,-0.0006689880974590778,-0.0007133618928492069,0.0007792820688337088
1761508289929515500,5.693515625,-0.0009156223386526108,-0.0006486698985099792,0.0013955881586298347
1761508289939486500,5.703486572265625,-0.0006945803761482239,-0.0022779919672757387,-0.00047155411448329687
1761508289949458700,5.713458740234375,0.00011004414409399033,0.0008687217487022281,-0.0009728341829031706
1761508289959429400,5.723429443359375,-0.002770697697997093,-0.0015861800638958812,0.0018064406467601657
1761508289969400600,5.733400634765625,0.0009112604893743992,-0.004333239048719406,-0.00026813248405233026
1761508289979372500,5.74337255859375,-0.0008192621171474457,0.000302259111776948,-0.0023339465260505676
1761508289989343700,5.75334375,0.0016065160743892193,-0.0009580452460795641,0.0013442564522847533
1761508289999315500,5.7633154296875,-0.0019679786637425423,-0.0022507435642182827,0.00043851544614881277
1761508290009286700,5.77328662109375,0.0008269520476460457,0.00018507440108805895,0.000927607761695981
1761508290019257600,5.783257568359375,0.0009049829095602036,-0.00123332510702312,-0.0017211721278727055
1761508290029229600,5.7932294921875,-0.00022262940183281898,-0.0011599687859416008,0.002462505828589201
1761508290039200500,5.803200439453125,0.00016139866784214973,0.0025804410688579082,0.0007503596134483814
1761508290049172700,5.8131728515625,0.00008524814620614052,0.0010195060167461634,0.00036590395029634237
1761508290059143400,5.823143310546875,-0.0004130289889872074,-0.0007144780829548836,0.003574746660888195
1761508290069114400,5.8331142578125,-0.0005611153319478035,-0.0008276356384158134,0.00047923449892550707
1761508290079086600,5.843086669921875,0.002225882839411497,0.0010640076361596584,0.0014816484181210399
1761508290089057800,5.853057861328125,-0.0019354717805981636,0.0009055894333869219,-0.0015398388495668769
1761508290099029500,5.863029541015625,-0.002297128550708294,-0.0032225768081843853,-0.000005858135409653187
1761508290109000700,5.873000732421875,0.0002101212739944458,0.00003624369855970144,0.0017296208534389734
1761508290118971600,5.8829716796875,0.0011379667557775974,-0.0021307705901563168,0.002859067637473345
1761508290128943600,5.892943603515625,-0.0005734073929488659,-0.0006929688388481736,0.00036834808997809887
1761508290138914000,5.9029140625,0.0006788107566535473,0.004098590463399887,-0.001083074719645083
1761508290148886300,5.91288623046875,0.0019136732444167137,-0.0016785240732133389,-0.0017842762172222137
1761508290158857200,5.922857177734375,0.0002222992479801178,-0.0018050242215394974,-0.0006974402349442244
1761508290168829200,5.9328291015625,0.0008721407502889633,-0.001995190978050232,-0.0010742245940491557
1761508290178800000,5.942800048828125,0.0008492376655340195,0.0009587873937562108,0.00002486200537532568
1761508290188771300,5.952771240234375,0.0011567412875592709,-0.0018217952456325293,0.0011472085025161505
1761508290198743000,5.962742919921875,0.0011953571811318398,0.00015187356621026993,-0.00010767288040369749
1761508290208714200,5.97271435546875,0.0012042517773807049,-0.0003643730888143182,-0.0014415611512959003
1761508290218686200,5.982686279296875,0.0027086716145277023,0.0028223656117916107,0.00039309042040258646
1761508290228657200,5.9926572265625,-0.0021063205786049366,-0.0020212840754538774,-0.0010047496762126684
1761508290238628000,6.002628173828125,0.003359551075845957,0.0005268285167403519,-0.0007557441713288426
1761508290248600300,6.012600341796875,-0.0004415917210280895,0.0008000768721103668,-0.0004531835438683629
1761508290258571300,6.0225712890625,0.001047381665557623,-0.00013362744357436895,-0.0002939265104942024
1761508290268543200,6.032543212890625,-0.0008422676473855972,-0.0012014752719551325,0.0003595376620069146
1761508290278514200,6.04251416015625,-0.00023746350780129433,0.0005434277700260282,0.0009038877906277776
1761508290288485000,6.052485107421875,0.0018487689085304737,0.0009244191460311413,-0.00021071452647447586
1761508290298457000,6.06245703125,-0.0017254594713449478,-0.0001075557665899396,0.0006345728179439902
1761508290308428000,6.072427978515625,0.0007910048589110374,0.0019094073213636875,0.0011839692015200853
1761508290318400300,6.082400146484375,-0.0010068947449326515,-0.0005260533653199673,-0.00003815535455942154
1761508290328371000,6.092370849609375,0.0009592543356120586,0.00044450053246691823,0.0011451643658801913
1761508290338342100,6.102342041015625,-0.00012065749615430832,-0.0021057426929473877,-0.0013124006800353527
1761508290348314000,6.112314208984375,0.0015113325789570808,-0.0011034029303118587,-0.001325136749073863
1761508290358285300,6.122285400390625,-0.0016932492144405842,0.0003155292943120003,-0.0019571047741919756
1761508290368257000,6.132257080078125,0.000721353106200695,-0.00004366878420114517,-0.0014131867792457342
1761508290378228200,6.142228271484375,0.0009354711510241032,0.00007217878010123968,-0.002219591988250613
1761508290388199200,6.15219921875,-0.000007425900548696518,0.001850003027357161,0.00034026347566396
1761508290398171100,6.162171142578125,0.0006080307066440582,0.0037712075281888247,0.0005109721096232533
1761508290408142000,6.17214208984375,-0.001983952708542347,0.0001249336637556553,-0.0012225228128954768
1761508290418114300,6.1821142578125,-0.0005085617303848267,0.0008447861182503402,-0.0011708574602380395
1761508290428085000,6.1920849609375,-0.0010814452543854713,-0.0006240973016247153,0.003150220960378647
1761508290438056200,6.20205615234375,0.0011646649800240993,-0.00021849782206118107,0.002541954629123211
1761508290448028200,6.212028076171875,-0.00010022101923823357,0.0016214605420827866,0.0020150262862443924
1761508290457999000,6.2219990234375,-0.0011031674221158028,0.00032103899866342545,-0.0010097920894622803
1761508290467971000,6.23197119140625,0.0005133445374667645,0.0007101782248355448,-0.0007674375083297491
1761508290477942300,6.2419423828125,-0.00044672517105937004,0.0012646483955904841,-0.0002579748397693038
1761508290487913200,6.251913330078125,-0.00010979780927300453,-0.00043420796282589436,-0.0006557365995831788
1761508290497885200,6.26188525390625,0.0011418876238167286,0.0016459871549159288,0.0002856908831745386
1761508290507856100,6.271856201171875,-0.0010840422473847866,0.00122251536231488,-0.0018254815367981791
1761508290517828400,6.281828369140625,0.0004259701818227768,-0.0014832562301307917,0.0005737602477893233
1761508290527799000,6.291799072265625,-0.00026268791407346725,0.000818912114482373,0.00018024351447820663
1761508290537770000,6.30177001953125,0.00043798983097076416,-0.0005619368748739362,0.0007557525532320142
1761508290547742200,6.3117421875,-0.0014428631402552128,-0.0005855129566043615,-0.002568849828094244
1761508290557713200,6.321713134765625,0.00017127906903624535,0.0011495364597067237,-0.0004271354991942644
1761508290567685000,6.33168505859375,0.0002626595087349415,0.002242726506665349,-0.000015636207535862923
1761508290577656000,6.341656005859375,0.0013809208758175373,0.0017202142626047134,-0.0005301589844748378
1761508290587627300,6.351627197265625,-0.0012815296649932861,0.00022303196601569653,0.0007387700024992228
1761508290597599200,6.36159912109375,0.00006602983921766281,0.000837156898342073,0.0014056253712624311
1761508290607570200,6.371570068359375,0.0006742523983120918,-0.002438273513689637,0.00018660794012248516
1761508290617542100,6.381542236328125,0.00040953420102596283,0.0013420836767181754,-0.002063496969640255
1761508290627513000,6.39151318359375,-0.0009232917800545692,-0.00037133751902729273,-0.000691016495693475
1761508290637485300,6.4014853515625,0.0005648825317621231,-0.001041655195876956,0.0009162011556327343
1761508290647456300,6.411456298828125,-0.0003370242193341255,0.0003632043953984976,-0.00045590917579829693
1761508290657427200,6.42142724609375,0.0013018851168453693,-0.00007808138616383076,-0.0006103725172579288
1761508290667399200,6.431399169921875,-0.0016834917478263378,0.0006771010812371969,0.0021675294265151024
1761508290677370000,6.4413701171875,-0.00011329213157296181,-0.0006741869729012251,0.0015174518339335918
1761508290687342000,6.451342041015625,0.0013028737157583237,-0.003779659979045391,-0.0012813190696761012
1761508290697313000,6.46131298828125,0.0002013901248574257,-0.0005511096678674221,0.002801306778565049
1761508290707284200,6.4712841796875,-0.0002872394397854805,0.0009596424642950296,0.0000829068012535572
1761508290717256200,6.481256103515625,0.00147657236084342,0.001374296611174941,0.0011212732642889023
1761508290727227100,6.49122705078125,0.0010967967100441456,-0.002296239137649536,0.0029545011930167675
1761508290737199000,6.50119921875,-0.0012481166049838066,-0.0004381517646834254,-0.0021371967159211636
1761508290747170300,6.51117041015625,0.00036838650703430176,0.0005951366038061678,-0.0017618482233956456
1761508290757141000,6.52114111328125,0.0008530816994607449,0.001146144699305296,0.00027467100881040096
1761508290767113200,6.53111328125,-0.0005833092145621777,-0.003433955367654562,0.0011072567431256175
1761508290777084200,6.541084228515625,0.0018268520943820477,0.00045958603732287884,-0.0010850575054064393
1761508290787056000,6.55105615234375,0.0012896661646664143,0.0008573111845180392,-0.001017804373987019
1761508290797027000,6.561027099609375,-0.0012994594871997833,0.0007891342393122613,0.00290769524872303
1761508290806998300,6.570998291015625,0.0011525936424732208,-0.00009046122431755066,-0.0005039701936766505
1761508290816970000,6.580969970703125,-0.0019707614555954933,-0.0008161725709214807,0.00032374029979109764
1761508290826941200,6.590941162109375,0.0009645405225455761,0.00020330026745796204,0.0024332627654075623
1761508290836913200,6.6009130859375,-0.00008128257468342781,0.0009897317504510283,0.00023722031619399786
1761508290846884400,6.61088427734375,-0.0016284617595374584,-0.0002006645081564784,-0.0019393861293792725
1761508290856855000,6.62085498046875,0.0007113912142813206,0.00040413934038951993,-0.0010679998667910695
1761508290866827300,6.6308271484375,-0.003510021138936281,-0.0012591937556862831,-0.0013222319539636374
1761508290876798200,6.640798095703125,-0.0012367465533316135,0.002397592645138502,0.0006793999345973134
1761508290886770200,6.650770263671875,-0.0008225464262068272,0.0024138796143233776,0.0006233770400285721
1761508290896741000,6.6607412109375,0.0003843987360596657,0.0017049461603164673,-0.00226375600323081
1761508290906712000,6.670712158203125,-0.000013590790331363678,0.002810985315591097,-0.0008062468841671944
1761508290916684000,6.68068408203125,0.0007097236812114716,0.00007804925553500652,-0.0006232877494767308
1761508290926655000,6.690655029296875,-0.0021022311411798,-0.0001810005633160472,0.0018728107679635286
1761508290936627200,6.700627197265625,-0.00021777860820293427,-0.0010321468580514193,0.001103157177567482
1761508290946598100,6.71059814453125,0.0011836313642561436,-0.0012847301550209522,0.0003650672733783722
1761508290956569000,6.720569091796875,-0.0009713983163237572,-0.00020375300664454699,0.0014654853148385882
1761508290966541000,6.730541015625,0.001350700855255127,-0.00022505433298647404,-0.0012873188825324178
1761508290976512300,6.74051220703125,-0.0016051409766077995,0.0009845533641055226,0.0010059289634227753
1761508290986484000,6.75048388671875,0.0015011350624263287,0.001795829739421606,0.00020990881603211164
1761508290996455200,6.760455078125,-0.002307718154042959,-0.0024050406645983458,0.002349492395296693
1761508291006426000,6.770426025390625,0.00018235156312584877,-0.000953237758949399,-0.00003811798524111509
1761508291016398000,6.780398193359375,-0.0009018215350806713,-0.0019335474353283644,-0.001787282177247107
1761508291026369000,6.790369140625,-0.0018523591570556164,0.0027015702798962593,0.0000567329116165638
1761508291036341200,6.80034130859375,-0.0001724371686577797,-0.0002710501430556178,0.00037178490310907364
1761508291046312200,6.810312255859375,-0.00014086859300732613,-0.00036236050073057413,0.0008736160816624761
1761508291056283100,6.820283203125,0.0014799311757087708,-0.0007405292708426714,0.000362022896297276
1761508291066255000,6.830255126953125,-0.0012843064032495022,0.0003464389010332525,-0.001015439280308783
1761508291076226300,6.840226318359375,-0.0008637928403913975,0.0016220931429415941,-0.0015339567326009274
1761508291086198000,6.850197998046875,0.0006884816102683544,0.0007171432953327894,-0.00008012366015464067
1761508291096169200,6.860169189453125,-0.0014532324858009815,0.0008284634095616639,-0.0014503200072795153
1761508291106141200,6.87014111328125,0.0012968741357326508,0.0014764220686629415,-0.0010292429942637682
1761508291116112100,6.880112060546875,-0.0015119616873562336,-0.000053563970141112804,-0.0014436307828873396
1761508291126083000,6.8900830078125,0.00046439748257398605,0.00016220356337726116,0.00130281294696033
1761508291136055000,6.900054931640625,-0.0004027276299893856,-0.00193610112182796,0.0004700424615293741
1761508291146026000,6.91002587890625,0.0017889440059661865,-0.0012732056202366948,-0.00207635760307312
1761508291155996700,6.91999658203125,-0.00042467517778277397,0.0008013967308215797,-0.0004148113075643778
1761508291165969000,6.929968994140625,0.00017172982916235924,-0.0015896870754659176,-0.00020046834833920002
1761508291175939800,6.93993994140625,0.0020234258845448494,-0.00016702641732990742,-0.0005757077015005052
1761508291185911800,6.949911865234375,-0.0003052731044590473,-0.0004255198873579502,-0.0031098760664463043
1761508291195882800,6.9598828125,0.0010042032226920128,0.0017082048580050468,-0.0004658896941691637
1761508291205855000,6.96985498046875,0.0012480905279517174,-0.0006351303309202194,0.0011419643415138125
1761508291215826000,6.979825927734375,0.00082784378901124,-0.0018609834369271994,-0.00030892586801201105
1761508291225796900,6.989796875,-0.00028502289205789566,-0.0009725618874654174,0.0007245419546961784
1761508291235768800,6.999768798828125,0.001950967125594616,-0.00037388340570032597,0.0010920583736151457
1761508291245740000,7.009739990234375,0.00014258502051234245,0.002590940799564123,0.00042424164712429047
1761508291255711700,7.019711669921875,-0.00009230570867657661,-0.0008450696477666497,0.0008146610343828797
1761508291265683000,7.029682861328125,0.00006151571869850159,0.0012485496699810028,0.0013573764590546489
1761508291275654000,7.03965380859375,-0.0005187871865928173,0.0008229764644056559,-0.00017527281306684017
1761508291285625900,7.0496259765625,0.001397294458001852,0.0013040336780250072,-0.0011229317169636488
1761508291295596800,7.0595966796875,-0.00203072652220726,0.0011583587620407343,0.0008483402198180556
1761508291305569000,7.069569091796875,0.0017680460587143898,-0.0005349289858713746,-0.0004277555854059756
1761508291315539700,7.079539794921875,-0.0026187123730778694,0.00027227518148720264,-0.0006924737826921046
1761508291325511000,7.089510986328125,-0.00033744238317012787,0.0006259258952923119,-0.000025592162273824215
1761508291335483000,7.09948291015625,-0.0009132181294262409,0.0003188633709214628,-0.00046208425192162395
1761508291345454000,7.1094541015625,-0.0010901642963290215,-0.000010374817065894604,-0.001375873340293765
1761508291355425800,7.11942578125,0.0019849874079227448,-0.0009536665165796876,0.00040737935341894627
1761508291365397000,7.12939697265625,0.0001504342071712017,-0.0002460902323946357,-0.0019188127480447292
1761508291375368000,7.139367919921875,0.0009832046926021576,0.00033367989817634225,0.0012428918853402138
1761508291385340000,7.14933984375,-0.0011658952571451664,0.00009243201930075884,0.00027323549147695303
1761508291395310800,7.159310791015625,0.0008748853579163551,0.0015172231942415237,0.002359289675951004
1761508291405283000,7.169282958984375,-0.0008939160034060478,-0.0023995274677872658,-0.0024783224798738956
1761508291415253800,7.179253662109375,0.002138093113899231,0.0009901442099362612,0.0002277153544127941
1761508291425224700,7.189224609375,0.0012342487461864948,0.0020967386662960052,-0.0013785063056275249
1761508291435197000,7.199197021484375,-0.0005404823459684849,-0.0011704275384545326,0.0002896977821364999
1761508291445167900,7.20916796875,-0.0010890946723520756,-0.0009178738109767437,-0.0015785451978445053
1761508291455139800,7.219139892578125,-0.0005269008688628674,-0.0021578415762633085,0.0009559852769598365
1761508291465111000,7.229111083984375,0.002408683765679598,0.0013714695814996958,0.0002668490633368492
1761508291475082000,7.23908203125,-0.0013490370474755764,0.00041965587297454476,0.00040879554580897093
1761508291485054000,7.249053955078125,0.0025848131626844406,0.0008986663306131959,-0.00008554791565984488
1761508291495025000,7.25902490234375,0.00014375988394021988,-0.0006275912746787071,-0.00048555462853983045
1761508291504997000,7.2689970703125,-0.0007459484040737152,-0.00018353748600929976,-0.00034769129706546664
1761508291514967800,7.2789677734375,-0.0003773667849600315,-0.0002511817729100585,-0.0000821741996333003
1761508291524938800,7.288938720703125,-0.0016843201592564583,0.0014423173852264881,-0.000059042940847575665
1761508291534911000,7.298910888671875,0.0018909736536443233,-0.0005904734134674072,-0.0013578665675595403
1761508291544882000,7.3088818359375,0.0014414861798286438,0.0010006673401221633,-0.0017182239098474383
1761508291554854000,7.31885400390625,-0.0011449763551354408,0.000008373521268367767,-0.002595202997326851
1761508291564824800,7.328824951171875,-0.002344023436307907,-0.001839722041040659,0.001055153552442789
1761508291574796000,7.338796142578125,-0.0004949904978275299,0.002766215242445469,-0.0019046836532652378
1761508291584767700,7.348767822265625,-0.00022161100059747696,-0.0008147063199430704,0.0003319132374599576
1761508291594739000,7.358739013671875,-0.000755042303353548,0.0017054431373253465,-0.0002222906332463026
1761508291604711000,7.3687109375,0.0013579954393208027,-0.0014348493423312902,-0.00101249641738832
1761508291614681900,7.378681884765625,0.0001361370086669922,0.000503133051097393,-0.0013083736412227154
1761508291624652800,7.38865283203125,-0.00035376381129026413,0.00007020938210189342,0.0005669215461239219
1761508291634625000,7.398625,0.0001261378638446331,-0.0018784255953505635,0.0009754505008459091
1761508291644596000,7.408595947265625,0.0009809015318751335,0.0012812274508178234,-0.0005444386042654514
1761508291654568000,7.41856787109375,0.0005872864276170731,-0.0005776589969173074,-0.0011119581758975983
1761508291664539000,7.428538818359375,-0.0010283286683261395,-0.0018939848523586988,-0.00009566580411046743
1761508291674510800,7.4385107421875,-0.0015321983955800533,-0.0013309924397617579,0.0007160656386986375
1761508291684481800,7.448481689453125,-0.0004575001075863838,-0.00045109190978109837,-0.00009925186168402433
1761508291694453000,7.458452880859375,0.001470895018428564,-0.002148590749129653,0.0014858616050332785
1761508291704425000,7.468425048828125,-0.0017738756723701954,-0.003263948019593954,0.0024010485503822565
1761508291714396000,7.47839599609375,0.001300211064517498,-0.0021478175185620785,-0.0036560450680553913
1761508291724368000,7.488367919921875,-0.0036717336624860764,-0.0004936490440741181,-0.0017527388408780098
1761508291734339000,7.498339111328125,-0.0015052519738674164,0.0008174251415766776,-0.00027628231327980757
1761508291744310000,7.50831005859375,-0.0008205757476389408,-0.00007744168397039175,0.00007007597014307976
1761508291754282000,7.518281982421875,0.00007185013964772224,0.0021963652689009905,-0.00024763913825154305
1761508291764253000,7.5282529296875,0.0023181154392659664,-0.0021838180255144835,0.003944492898881435
1761508291774225000,7.538224853515625,0.0010922625660896301,-0.0023148455657064915,-0.001336023211479187
1761508291784195800,7.54819580078125,0.0018981285393238068,0.001949048019014299,-0.0015257173217833042
1761508291794166800,7.558166748046875,0.00021714111790060997,-0.0012012053048238158,-0.0009249082067981362
1761508291804139000,7.568138916015625,-0.00007622502744197845,-0.0004276488907635212,-0.003399746725335717
1761508291814109700,7.578109619140625,0.0019405866041779518,0.000025088549591600895,0.00008553219959139824
1761508291824082000,7.58808203125,-0.0001695011742413044,0.000894107623025775,0.0013423964846879244
1761508291834052900,7.598052978515625,-0.00182625325396657,0.0005809198482893407,-0.001743674511089921
1761508291844024000,7.608024169921875,0.0005312999710440636,-0.00023183668963611126,-0.0030234442092478275
1761508291853995800,7.617995849609375,-0.0009579397737979889,0.0011578007834032178,-0.0017259520245715976
1761508291863967000,7.627967041015625,-0.0008498872630298138,0.0005542234284803271,-0.00024114083498716354
1761508291873938700,7.637938720703125,0.00009660003706812859,-0.0003789481706917286,0.002032932359725237
1761508291883910000,7.647909912109375,-0.0009791082702577114,0.00029781844932585955,-0.002042209729552269
1761508291893880800,7.657880859375,-0.0002776319161057472,0.0004514828906394541,0.000652642804197967
1761508291903853000,7.66785302734375,-0.00023447629064321518,0.0007898926269263029,0.002355617471039295
1761508291913823700,7.67782373046875,-0.0016129282303154469,0.0020679435692727566,0.0014344301307573915
1761508291923796000,7.6877958984375,-0.0005461382679641247,-0.0009447949705645442,-0.001574722584336996
1761508291933767000,7.697766845703125,-0.0010422845371067524,-0.0005274774739518762,-0.0013776487903669477
1761508291943737900,7.70773779296875,0.0007859836332499981,0.0006419590208679438,-0.00046800461132079363
1761508291953709800,7.717709716796875,-0.0027451012283563614,0.0005849673761986196,0.0010787594364956021
1761508291963681000,7.727680908203125,-0.00019264407455921173,0.0003677876084111631,-0.0021010409109294415
1761508291973652700,7.73765283203125,0.0009530480019748211,-0.0009163885843008757,0.0003546597436070442
1761508291983624000,7.7476240234375,-0.00103843305259943,-0.002402990823611617,-0.0016088816337287426
1761508291993595000,7.757594970703125,-0.0015076817944645882,-0.00016007653903216124,0.00046944920904934406
1761508292003567000,7.767567138671875,-0.001471115741878748,-0.0010105831315740943,-0.00012558558955788612
1761508292013537800,7.777537841796875,0.003141213208436966,0.0006632136064581573,-0.00254160538315773
1761508292023510000,7.787510009765625,-0.00017365766689181328,0.00023859774228185415,0.003205548971891403
1761508292033481000,7.79748095703125,0.0014372887089848518,-0.0005150769138708711,-0.0017436696216464043
1761508292043452000,7.807451904296875,0.0003649820573627949,0.0003264445695094764,0.001019290997646749
1761508292053423900,7.817423828125,0.0012435587123036385,-0.0005598554853349924,-0.0003202789230272174
1761508292063394800,7.827394775390625,0.000023141037672758102,-0.0006128518143668771,-0.0004178916569799185
1761508292073366800,7.83736669921875,-0.0014650332741439342,-0.002075459808111191,0.0010290037607774138
1761508292083337700,7.847337646484375,0.000983020756393671,0.00008315325248986483,0.001106014009565115
1761508292093309000,7.857308837890625,0.0006621098145842552,0.0012565420474857092,0.0017009642906486988
1761508292103281000,7.867281005859375,-0.00005842093378305435,-0.0008773510344326496,-0.0004941531806252897
1761508292113251800,7.877251953125,-0.001482679508626461,-0.002214524196460843,0.0009343664860352874
1761508292123223800,7.887223876953125,0.0005020326934754848,0.0010301715228706598,-0.00014371308498084545
1761508292133195000,7.897195068359375,-0.00005456805229187012,0.000569711031857878,0.0004485739627853036
1761508292143167700,7.907167724609375,-0.0001909988932311535,0.0005092421779409051,0.0005627679638564587
1761508292153138700,7.917138671875,0.0014194147661328316,-0.0007309918291866779,-0.00028944353107362986
1761508292163109600,7.927109619140625,0.0003620646893978119,0.0007079457864165306,0.00017447699792683125
1761508292173081600,7.93708154296875,0.0005679270252585411,0.0013202065601944923,0.0005731522105634212
1761508292183052500,7.947052490234375,-0.001338067464530468,0.0000710304593667388,0.0021170140244066715
1761508292193023700,7.957023681640625,0.0013285554014146328,-0.0010275235399603844,0.0005382922245189548
1761508292202995500,7.966995361328125,-0.0016158702783286572,-0.0017517288215458393,0.0022481956984847784
1761508292212966700,7.976966552734375,-0.0005703135393559933,0.0006605623639188707,-0.001918319845572114
1761508292222938600,7.986938720703125,-0.0005254214629530907,0.0022021704353392124,-0.0006390081834979355
1761508292232909600,7.99690966796875,-0.0004471242427825928,-0.0002751020947471261,0.0010952422162517905
1761508292242881500,8.006881591796875,0.00005082879215478897,0.00042346265399828553,0.000050350907258689404
1761508292252851700,8.016851806640625,-0.001598999835550785,-0.0003635013708844781,0.00010148354340344667
1761508292262822700,8.02682275390625,-0.00036606285721063614,0.0012584174983203411,0.0021599670872092247
1761508292272794600,8.036794677734376,-0.0014909817837178707,0.00018915836699306965,0.0002851018216460943
1761508292282765600,8.046765625,0.0012613576836884022,-0.0011731204576790333,-0.0025474093854427338
1761508292292737800,8.05673779296875,-0.0036673550494015217,-0.0007352966349571943,0.000810037599876523
1761508292302708700,8.066708740234375,0.00004793563857674599,-0.0024840706028044224,0.000624536070972681
1761508292312680700,8.0766806640625,-0.00021811434999108315,-0.0014667431823909283,-0.00019305432215332985
1761508292322651600,8.086651611328126,0.00022316817194223404,0.000144888530485332,-0.0006421850412152708
1761508292332622800,8.096622802734375,-0.0008258512243628502,-0.000011172727681696415,0.0010268180631101131
1761508292342594600,8.106594482421874,-0.00014220457524061203,0.0006506523350253701,0.00044799898751080036
1761508292352565800,8.116565673828125,-0.000923842191696167,0.0007939303759485483,-0.00046759581891819835
1761508292362537700,8.126537841796875,-0.0013204468414187431,0.0005123836454004049,-0.0004971959860995412
1761508292372508700,8.1365087890625,0.00181276211515069,-0.001317740767262876,-0.00353932473808527
1761508292382479600,8.146479736328125,0.0006596059538424015,0.00006590201519429684,0.00008477189112454653
1761508292392451800,8.156451904296874,0.0011802539229393005,-0.00155436503700912,-0.0012004696764051914
1761508292402422800,8.1664228515625,0.00005127955228090286,0.0028050923720002174,-0.0011781458742916584
1761508292412394800,8.176394775390625,-0.0022960309870541096,-0.0019659604877233505,-0.002327832393348217
1761508292422365700,8.18636572265625,-0.002138899639248848,-0.002249013166874647,0.0016694924561306834
1761508292432336600,8.196336669921875,-0.0009607179090380669,-0.0011693676933646202,-0.003318608272820711
1761508292442308600,8.20630859375,-0.00048412522301077843,0.00045887206215411425,-0.0002555523533374071
1761508292452279600,8.216279541015625,-0.0008644252084195614,0.0001030737766996026,-0.000576463236939162
1761508292462251800,8.226251708984375,0.0016120458021759987,-0.0012663155794143677,0.0016721806023269892
1761508292472222500,8.236222412109376,-0.002933703362941742,0.00043624319368973374,-0.00012012687511742115
1761508292482193700,8.246193603515625,0.0003391420468688011,0.001252285554073751,-0.0006126347579993308
1761508292492165600,8.25616552734375,0.0010089273564517498,0.0007606660947203636,0.00011946819722652435
1761508292502136800,8.26613671875,0.00003370968624949455,-0.0020003269892185926,-0.0009533300180919468
1761508292512108500,8.276108642578125,0.0012976457364857197,-0.0019728965125977993,-0.0019695921801030636
1761508292522079700,8.286079833984376,-0.0021983436308801174,-0.000594623270444572,-0.0018388391472399235
1761508292532050700,8.29605078125,-0.0004976489581167698,-0.00031765445601195097,-0.0017384379170835018
1761508292542022700,8.306022705078124,0.00044177891686558723,0.0006750657339580357,-0.0011428752914071083
1761508292551993600,8.31599365234375,0.00025136303156614304,0.0005299234762787819,0.00024836009833961725
1761508292561965800,8.3259658203125,0.0012230230495333672,-0.00189658859744668,0.001406487193889916
1761508292571936500,8.3359365234375,0.0007029077969491482,-0.000009739072993397713,0.0008530825143679976
1761508292581907700,8.34590771484375,0.0008439701050519943,0.0017000844236463308,-0.0036586306523531675
1761508292591879700,8.355879638671874,0.0013627540320158005,-0.0008229942759498954,-0.0015536680584773421
1761508292601850600,8.3658505859375,-0.00005147792398929596,-0.0021654812153428793,-0.0012241023359820247
1761508292611822600,8.375822509765625,-0.0010621477849781513,0.0007232496282085776,-0.0001130314776673913
1761508292621793800,8.385793701171876,0.001491287723183632,-0.0008244502823799849,0.002112283371388912
1761508292631766500,8.3957666015625,0.00031257281079888344,0.0005073965294286609,0.00012343470007181168
1761508292641737700,8.40573779296875,0.0023973635397851467,-0.0016998150385916233,-0.00005481403786689043
1761508292651708700,8.415708740234376,-0.003447475843131542,0.00028344092424958944,0.0010072547011077404
1761508292661680600,8.4256806640625,0.0005733920261263847,0.0008088693721219897,-0.000734595232643187
1761508292671651600,8.435651611328124,-0.0020444951951503754,-0.000532032223418355,-0.0036536860279738903
1761508292681623800,8.445623779296875,-0.0010330434888601303,-0.0005327484104782343,-0.0012695547193288803
1761508292691594500,8.455594482421875,0.0019385111518204212,0.0004385064821690321,0.0006617696490138769
1761508292701565700,8.465565673828126,-0.0017118430696427822,0.000025649787858128548,-0.0006741504766978323
1761508292711537700,8.47553759765625,-0.0013762847520411015,0.0014291356783360243,-0.0010155676864087582
1761508292721508900,8.4855087890625,-0.0031384630128741264,0.00022514816373586655,0.0014088039752095938
1761508292731480600,8.49548046875,0.0024991827085614204,-0.0005471684271469712,0.00023142038844525814
1761508292741451800,8.50545166015625,-0.0019156336784362793,-0.00028644956182688475,-0.00024973921244964004
1761508292751423500,8.515423583984376,0.000013560056686401367,0.00028053740970790386,-0.0008193893590942025
1761508292761394700,8.525394775390625,-0.0022279415279626846,0.0015947971260175109,0.0031741568818688393
1761508292771365600,8.53536572265625,-0.0008375048637390137,0.000785728741902858,0.0015272580785676837
1761508292781337900,8.545337890625,0.002318717073649168,-0.0016986046684905887,0.0002833202015608549
1761508292791308500,8.55530859375,0.00038366392254829407,0.00007239740807563066,0.0011682885233312845
1761508292801280800,8.56528076171875,0.0011433316394686699,-0.0005651055835187435,0.0006871357327327132
1761508292811251700,8.575251708984375,0.00045277364552021027,0.0003749903989955783,-0.0009166199015453458
1761508292821222700,8.58522265625,-0.0014712084084749222,-0.002745860256254673,-0.0005312334978953004
1761508292831194600,8.595194580078125,-0.003371107392013073,-0.0009213287848979235,0.0018991671968251467
1761508292841165600,8.60516552734375,0.0012304573319852352,-0.00023433833848685026,0.0011160895228385925
1761508292851137500,8.615137451171876,-0.001905148383229971,0.0018807442393153906,0.000874274643138051
1761508292861108500,8.6251083984375,-0.0006405767053365707,0.0008809459395706654,0.0010085065150633454
1761508292871079700,8.63507958984375,-0.0006134118884801865,-0.0007116245105862617,-0.0004173498600721359
1761508292881051600,8.6450517578125,-0.000611606054008007,-0.0004619340179488063,-0.0015202462673187256
1761508292891022600,8.655022705078125,0.00225848238915205,0.00203264900483191,0.0009663471719250083
1761508292900994600,8.66499462890625,0.0012083672918379307,-0.0011619003489613533,0.0021150377579033375
1761508292910965800,8.6749658203125,0.00036814017221331596,0.000992863206192851,0.0005815894110128284
1761508292920936700,8.684936767578124,0.0008795917965471745,-0.0001822635531425476,0.002103423699736595
1761508292930908700,8.69490869140625,0.00003563612699508667,-0.0007082377560436726,-0.0009703966206870973
1761508292940879600,8.704879638671875,0.0002577942796051502,-0.0005027340957894921,-0.0015430775238201022
1761508292950851600,8.7148515625,-0.0019494337029755116,0.0034653758630156517,-0.0009156367741525173
1761508292960822500,8.724822509765625,0.0012583620846271515,0.00028019293677061796,0.0025592755991965532
1761508292970793700,8.734793701171874,-0.0015488765202462673,-0.0007499178173020482,0.0005230227252468467
1761508292980765700,8.744765625,-0.0012733233161270618,0.00008052855264395475,-0.0025058379396796227
1761508292990736600,8.754736572265625,-0.0015007578767836094,-0.001108306460082531,0.0014934310456737876
1761508293000708600,8.76470849609375,-0.00018322095274925232,-0.0006223710952326655,-0.0004500715294852853
1761508293010679800,8.7746796875,0.0009587425738573074,-0.0006154469447210431,-0.0005427495343610644
1761508293020650800,8.784650634765624,0.00007106363773345947,-0.001145358313806355,0.00000444287434220314
1761508293030622700,8.794622802734375,-0.0004943255335092545,0.00024348008446395397,-0.0007273938390426338
1761508293040593700,8.80459375,-0.000027828849852085114,-0.0021372255869209766,-0.0007498875493183732
1761508293050565600,8.814565673828126,0.001272592693567276,-0.0008485220605507493,0.000681827892549336
1761508293060536600,8.82453662109375,-0.0000068945810198783875,-0.0006820375565439463,0.0004848515382036567
1761508293070508800,8.8345087890625,0.00003305310383439064,0.0021190750412642956,0.00020308909006416798
1761508293080479700,8.844479736328125,-0.0007106615230441093,0.0009364341967739165,0.002121132332831621
1761508293090450700,8.85445068359375,-0.002388985827565193,-0.0013006211956962943,0.004468975123018026
1761508293100422700,8.864422607421876,0.0010832110419869423,-0.0021523074246942997,-0.0002389000146649778
1761508293110393900,8.874393798828125,0.00036575552076101303,-0.0017475067870691419,0.0011099909897893667
1761508293120365600,8.884365478515624,-0.000009506475180387497,0.002506057731807232,-0.0012573407730087638
1761508293130336800,8.894336669921875,0.0018176883459091187,-0.0030458346009254456,0.001012471504509449
1761508293140307700,8.9043076171875,0.0012944494374096394,0.0015273460885509849,0.0014822939410805702
1761508293150279700,8.91427978515625,0.000886453315615654,-0.0003834720700979233,-0.0026163109578192234
1761508293160250600,8.924250732421875,-0.001306178979575634,0.0007180983666330576,-0.0011035532224923372
1761508293170222800,8.934222900390624,0.000022738706320524216,0.0002057062229141593,-0.0015083537437021732
1761508293180193500,8.944193603515625,0.0007900334894657135,0.00043894199188798666,-0.0015431562205776572
1761508293190164700,8.954164794921875,-0.000489615835249424,0.0004197672242298722,-0.0004509938298724592
1761508293200136700,8.96413671875,-0.0011805053800344467,-0.0012582815252244473,0.002110019326210022
1761508293210108000,8.97410791015625,0.0010493597947061062,0.0010256455279886723,-0.0009608715772628784
1761508293220079600,8.98407958984375,-0.0014889449812471867,-0.00033620453905314207,0.0009324389975517988
1761508293230050800,8.99405078125,-0.00013552652671933174,-0.0014531343476846814,0.0013297826517373323
1761508293240021800,9.004021728515625,-0.0020333174616098404,-0.00010938127525150776,0.0011841028463095427
1761508293249993700,9.01399365234375,-0.001351015642285347,0.0005430932505987585,-0.00009021966252475977
1761508293259964700,9.023964599609375,-0.0004194616340100765,-0.00319144525565207,0.001421020133420825
1761508293269937000,9.03393701171875,-0.0023803473450243473,0.0007787954527884722,-0.0005894001806154847
1761508293279907600,9.043907470703125,0.00009348010644316673,-0.0012754829367622733,0.0003397072432562709
1761508293289878500,9.05387841796875,-0.0013630031608045101,0.0006638309569098055,-0.00006509327795356512
1761508293299850800,9.063850830078126,0.00013341382145881653,-0.00035118614323437214,0.0004191044718027115
1761508293309821700,9.07382177734375,0.0015259808860719204,0.00043790845666080713,-0.00009888038039207458
1761508293319793700,9.083793701171874,-0.00009992904961109161,-0.0009638513438403606,-0.0011459133820608258
1761508293329764600,9.0937646484375,-0.0011140606366097927,0.0014574946835637093,-0.0009038320858962834
1761508293339735800,9.10373583984375,0.0005881469696760178,0.000039846054278314114,0.0011741771595552564
1761508293349707500,9.11370751953125,-0.0000014766119420528412,-0.0008722866186872125,-0.0005875038332305849
1761508293359678700,9.1236787109375,-0.0011026076972484589,0.00037189945578575134,0.0006161688361316919
1761508293369650700,9.133650634765624,0.0014409772120416164,0.00017668982036411762,-0.002182547003030777
1761508293379621600,9.14362158203125,-0.0012933146208524704,0.0002069617621600628,-0.00011984596494585276
1761508293389592600,9.153592529296875,-0.0015982463955879211,-0.0005887908628210425,0.0000900110462680459
1761508293399564800,9.163564697265626,-0.0007956940680742264,0.0026482874527573586,0.003295887727290392
1761508293409535700,9.17353564453125,-0.001376795582473278,0.00007487495895475149,-0.0005720872431993484
1761508293419507700,9.1835078125,0.0002480284310877323,0.0006625866517424583,-0.0005907131708227098
1761508293429478700,9.193478759765625,-0.0011035259813070297,0.0008615247788839042,-0.000009611481800675392
1761508293439449900,9.203449951171875,0.0026831445284187794,0.0007615365320816636,-0.0015458452980965376
1761508293449421600,9.213421630859376,0.0003150617703795433,-0.002174332272261381,-0.00025314692175015807
1761508293459392800,9.223392822265625,0.00016399333253502846,0.00026116555090993643,0.0013136551715433598
1761508293469364700,9.23336474609375,-0.002514348365366459,0.001146666705608368,-0.0017002441454678774
1761508293479335700,9.243335693359375,0.000053371768444776535,0.0019039419712498784,-0.0021113024558871984
1761508293489306600,9.253306640625,0.00019079120829701424,-0.0014716146979480982,0.0006088503869250417
1761508293499278800,9.26327880859375,-0.0017412714660167694,-0.0019321168074384332,0.00008125440217554569
1761508293509249800,9.273249755859375,-0.00010688928887248039,0.0017086906591430306,-0.00009105203207582235
1761508293519221800,9.2832216796875,0.0002745022065937519,0.00016363628674298525,-0.0008854472544044256
1761508293529192700,9.293192626953125,-0.0007422929629683495,-0.0015048341592773795,-0.0010955706238746643
1761508293539164700,9.30316455078125,0.0009622345678508282,0.001096128486096859,0.0010102065280079842
1761508293549135600,9.313135498046876,0.0009119007736444473,-0.002334821969270706,-0.00006437895353883505
1761508293559106600,9.3231064453125,-0.0009279302321374416,0.0003395491512492299,0.0018911513034254313
1761508293569078800,9.333078857421874,-0.001166017260402441,-0.0017710060346871614,0.001452794997021556
1761508293579049500,9.343049560546875,0.0024712150916457176,-0.0005996651016175747,-0.0008174509857781231
1761508293589021700,9.353021728515625,-0.001312870066612959,-0.0001530529698356986,0.0016411793185397983
1761508293598992600,9.36299267578125,0.0017003067769110203,0.0015923379687592387,-0.001998964697122574
1761508293608963800,9.3729638671875,-0.00037616025656461716,-0.000810099532827735,0.00457025459036231
1761508293618935600,9.382935546875,0.0007059094496071339,-0.0011928733438253403,0.00016923295333981514
1761508293628906800,9.39290673828125,0.0015629148110747337,-0.0011830194853246212,0.0043418738059699535
1761508293638878500,9.40287841796875,-0.0007654228247702122,0.002528413664549589,0.005253814626485109
1761508293648849700,9.412849609375,0.005251190159469843,0.002283935435116291,0.003158439416438341
1761508293658820600,9.422820556640625,0.0018671718426048756,0.0006936194258742034,0.002175563480705023
1761508293668792800,9.432792724609374,0.0021041929721832275,-0.00025127013213932514,0.0011236148420721292
1761508293678763500,9.442763427734375,0.0011254185810685158,0.0004941166844218969,-0.002472823252901435
1761508293688735700,9.45273583984375,-0.0015673036687076092,0.00009091407991945744,-0.004003075882792473
1761508293698706700,9.462706787109376,-0.0009153634309768677,-0.0010939417406916618,-0.00037734111538156867
1761508293708678000,9.472677978515625,0.0006580324843525887,-0.0008137773256748915,-0.0002894568024203181
