time,seconds_elapsed,z,y,x
1761468087693214200,0.065214111328125,-0.7050503033399581,0.08392397242076695,-0.2740036593472585
1761468087703168300,0.075168212890625,-0.757028327858448,0.049049277590215205,-0.3642609264427796
1761468087713123300,0.085123291015625,-0.702874128344655,0.04428023655749857,-0.38419005414117124
1761468087723077400,0.095077392578125,-0.5432680882781744,0.013604673917219041,-0.2676706569334492
1761468087733031200,0.10503125,-0.2980973959118128,-0.043540743301808835,-0.14648841901384294
1761468087742985200,0.114985107421875,0.0066296472728252405,-0.018517653465270994,-0.09465919184889644
1761468087752939300,0.124939208984375,0.24481588757932185,0.038557255800813435,-0.020336356792412698
1761468087762894000,0.13489404296875,0.35409400842189787,0.04257335957437754,0.06814385416060685
1761468087772848000,0.14484814453125,0.3001695260107517,0.06731865538284182,0.09418481580279767
1761468087782802200,0.15480224609375,0.05902209781110286,0.09342559493333101,0.09256112359110265
1761468087792756200,0.164756103515625,-0.09309913945794104,0.07530658539682626,0.08334379791263491
1761468087802711300,0.174711181640625,-0.17552081755697727,0.05523556500971317,0.012859335442632435
1761468087812665300,0.184665283203125,-0.227995101159811,0.02452010875046253,-0.13599186717979608
1761468087822619100,0.194619140625,-0.3205208246439695,-0.06236074071452021,-0.24351773752756414
1761468087832573200,0.2045732421875,-0.3117033119380474,-0.11661343216672539,-0.27822142317276444
1761468087842528000,0.214528076171875,-0.164116795489192,-0.1518457813285291,-0.2428915319206193
1761468087852482300,0.224482421875,0.06986848599612712,-0.10939020291492342,-0.15531458995025604
1761468087862436400,0.234436279296875,0.2532616443634033,-0.045448038227856154,-0.06291285817194729
1761468087872390100,0.24439013671875,0.3759130415201187,-0.03650514557659626,-0.009840791339054702
1761468087882345200,0.25434521484375,0.3885749546945095,-0.061547816896438595,0.01045961735714227
1761468087892299300,0.26429931640625,0.3256903362363577,-0.07751344779133797,-0.006828823106735944
1761468087902253000,0.274253173828125,0.22551848191320895,-0.09717194185480475,-0.04745879352837801
1761468087912207000,0.28420703125,0.13893091630637644,-0.10910437171086668,-0.07580828784126788
1761468087922161200,0.2941611328125,0.030245500659942626,-0.1121720887184143,-0.13194712183363735
1761468087932116200,0.3041162109375,-0.1231868192076683,-0.11161635453179478,-0.14162369905430822
1761468087942070300,0.3140703125,-0.1682517033368349,-0.09633666007444262,-0.12759082632027566
1761468087952024300,0.3240244140625,-0.18254384806156157,-0.06418970970734954,-0.14441354896854608
1761468087961978000,0.33397802734375,-0.18838263721764087,-0.06684826139211654,-0.08092804200779646
1761468087971933200,0.34393310546875,-0.2214122156381607,-0.0573832445628941,-0.07256506813634186
1761468087981887000,0.353886962890625,-0.21108429836928844,-0.01034735262170434,-0.06331595908012241
1761468087991841300,0.36384130859375,-0.17838439029455183,0.003989215766638517,-0.03828103267531842
1761468088001795300,0.37379541015625,-0.19298457805514335,0.007597469391673803,0.02452650195863098
1761468088011750100,0.383750244140625,-0.1945154408842325,0.055536155391484494,0.059702115964516994
1761468088021704200,0.3937041015625,-0.12687339876592157,0.04650397702157497,0.03898567381333559
1761468088031658200,0.403658203125,-0.04068739969730377,0.03290405234470963,0.011183693847991526
1761468088041612000,0.413612060546875,0.04136486056745052,0.017745353918522597,0.008418539983592927
1761468088051566000,0.423566162109375,0.04612579135894775,0.01507102014273405,0.04741261629909277
1761468088061521400,0.433521484375,0.08534896372258663,0.009598726211488247,0.08571637226287275
1761468088071475200,0.44347509765625,0.15400573584139346,0.0141059745028615,0.09658453388828783
1761468088081429200,0.45342919921875,0.23110884926617145,-0.002700198869407177,0.09704634271375834
1761468088091383300,0.46338330078125,0.2532996382862329,-0.0021007716715335844,0.043643436491303145
1761468088101338000,0.473338134765625,0.24361060344278812,-0.007722703206539154,0.018793693927675485
1761468088111292200,0.483292236328125,0.12129413732886314,-0.015840250949561596,0.022035744588822126
1761468088121246200,0.49324609375,-0.09062368925511836,-0.007677256629616022,0.0005203340796753763
1761468088131200300,0.5032001953125,-0.28061376166939733,0.049007045883685346,-0.02663589532803744
1761468088141155300,0.5131552734375,-0.3960030588686466,0.07869695848748087,-0.08509710785336792
1761468088151109000,0.523109130859375,-0.41960020755529404,0.0735002666272223,-0.10897990508098154
1761468088161063200,0.533063232421875,-0.27867081090807916,0.07624138202890754,-0.07658858803138137
1761468088171017200,0.543017333984375,-0.07527823608517646,0.039005437959730625,0.0007536313788965344
1761468088180972000,0.552971923828125,0.07725275102853775,0.02037701759636402,0.021745748666301367
1761468088190926300,0.56292626953125,0.1444014566719532,0.02296747248098254,0.03046864189133048
1761468088200880400,0.57288037109375,0.1446446177780628,0.035549744547903536,0.06127433371730148
1761468088210834200,0.582834228515625,0.16840134094059467,0.03722688397988677,0.01916921270918101
1761468088220788200,0.592788330078125,0.1678027905255556,0.030298546021431682,0.026580329215899107
1761468088230743300,0.602743408203125,0.14503566292226314,0.016247662706673143,0.01780289279203862
1761468088240697000,0.612697021484375,0.15231237592697142,0.01599675668552518,-0.019220066113583744
1761468088250651100,0.622651123046875,0.10530454103648662,0.008822627272456885,-0.043339594706520435
1761468088260605200,0.632605224609375,-0.0022504092752933503,-0.005046908126026392,-0.08886435143239796
1761468088270560300,0.642560302734375,-0.08005436444580555,-0.01172331715002656,-0.09865027077905833
1761468088280514300,0.652514404296875,-0.18095453304350376,-0.03792217276766896,-0.12123404117207974
1761468088290468000,0.662468017578125,-0.22393676567971704,-0.01889890786781907,-0.14908614388946442
1761468088300422100,0.672422119140625,-0.22105916441679,0.02062280905097723,-0.13573763669040054
1761468088310377500,0.68237744140625,-0.19914485425055026,0.061584495645016425,-0.11227880049590021
1761468088320331300,0.692331298828125,-0.15275076734423637,0.12032792264521121,-0.05787647143993526
1761468088330285300,0.702285400390625,-0.09217384130656718,0.1309597912967205,-0.022172230450063942
1761468088340239400,0.7122392578125,0.004993570503592491,0.15644962186217307,0.005447305620461702
1761468088350193200,0.722193115234375,0.0334621246188879,0.15424173655435441,-0.03266406957637519
1761468088360148200,0.732148193359375,0.08090776640474796,0.12367387207224964,-0.059426148567348715
1761468088370102300,0.742102294921875,0.13364683842360972,0.06824599936082959,-0.10074304180722683
1761468088380056000,0.75205615234375,0.22732991524934767,0.038490474174916744,-0.12827862592134623
1761468088390010400,0.76201025390625,0.3069026336580515,0.04448503841459751,-0.10782956600207835
1761468088399965200,0.771965087890625,0.37153321900069713,0.025948826379328965,-0.053839580606669185
1761468088409919200,0.781919189453125,0.39455870527923104,0.001032704048603773,-0.03148691555578261
1761468088419873300,0.791873291015625,0.38238895953595636,-0.012028145315498113,-0.01777078062072396
1761468088429827300,0.801827392578125,0.3638870881617069,-0.06463482312634587,-0.0645452451467514
1761468088439782100,0.8117822265625,0.2582897016584873,-0.11703151144832372,-0.09781955557595938
1761468088449736400,0.821736328125,0.08193769397437572,-0.1361195121474564,-0.11800503265559673
1761468088459690200,0.831690185546875,-0.0614168839931488,-0.13771861790716647,-0.1216199352171272
1761468088469644300,0.841644287109375,-0.14819032756090164,-0.10802812078148126,-0.09415913337226957
1761468088479598300,0.851598388671875,-0.1743336535990238,-0.05244198876842856,-0.052502925175428386
1761468088489553200,0.86155322265625,-0.256333891415596,-0.06599485943317412,-0.045888585069589316
1761468088499507200,0.871507080078125,-0.36968554530739783,-0.06802768043503164,-0.0719922001518309
1761468088509461200,0.881461181640625,-0.3643582128047943,-0.0826410199381411,-0.11213084339257329
1761468088519415000,0.8914150390625,-0.26130174295604225,-0.12219576234370469,-0.08395363690666854
1761468088529370400,0.901370361328125,-0.14819441921412943,-0.15660203594490885,-0.035355025693401695
1761468088539324200,0.91132421875,-0.08654606455266475,-0.12558993482664227,-0.0010023819755762815
1761468088549278200,0.9212783203125,0.01959492730796337,-0.12916121744215486,0.030604616295918822
1761468088559232300,0.931232177734375,0.07315700614750385,-0.12538783638328313,0.02035104290489107
1761468088569187000,0.94118701171875,0.05215747273862362,-0.11331687483936548,0.008977562105841934
1761468088579141000,0.95114111328125,0.03214052062630653,-0.08443374857380986,-0.005035144622996449
1761468088589095400,0.961095458984375,0.0038771336942911147,-0.057808484237641095,-0.02729582054149359
1761468088599049200,0.97104931640625,-0.0641571226119995,-0.05729600467085838,-0.03697535690423101
1761468088609003300,0.981003173828125,-0.10629998181462287,-0.02574614341408014,-0.05841382971964776
1761468088618958300,0.990958251953125,-0.09642623805403709,0.012781740161776542,-0.07131532380357385
1761468088628912000,1.000912109375,-0.04108662814795971,0.018359540294110775,-0.0518434383533895
1761468088638866200,1.0108662109375,0.013891747230291365,0.01068564466536045,-0.025097725975327192
1761468088648820200,1.0208203125,0.08022036866247653,0.04023892527744174,-0.018001337973587214
1761468088658775300,1.030775390625,0.10217968701422214,0.0374815893933177,-0.034058738805167375
1761468088668729300,1.040729248046875,0.05707447087466717,0.045619010880589485,-0.047740898405388
1761468088678683400,1.050683349609375,0.00646364305615425,0.047374330115318296,-0.10204667175170033
1761468088688637200,1.06063720703125,-0.008334697625041007,0.014083470410108566,-0.11905070578362792
1761468088698592300,1.07059228515625,0.009510755667090415,-0.009572276595979928,-0.14589856336191295
1761468088708546000,1.080546142578125,-0.010909516549110413,-0.012831424522399902,-0.1472754777383059
1761468088718500000,1.0905,-0.03278057209551334,-0.014549772747606039,-0.16786982787977903
1761468088728454400,1.100454345703125,-0.0516442625194788,-0.016419950533658266,-0.20825912141334263
1761468088738408400,1.110408447265625,-0.06106675538122654,-0.025285832425951955,-0.2039802019851282
1761468088748363300,1.12036328125,-0.07071721177995205,-0.027581542147696016,-0.20964458442237227
1761468088758317300,1.1303173828125,-0.045132688668370245,-0.03695245095267892,-0.2130384281117469
1761468088768271000,1.14027099609375,0.02313946804702282,-0.08006181709989905,-0.22711484772656113
1761468088778225200,1.15022509765625,0.08363046936690807,-0.13947203744575382,-0.2526966674244031
1761468088788180200,1.16018017578125,0.13070961592793465,-0.1897356592617929,-0.257381573837623
1761468088798134300,1.17013427734375,0.17282734068930147,-0.1975119923517108,-0.235963120896928
1761468088808088300,1.18008837890625,0.18431085773408412,-0.172608144980669,-0.19314473705291746
1761468088818042400,1.19004248046875,0.17193886741697786,-0.13900661189109087,-0.17159180754497647
1761468088827997200,1.1999970703125,0.07674304794073104,-0.11319368685111403,-0.1284032752143219
1761468088837951200,1.209951171875,-0.026250878065824507,-0.05075871185660362,-0.11701781171653419
1761468088847905300,1.2199052734375,-0.10467208835184573,-0.016084142708033322,-0.10691913662627339
1761468088857859000,1.229859130859375,-0.17430442750453948,0.03300692819729447,-0.09343122095651923
1761468088867813400,1.2398134765625,-0.20185002155601978,0.0002614274151623249,-0.10505228330846875
1761468088877768200,1.249768310546875,-0.17508184161782264,-0.009969020828604697,-0.08735285089090467
1761468088887722200,1.25972216796875,-0.141813193744421,0.02168210884556174,-0.06783588418997824
1761468088897676300,1.26967626953125,-0.10597557216584681,0.04807970190569758,-0.06684219697751105
1761468088907630000,1.279630126953125,-0.06189210028946399,0.02999897855296731,-0.053439658036269246
1761468088917585200,1.289585205078125,-0.07569383114874363,0.037965135126560925,-0.07525164033919572
1761468088927539500,1.29953955078125,-0.09638532152175902,0.053499827258288855,-0.10844141429010778
1761468088937493200,1.3094931640625,-0.12996318147480487,0.05503405108824372,-0.09421908339858054
1761468088947447300,1.319447265625,-0.14169512032270432,0.06140431677252054,-0.07908299866300075
1761468088957402000,1.329402099609375,-0.0729804805368185,0.07266089319363236,-0.06100172732099891
1761468088967356200,1.339356201171875,-0.00909223799407482,0.06926379810124635,-0.08551624658089131
1761468088977310200,1.349310302734375,0.03113631201982498,0.05268704957067966,-0.08784151119068265
1761468088987264300,1.35926416015625,0.04069207587242126,0.043096068274229765,-0.12249500101860612
1761468088997218000,1.369218017578125,0.036222236981987954,0.04850961775556206,-0.13234196637012063
1761468089007173400,1.37917333984375,0.039563364103436464,0.06927855727896094,-0.14411686757691203
1761468089017127200,1.389127197265625,0.11489596072435378,0.06065393679663539,-0.1508700316315517
1761468089027081200,1.399081298828125,0.19343232182264328,0.022522359061986207,-0.1304238943217322
1761468089037035300,1.40903515625,0.2170762322604656,-0.004648410327732563,-0.12933569722622631
1761468089046990000,1.418989990234375,0.21058687024116515,-0.009037877458333968,-0.1464618232678622
1761468089056944000,1.428944091796875,0.17245441572368145,-0.03924918358772993,-0.151277370323427
1761468089066898400,1.4388984375,0.09225099819600581,-0.028911913968622683,-0.1326852633824572
1761468089076852200,1.448852294921875,-0.004999415722489357,-0.0038517069920897483,-0.09093392424806952
1761468089086806300,1.45880615234375,-0.14887947886884212,0.0327856866620481,-0.06427811864316463
1761468089096761300,1.46876123046875,-0.2402776596277952,0.08708338629975915,-0.04180237520188093
1761468089106715100,1.478715087890625,-0.29375089114010333,0.08974544511586427,-0.022679485852457583
1761468089116669200,1.488669189453125,-0.244164730194211,0.08906608454957604,0.013226378656737505
1761468089126623200,1.498623291015625,-0.15607903498411177,0.07078866958096623,0.03831109902001917
1761468089136578300,1.508578369140625,-0.04525251565575599,0.05230711034238338,0.07765691138263792
1761468089146532400,1.518532470703125,-0.019205635729432104,0.03623889585584402,0.04783537175580859
1761468089156486400,1.528486328125,-0.014019173002243042,0.0046431496307253834,0.050555700097791846
1761468089166440200,1.538440185546875,0.03417991749942303,0.027445640808343885,0.04993369574192911
1761468089176394200,1.548394287109375,0.09216624252200126,0.006413666434586048,0.020154935810901223
1761468089186349000,1.55834912109375,0.14022738585770128,-0.023393004416674374,0.025695070813968775
1761468089196303400,1.568303466796875,0.23915070142447947,-0.01389393918737769,0.05807129989229142
1761468089206257400,1.57825732421875,0.26339374679923055,-0.002574526663124561,0.08594035374447703
1761468089216211200,1.588211181640625,0.26083529448807236,0.006142009886354207,0.10682411528658121
1761468089226166300,1.598166259765625,0.20026012201607227,0.03249313345625996,0.11942936637029052
1761468089236120300,1.608120361328125,0.10923428170084952,0.048916444990783924,0.14335359158683567
1761468089246074000,1.61807421875,-0.00078209028840065,0.07150090950354933,0.13453271788004784
1761468089256028200,1.628028076171875,-0.06572247223258018,0.10693082706406712,0.1043862936804071
1761468089265982200,1.637982177734375,-0.10727964050173759,0.12835077784210444,0.14471965577565132
1761468089275937500,1.6479375,-0.15985270830392836,0.14088541137501598,0.15129654994793235
1761468089285891600,1.6578916015625,-0.12959376364052294,0.13998963157907127,0.1332901339404285
1761468089295845600,1.667845703125,-0.05995031857192516,0.10418196674734354,0.10778649404533207
1761468089305799400,1.67779931640625,-0.010569909331202507,0.06902940482348204,0.10141305002328008
1761468089315754500,1.68775439453125,-0.017369652473926543,0.016559066743403673,0.07256108608096838
1761468089325708300,1.697708251953125,-0.08372516191303729,-0.028596856670081612,0.04387925454117358
1761468089335662300,1.707662353515625,-0.11394786621928214,-0.012749883718788622,0.03400189405139536
1761468089345616400,1.717616455078125,-0.07358429164886474,-0.0007645546317100524,0.04100461242031306
1761468089355571500,1.727571533203125,-0.005418517917394638,-0.01107610528767109,0.06039846419822424
1761468089365525500,1.737525390625,0.023375614890456198,-0.03701718675196171,0.06709215315058827
1761468089375479600,1.7474794921875,0.054153030470013616,-0.05964373684078455,0.058435055170767004
1761468089385433300,1.757433349609375,0.0414659828543663,-0.05385331687107682,0.012879428382590413
1761468089395387400,1.767387451171875,-0.018430559703707695,-0.08935469223260879,-0.05632869400866329
1761468089405342500,1.777342529296875,-0.07033727255165577,-0.08139014309421182,-0.05351948180682957
1761468089415296500,1.787296630859375,-0.041740708142519,-0.04844678165242076,-0.006189429224655032
1761468089425250600,1.79725048828125,-0.006781622964143753,-0.054917146710306404,0.055147229139134286
1761468089435204600,1.80720458984375,0.04001403048038482,-0.03903261822760105,0.07107643701378255
1761468089445159400,1.817159423828125,0.06988543713092804,-0.03979454251080751,0.06291716902088373
1761468089455113500,1.827113525390625,0.08151216203868389,-0.05579626763239503,0.06495294916480779
1761468089465067300,1.8370673828125,0.0808235952526331,-0.07624956533536315,0.026826449464075267
1761468089475021300,1.847021240234375,0.08296879058778285,-0.08727057943493127,0.01039447969906032
1761468089484975400,1.856975341796875,0.1170955165952444,-0.10618015482723712,-0.022990670693479476
1761468089494930400,1.866930419921875,0.12765665809810162,-0.12923399041742087,-0.039279944052174685
1761468089504884500,1.876884521484375,0.10125263529717922,-0.1518875746436417,-0.02889635107330978
1761468089514838500,1.886838623046875,0.08679507087767124,-0.1888391488134861,-0.06665295801572502
1761468089524792300,1.896792236328125,0.07192249591648578,-0.1992754948928952,-0.0863722423557192
1761468089534747400,1.906747314453125,0.049859132668375966,-0.2138688145212829,-0.12272358561009168
1761468089544701400,1.916701416015625,0.05632043763697147,-0.23672478945180772,-0.15731632169410587
1761468089554655500,1.926655517578125,0.1202759001970291,-0.26275427985191346,-0.1964589396348223
1761468089564609500,1.936609619140625,0.20118775825500487,-0.27985183738619085,-0.2136278088396415
1761468089574563600,1.9465634765625,0.20400398471951484,-0.31907398683652277,-0.18149737121593207
1761468089584518400,1.956518310546875,0.20735563323497772,-0.3188572753459215,-0.14271470916140824
1761468089594472400,1.966472412109375,0.21782266671359538,-0.28128143179789183,-0.09845504046790302
1761468089604426500,1.976426513671875,0.24580080696344375,-0.2424614334076643,-0.02734736806564033
1761468089614380300,1.98638037109375,0.261527952927351,-0.1765316020347178,-0.0036282004345208406
1761468089624335600,1.996335693359375,0.2513005734235048,-0.16936930918991563,0.021774901695549485
1761468089634289400,2.006289306640625,0.16321370916962621,-0.1638502535074949,0.01849865650385618
1761468089644243500,2.016243408203125,0.02038753899037838,-0.17683569954782724,-0.02306961768120527
1761468089654197500,2.026197509765625,-0.14904256047606468,-0.22089754411429166,-0.06709799836948513
1761468089664151600,2.036151611328125,-0.22766309272646904,-0.24862200186401603,-0.13841639091297983
1761468089674106400,2.0461064453125,-0.2768067706018686,-0.2784996921248734,-0.16684453995265067
1761468089684060700,2.056060791015625,-0.23771336209774016,-0.307901289306581,-0.18664616881385446
1761468089694014500,2.066014404296875,-0.15328443582952023,-0.3479381161406636,-0.1817353081576526
1761468089703968500,2.075968505859375,-0.044047816041111944,-0.41307599341832096,-0.17546550717316567
1761468089713923300,2.08592333984375,0.017578326788544655,-0.4608805316444486,-0.16548837610334158
1761468089723877400,2.09587744140625,0.011179565662145613,-0.46756811964958905,-0.044533553731441494
1761468089733831400,2.10583154296875,-0.043242929399013516,-0.45105786048397417,0.05333360384590923
1761468089743785500,2.115785400390625,-0.11258125404119491,-0.4425243523512035,0.11651936067510396
1761468089753739300,2.1257392578125,-0.14504384622871874,-0.44678785501457746,0.19109628009051083
1761468089763694600,2.135694580078125,-0.1665606815099716,-0.4559712053582072,0.24054036568459122
1761468089773648400,2.1456484375,-0.18133797940313814,-0.5204411202464252,0.2519427437845617
1761468089783602400,2.1556025390625,-0.17382979573011398,-0.586597015460208,0.20123751568086445
1761468089793556500,2.165556396484375,-0.14242927981615067,-0.6526733426317572,0.12616444677896796
1761468089803511300,2.17551123046875,-0.0621007746040821,-0.7310480103623122,0.09197240045033395
1761468089813465300,2.18546533203125,-0.002949497455358505,-0.7906692431103438,0.08358728781230747
1761468089823419600,2.195419677734375,-0.014128478595614433,-0.8172705420490354,0.04986724290959537
1761468089833373400,2.20537353515625,-0.0515963317245245,-0.7896013216178864,0.042795039501041174
1761468089843328500,2.21532861328125,-0.07164134088754653,-0.7677400568131357,0.038484628956019874
1761468089853282600,2.225282470703125,-0.11023439865410327,-0.7362920484956353,0.005857566921785473
1761468089863236400,2.235236328125,-0.11158055256605148,-0.6711617700025438,0.01762866873629391
1761468089873190400,2.2451904296875,-0.057365562775731085,-0.6264609699454158,0.018625936145335434
1761468089883144400,2.25514453125,0.03351356254518032,-0.5722227454099804,-0.03182655930630863
1761468089893099500,2.265099609375,0.061200610893964766,-0.5279271651528775,-0.09427176343388854
1761468089903053600,2.275053466796875,0.11105565190911293,-0.5133597106181085,-0.15253215615749358
1761468089913007600,2.285007568359375,0.09398059846758842,-0.49266653974466024,-0.20369301907420156
1761468089922961400,2.29496142578125,0.05156827467381954,-0.47000849853903054,-0.28909020585268735
1761468089932916500,2.30491650390625,0.04536649742424488,-0.39151093508116896,-0.27676519648246467
1761468089942870300,2.314870361328125,0.0740782126456499,-0.33777576469704507,-0.23014416895247994
1761468089952824300,2.32482421875,0.14258534716069698,-0.2735600437656045,-0.18870032486468552
1761468089962778600,2.334778564453125,0.25162673663794993,-0.26441929045468565,-0.18008702949397265
1761468089972732400,2.344732421875,0.42729251562356946,-0.3076594433747232,-0.1621570397235453
1761468089982687500,2.3546875,0.5849252097904681,-0.3370787223435938,-0.1779242985021323
1761468089992641500,2.3646416015625,0.7431903566420078,-0.3931678354427218,-0.15552856149449942
1761468090002595300,2.37459521484375,0.7983353207588195,-0.4107373944029212,-0.10371464149653911
1761468090012549400,2.38454931640625,0.7617898431718348,-0.4335238112285733,-0.061477455073967575
1761468090022503400,2.39450341796875,0.6236036077529191,-0.419015539535135,-0.0740275784369558
1761468090032458500,2.40445849609375,0.48348143583536146,-0.42038025201708074,-0.09406783835962414
1761468090042412500,2.41441259765625,0.4335071523547172,-0.44188685816526413,-0.13185944355018436
1761468090052366600,2.42436669921875,0.4488917684912681,-0.48427214782163497,-0.1622419415280223
1761468090062320400,2.4343203125,0.4834481180876493,-0.5431254649370908,-0.19403912860937417
1761468090072275500,2.444275390625,0.4747656299382448,-0.5762525123827159,-0.1845226738538593
1761468090082229200,2.454229248046875,0.4050292458891868,-0.6092547644048929,-0.12091492875292896
1761468090092183300,2.464183349609375,0.2570329795956611,-0.6019733021598309,-0.08361264144927263
1761468090102137600,2.4741376953125,0.1333428870409727,-0.5961971299111842,-0.05201799120269716
1761468090112091600,2.484091552734375,0.01962590696811676,-0.6368390830315649,-0.04967230485938489
1761468090122046500,2.49404638671875,-0.03383504958450794,-0.6722570178933441,-0.04470562236271798
1761468090132000500,2.50400048828125,-0.019269348615407942,-0.7147131808288395,-0.035350349518284196
1761468090141954300,2.513954345703125,-0.010826514440774917,-0.7591415936853736,0.007797668138891458
1761468090151908400,2.523908447265625,-0.032899814561009405,-0.7844147858254611,0.024202567233890294
1761468090161863700,2.53386376953125,-0.09425649279952049,-0.8055886528879403,0.013048647469654678
1761468090171817500,2.5438173828125,-0.16854513332545756,-0.8039929811943322,-0.01013261389248073
1761468090181771500,2.553771484375,-0.23529168790876864,-0.8347606060322373,-0.08302402790635824
1761468090191725600,2.5637255859375,-0.265636557289958,-0.8732485229238868,-0.16563896355517208
1761468090201679400,2.573679443359375,-0.2895265514433384,-0.9072242961533367,-0.22321502727642653
1761468090211634400,2.583634521484375,-0.378739789378643,-0.9276647343747317,-0.230711520511657
1761468090221588500,2.59358837890625,-0.3670949442923069,-0.8504584528364241,-0.22917729668170211
1761468090231542300,2.603542236328125,-0.3647048342853784,-0.8179411347869783,-0.12837189369536936
1761468090241496600,2.61349658203125,-0.3108352969318628,-0.7543149041812867,-0.04300590577274561
1761468090251451400,2.623451416015625,-0.2819587465375662,-0.7239443889021873,0.019656813563033938
1761468090261405400,2.633405517578125,-0.2616197228640318,-0.7338262429039925,0.0729885907780379
1761468090271359500,2.643359375,-0.20752689814865588,-0.8096915581621229,0.12924352543074638
1761468090281313300,2.653313232421875,-0.11440379329323767,-0.8935638734608888,0.17589129483718424
1761468090291268000,2.66326806640625,0.04458265357017517,-1.0332714732281862,0.1622163686953485
1761468090301222100,2.67322216796875,0.12212883458733557,-1.1754793653786182,0.13244115242827684
1761468090311176000,2.683176025390625,0.01070610293149948,-1.1978984101966024,0.07164506721459328
1761468090321130000,2.6931298828125,-0.36871173183918,-1.154997279972583,-0.06382189930826425
1761468090331084000,2.703083984375,-0.8194605263739824,-0.975816405538097,-0.24171382991075516
1761468090341039000,2.7130390625,-1.3789105186462403,-0.8139208662949502,-0.38638679700046774
1761468090350993200,2.7229931640625,-1.8764894534170626,-0.5711293241500854,-0.5013152717549354
1761468090360947200,2.732947265625,-2.2629057687729595,-0.4038556720651686,-0.5160965151708573
1761468090370901000,2.74290087890625,-2.5531425143122672,-0.11520093502029775,-0.653144248079136
1761468090380855000,2.75285498046875,-2.5944027454614638,0.08808043451309204,-0.6226381237216293
1761468090390810000,2.76281005859375,-2.2443039441555737,0.24089213826432823,-0.4676291291218251
1761468090400764200,2.77276416015625,-1.6116981147795915,0.41203883239030836,-0.2846156177219003
1761468090410718200,2.78271826171875,-0.9326543593555688,0.4573584219329059,-0.14300854100883006
1761468090420672300,2.79267236328125,-0.2678916427403688,0.42247912399247284,-0.08803170000053942
1761468090430627000,2.802626953125,0.33463469019234177,0.2866191395640373,-0.022313611682131886
1761468090440581000,2.8125810546875,0.8267378239005804,0.1631574489377439,-0.007195793255604803
1761468090450535200,2.82253515625,1.212681261047721,0.08857873942404985,-0.08965312718991189
1761468090460489000,2.832489013671875,1.4484803139567375,0.02930938885360956,-0.1649944185739383
1761468090470444300,2.8424443359375,1.5804495745569467,-0.025496260306239128,-0.27035047060195355
1761468090480398000,2.852398193359375,1.6087100388795137,-0.05124079628512263,-0.3201807059694081
1761468090490352000,2.86235205078125,1.5652426530748604,-0.009507686927169561,-0.44748555495515463
1761468090500306200,2.87230615234375,1.4952894114047288,0.06427665733844042,-0.5097238383337855
1761468090510260200,2.88226025390625,1.3915923055648802,0.19051190433129667,-0.4872656670818105
1761468090520215000,2.892215087890625,1.304536537924409,0.30325930871963497,-0.4467885126017034
1761468090530169000,2.902169189453125,1.22200789231956,0.40007060056850313,-0.3732716236332431
1761468090540123100,2.912123046875,1.102304239052534,0.5008128021255135,-0.3210811984730884
1761468090550077200,2.9220771484375,0.8920634057700634,0.5709447613634169,-0.23838179941121487
1761468090560031200,2.93203125,0.6533522648066282,0.6352956529818475,-0.11366086597144603
1761468090569986000,2.941986083984375,0.48366906736195087,0.7094853631779551,0.003987352603115141
1761468090579940000,2.951940185546875,0.40724166124165057,0.7183006839267909,0.06024152007084339
1761468090589894100,2.96189404296875,0.3426514079093933,0.7083984447240829,0.12761720287054776
1761468090599848000,2.971847900390625,0.2816360904544592,0.697877927492559,0.18760946088805794
1761468090609803300,2.98180322265625,0.17926351121664047,0.6961883669704199,0.23545045866705475
1761468090619757000,2.991757080078125,0.00900339066684246,0.7031614208534359,0.2546146664075553
1761468090629711000,3.001711181640625,-0.15513912378549574,0.7121538517348468,0.24838497823774813
1761468090639665200,3.0116650390625,-0.30212767434120175,0.7148311081200838,0.22523959190659223
1761468090649619200,3.021619140625,-0.43375323607027527,0.6982881157286465,0.17557247467897832
1761468090659574000,3.031573974609375,-0.5115092604458332,0.6417313851177692,0.1459285201087594
1761468090669528000,3.041528076171875,-0.5181336470216512,0.5936889464825391,0.08943089927397668
1761468090679482000,3.051482177734375,-0.4776531680732965,0.5401134236395359,0.07374423145093023
1761468090689436200,3.061436279296875,-0.380578695243597,0.48406259672418234,0.06212737035006284
1761468090699391200,3.07139111328125,-0.28167642246484753,0.42140433436781166,0.057043637344986194
1761468090709345000,3.081344970703125,-0.21271686800718306,0.37308819335773585,0.060108577873557806
1761468090719299000,3.091299072265625,-0.23046002996861933,0.3641441316626966,0.04689546055719256
1761468090729253000,3.101253173828125,-0.2947293807834387,0.36778263429552316,0.022019085714966056
1761468090739207000,3.11120703125,-0.38155309323370457,0.4087438824981451,0.009121683284267783
1761468090749162200,3.121162353515625,-0.4725777645051479,0.48612771256044507,0.0015012714084237813
1761468090759116300,3.1311162109375,-0.5315776504844427,0.6116805302470922,0.06796645176708697
1761468090769070000,3.141070068359375,-0.6563613834947347,0.7041052775748073,0.08839176548458635
1761468090779024100,3.151024169921875,-0.752794635811448,0.8311950955703854,0.061062079206109045
1761468090788979000,3.16097900390625,-0.878242385688424,0.8832233889713883,0.06661679072380065
1761468090798933000,3.17093310546875,-0.8873936603933572,0.9575266425445675,0.02608443545773625
1761468090808887000,3.180886962890625,-0.813258164602518,0.9727630823820829,0.013479147841408847
1761468090818841300,3.19084130859375,-0.6691647509664297,0.9278558730326593,0.0013161971651017665
1761468090828795100,3.200795166015625,-0.49408933908939356,0.8669229731641709,-0.07162994271069764
1761468090838750200,3.210750244140625,-0.30065058752596374,0.7877360392026602,-0.11418211336657404
1761468090848704000,3.2207041015625,-0.18624328710138796,0.7346116211280226,-0.15439020511433482
1761468090858658000,3.230657958984375,-0.09032909022271633,0.7049176168709993,-0.18952479299008845
1761468090868612000,3.240612060546875,0.027601123631000517,0.6941115606963634,-0.2118354089975357
1761468090878567200,3.250567138671875,0.17213526677191257,0.6804846018821,-0.17371303748264907
1761468090888521200,3.260521240234375,0.3751017251372337,0.6476055378481745,-0.09459259288609027
1761468090898475300,3.270475341796875,0.5522071815371513,0.5983395487673581,-0.05546593969948589
1761468090908429000,3.280428955078125,0.7683990321785211,0.53481853210181,0.00006155746150761842
1761468090918383000,3.290383056640625,0.9230863205432891,0.4336908383585512,0.018305983475968242
1761468090928338200,3.300338134765625,1.0101496869683264,0.2928118567243218,-0.00813245305120945
1761468090938292000,3.3102919921875,1.054520743614435,0.17434592855870723,-0.026351708091795444
1761468090948246300,3.320246337890625,1.0257003073215485,0.08620455763861537,-0.019966537099331615
1761468090958200300,3.330200439453125,0.9627899699002503,0.013550678707659244,0.020268844514153898
1761468090968155100,3.340155029296875,0.899527750301361,-0.045549891167134045,0.033638029175065455
1761468090978109200,3.350109130859375,0.7764011368483305,-0.07686638205945491,0.015262597192078828
1761468090988063000,3.36006298828125,0.6137263568609953,-0.09955459920763969,0.03621829145923257
1761468090998017000,3.37001708984375,0.45962242134213444,-0.1208260814256966,0.03232490074988455
1761468091007971000,3.37997119140625,0.36486440876126286,-0.18426117337346076,0.009170344731584191
1761468091017926100,3.389926025390625,0.29408523766100403,-0.2589857210986316,0.0003895107742398977
1761468091027880200,3.399880126953125,0.21660861474871634,-0.3008215601786971,-0.0027650077339261767
1761468091037834200,3.409834228515625,0.13285598030686377,-0.3417378001958132,0.021976123356074094
1761468091047788000,3.4197880859375,0.030370588344335554,-0.38836861846745013,0.028937340670824048
1761468091057743000,3.4297431640625,-0.04819909050166606,-0.4154287670895457,0.03501432249695063
1761468091067697200,3.439697265625,-0.06748363668620586,-0.43396490605957805,0.03291771554388106
1761468091077651000,3.44965087890625,-0.05675649096667766,-0.47438130679577584,0.030246158247068524
1761468091087605200,3.459605224609375,-0.08143383610546588,-0.528140807903558,0.01358319273777306
1761468091097559300,3.469559326171875,-0.14334990179240703,-0.5364612578075378,0.0334810485150665
1761468091107514000,3.47951416015625,-0.22584639869332312,-0.5342435086928308,0.04463876767158508
1761468091117468200,3.48946826171875,-0.30277649363875386,-0.49495742716081437,0.055620326543599365
1761468091127422200,3.499422119140625,-0.41290100217759607,-0.4560401789411902,0.046274698310345405
1761468091137376000,3.5093759765625,-0.4744517416834831,-0.42253925668187436,0.04459785113930702
1761468091147331300,3.519331298828125,-0.483370376676321,-0.3823792418595403,0.04063866518475115
1761468091157285000,3.52928515625,-0.450911876142025,-0.3539517504069954,-0.0010845803663134574
1761468091167239200,3.5392392578125,-0.4197358166337013,-0.3556652763266116,-0.03496843752861023
1761468091177193200,3.549193115234375,-0.39496845512390133,-0.36147125919163225,-0.08270107956230639
1761468091187147300,3.559147216796875,-0.31836803052425383,-0.3418703405342996,-0.08330679037049413
1761468091197102000,3.56910205078125,-0.2164484557509422,-0.31858824914619327,-0.0896646349646151
1761468091207056100,3.57905615234375,-0.1140372980684042,-0.3153947138018906,-0.05813815458342433
1761468091217010000,3.589010009765625,-0.012948328900337218,-0.30790640387311574,-0.019080182718858123
1761468091226964200,3.598964111328125,0.16284370681345461,-0.3075167469684034,0.028173882017657158
1761468091236919000,3.6089189453125,0.31888591691851614,-0.33130101572498677,0.061712067547440526
1761468091246873000,3.618873046875,0.44079146414399145,-0.36824630628451704,0.0847695563994348
1761468091256827100,3.6288271484375,0.5819704516381025,-0.39350693120397623,0.12646700992211699
1761468091266781200,3.63878125,0.6198351951301098,-0.40884098619706927,0.1198950841858983
1761468091276735000,3.64873486328125,0.5378425560981035,-0.4384524998024106,0.08204868006817996
1761468091286690000,3.65868994140625,0.4245581222236156,-0.4280028558500111,0.023753362161666153
1761468091296644000,3.66864404296875,0.37076457271575924,-0.4489692907068878,-0.029479338593035934
1761468091306598100,3.67859814453125,0.3351128290981054,-0.48978944993838663,-0.04678915063850581
1761468091316552200,3.68855224609375,0.34926293500363825,-0.5246817534908652,-0.07126213231161237
1761468091326507000,3.698507080078125,0.3507370992094278,-0.57427500176467,-0.09188128810077906
1761468091336461000,3.7084609375,0.3392746249526739,-0.5960533375263214,-0.060630775116756554
1761468091346415000,3.7184150390625,0.29042554610967636,-0.6294858707245439,-0.04617847139425575
1761468091356369000,3.728368896484375,0.16596797631382942,-0.6702978466495871,-0.03146934336647391
1761468091366323000,3.738322998046875,0.026724925318360328,-0.6856291982289403,-0.00576134000569582
1761468091376278300,3.7482783203125,-0.18170739723742008,-0.7172635959640145,0.04167684912607073
1761468091386232000,3.758232177734375,-0.3752028474241495,-0.7421719003144651,0.08437624623291194
1761468091396186000,3.76818603515625,-0.5006050045937299,-0.7153961946569383,0.07520297889187931
1761468091406140200,3.77814013671875,-0.5877449433863162,-0.7320240888528525,0.06355550345703959
1761468091416094000,3.788093994140625,-0.6914636765360832,-0.7357002200823277,0.01901069767922163
1761468091426049000,3.798049072265625,-0.8389502397418022,-0.7598819637238979,-0.06629647272825241
1761468091436003000,3.808003173828125,-0.9576116904795169,-0.7108647617723792,-0.10380151606239378
1761468091445957000,3.81795703125,-1.0833365037322045,-0.6661273560319095,-0.11786628177203237
1761468091455911200,3.8279111328125,-1.2154068866193293,-0.6080811905808746,-0.1051215126197785
1761468091465866000,3.837865966796875,-1.3547767788648604,-0.4937472476534545,-0.09061799016669392
1761468091475820000,3.847820068359375,-1.4819699111044407,-0.3860259277988225,-0.04806823066361248
1761468091485774000,3.857774169921875,-1.523549291205406,-0.24982085625976322,-0.016769933015108106
1761468091495728000,3.86772802734375,-1.4502800568550824,-0.14897913985103367,0.037563349392637606
1761468091505683200,3.87768310546875,-1.2285557065278292,-0.051676192027702926,0.1351358348723501
1761468091515637200,3.88763720703125,-0.9202823690384626,0.00104220252931118,0.176454737406224
1761468091525591000,3.897591064453125,-0.6145715755134821,0.02807275973074138,0.19330869544297455
1761468091535545000,3.907545166015625,-0.37785423871576784,0.0014091361455619335,0.17070070392414927
1761468091545499100,3.9174990234375,-0.16092004527449608,0.025515914854779838,0.12760353967137633
1761468091555454000,3.927453857421875,0.02053425398468971,0.03933116278275847,0.08830240670070051
1761468091565408000,3.937407958984375,0.10985095229446887,0.05508073977418244,0.08163228128701448
1761468091575362000,3.947362060546875,0.14577917476594449,0.11660839066542684,0.08858122364208101
1761468091585316000,3.957316162109375,0.19129297170639037,0.18388510660268365,0.047640506770834326
1761468091595270100,3.967270263671875,0.18407821802198887,0.2392945668745786,0.03557407527156174
1761468091605225000,3.977224853515625,0.1348942081362009,0.3165612733632326,0.022737097791209814
1761468091615179000,3.987178955078125,0.09338146353065967,0.40707478024214505,0.017633417976647615
1761468091628243000,4.000242919921875,0.050097033077478405,0.49015462998896836,0.02596994223259389
1761468091638197200,4.010197265625,0.09546177693605422,0.5239098923355341,0.029403423812612888
1761468091648152000,4.020152099609375,0.17728198201060294,0.5310314147785306,0.038007732159271834
1761468091658106000,4.030106201171875,0.30866379811167716,0.5092749255225062,0.04849522390402853
1761468091668060200,4.04006005859375,0.4765501752674579,0.48991366083994503,0.06675035397559403
1761468091678014000,4.050013916015625,0.598273351663351,0.484674883403629,0.02624130651988089
1761468091687968000,4.059968017578125,0.6902262436956167,0.4960846045598387,0.009039338763058185
1761468091697923000,4.069923095703125,0.6929869405806064,0.5112073548898101,0.012796134013310074
1761468091707877000,4.079877197265625,0.595973842549324,0.5953301378183067,-0.016078662815317512
1761468091717831200,4.0898310546875,0.44745676725208755,0.668070379858464,-0.045728316473960876
1761468091727785200,4.09978515625,0.3270610400676727,0.7083141274414956,-0.1181587619125843
1761468091737740000,4.109739990234375,0.1543435894936323,0.7602610261693596,-0.18251476809754966
1761468091747694000,4.119694091796875,0.06772329066097736,0.7947833273656666,-0.2476739073589444
1761468091757648000,4.12964794921875,0.0824397982776165,0.8493263800665736,-0.2802756157562136
1761468091767602000,4.139601806640625,0.16540157460272312,0.8768995927773415,-0.2574231479570269
1761468091777556200,4.14955615234375,0.2381038227200508,0.9011819472491741,-0.24013277126438914
1761468091787511000,4.159510986328125,0.22666356029510495,0.9272982391498983,-0.22628069845736026
1761468091797465000,4.169465087890625,0.14146248061060904,0.9561334346204996,-0.2611077547539025
1761468091807419100,4.179419189453125,0.02636485983431339,0.9810799520894884,-0.2895139111574739
1761468091817373000,4.189373046875,-0.0777601160287857,1.0271946375325323,-0.3250157979756593
1761468091827328000,4.199327880859375,-0.12419044329226016,1.054305493428558,-0.34454292074441906
1761468091837282300,4.2092822265625,-0.15459902555942534,1.0906712305344641,-0.35344643123336134
1761468091847236000,4.219236083984375,-0.14127835621535778,1.1170946886882185,-0.3456603804670274
1761468091857190100,4.229190185546875,-0.11188391942679882,1.166891277514398,-0.32952998746447265
1761468091867144200,4.239144287109375,-0.08727671691477298,1.1838915121540428,-0.3302723302643746
1761468091877099000,4.24909912109375,-0.12418985877037048,1.180482434362918,-0.339534591063112
1761468091887053000,4.259052978515625,-0.19633622657060623,1.138941632706672,-0.4118941632226109
1761468091897007000,4.269007080078125,-0.20055705913603306,1.0531921253591776,-0.48083362474031743
1761468091906961000,4.2789609375,-0.08021276987791061,0.903053732470423,-0.5490291360229254
1761468091916916200,4.288916259765625,0.09804887081980705,0.7343633454553783,-0.5646442729797214
1761468091926870000,4.2988701171875,0.26359891398251056,0.5647483909413218,-0.5844573000177741
1761468091936824000,4.308823974609375,0.3764531397461891,0.4585531846754253,-0.57960664511621
1761468091947401000,4.31940087890625,0.4185457300662994,0.36319545263573527,-0.5574890674628317
1761468091957356000,4.32935595703125,0.42105099088549613,0.3371542717978358,-0.5286947154592723
1761468091967310000,4.33931005859375,0.3010404636263847,0.3086445088893175,-0.4998694568607956
1761468091977264000,4.34926416015625,0.135503864467144,0.3038486529149115,-0.49083442894667384
1761468091987218200,4.35921826171875,0.0013549217402935027,0.2784640362896025,-0.5170312387377023
1761468091997172200,4.369172119140625,-0.05183423213362694,0.20029314750283955,-0.5165953315384686
1761468092007127000,4.379126953125,-0.00841477712392807,0.08288900334984063,-0.5231055171500891
1761468092017081000,4.3890810546875,0.07795300825238227,-0.10411942290514707,-0.5769521120194345
1761468092027035000,4.399034912109375,0.1691717407912016,-0.3312764658056199,-0.6215946790833026
1761468092036989000,4.408989013671875,0.24824001680910585,-0.4826566754490137,-0.649090077317506
1761468092046944300,4.4189443359375,0.25972236481010913,-0.5771770798817276,-0.5832560344692319
1761468092056898000,4.42889794921875,0.22682021216154097,-0.6395885278701782,-0.506029221599549
1761468092066852000,4.43885205078125,0.18580957185924052,-0.6634365825779736,-0.42812626303397117
1761468092076806100,4.44880615234375,0.178124862575531,-0.7013648928254842,-0.3306188786797225
1761468092086760000,4.458760009765625,0.14824293453097342,-0.7024599945858121,-0.237089823371917
1761468092096715000,4.468715087890625,0.08036299200356006,-0.6826866419710218,-0.1770393323611468
1761468092106669300,4.47866943359375,-0.03585340366959572,-0.7083289596844464,-0.13702274459749458
1761468092116623000,4.488623046875,-0.062031801021099085,-0.7375600956700742,-0.09338109820447861
1761468092126577200,4.4985771484375,-0.02206277872622013,-0.8109040757570415,-0.06907244024761021
1761468092136532000,4.508531982421875,-0.06847849294245242,-0.828721471998468,-0.1189958703238517
1761468092146486000,4.518486083984375,-0.046481180667877195,-0.8295559500612318,-0.10930347447954118
1761468092156440000,4.528440185546875,-0.020033903247117995,-0.8924221560798585,-0.051481765434145926
1761468092166394000,4.53839404296875,-0.020887305206060407,-0.9081216833844781,-0.05735723333880305
1761468092176348000,4.548347900390625,-0.02395370703935623,-0.9098520143084228,-0.06449044621959328
1761468092186303200,4.55830322265625,-0.04634849419891834,-0.8956636952843516,-0.041620004372298715
1761468092196257000,4.568257080078125,-0.0908440540075302,-0.8768663480948656,-0.037968130801245566
1761468092206211000,4.578211181640625,-0.06751286278069019,-0.8512582249119878,-0.030484058656170963
1761468092216165000,4.5881650390625,-0.06684475426077842,-0.8306996402036398,0.024631167909502982
1761468092226120000,4.598119873046875,-0.12450666963458061,-0.7596930170230567,0.08877126632146537
1761468092236074000,4.608073974609375,-0.21645547001361845,-0.6814555658061057,0.1187527822829783
1761468092246028300,4.6180283203125,-0.35214170531034467,-0.5873894810121506,0.15304609702900052
1761468092255982000,4.627982177734375,-0.45100949129760265,-0.4942492788914591,0.1898087244980037
1761468092265936100,4.63793603515625,-0.4648205745071172,-0.424740566118434,0.20130378585010766
1761468092275891500,4.647891357421875,-0.40055005464851856,-0.4000851405505091,0.20167477458696811
1761468092285845500,4.657845458984375,-0.24021277769804,-0.3781785752993077,0.19253851478807626
1761468092295799600,4.667799560546875,-0.15433073001205921,-0.3985070045135915,0.15232015737462787
1761468092305753300,4.67775341796875,-0.16491642143428326,-0.4008342053521424,0.12076456049680709
1761468092315708700,4.687708740234375,-0.26111001977622506,-0.40045718873329456,0.09256930689755827
1761468092325662700,4.697662841796875,-0.3234942874968052,-0.38412645085304975,0.07519117885623126
1761468092335616500,4.707616455078125,-0.2927870145440101,-0.40298458831906314,0.025951237532123923
1761468092345570600,4.717570556640625,-0.18090075702965258,-0.48395804037116463,0.010184124884009362
1761468092355524600,4.727524658203125,0.03914718451797962,-0.5675098184786737,-0.013750365998223423
1761468092365479400,4.7374794921875,0.2702648016124964,-0.6275393397666513,-0.055988210007920855
1761468092375433700,4.747433837890625,0.4186076893866062,-0.693164927496016,-0.10819291942175477
1761468092385387800,4.7573876953125,0.3964724299460649,-0.7364338681191206,-0.17791596906520427
1761468092395341600,4.767341552734375,0.1945470050662756,-0.733367904677242,-0.28199378131832925
1761468092405296600,4.777296630859375,-0.09210545224547385,-0.6729051065385341,-0.4125391100626439
1761468092415250400,4.78725048828125,-0.36174890708923335,-0.5684523600257932,-0.5046390093501657
1761468092425204500,4.79720458984375,-0.5802396823227405,-0.502694524218887,-0.5497565735146402
1761468092435158500,4.807158447265625,-0.7465279766321182,-0.33814211379140613,-0.5869565694876014
1761468092445113600,4.817113525390625,-0.8903104246228932,-0.12146496385112404,-0.578826162263006
1761468092455067600,4.827067626953125,-0.950511503085494,0.038163434177637096,-0.5306796787314116
1761468092465021700,4.837021728515625,-1.0219663814902304,0.12917509983703493,-0.38661625837478786
1761468092474975500,4.8469755859375,-0.9328764776736498,0.36141017665416,-0.31926958247385917
1761468092484929500,4.856929443359375,-0.7167378185242415,0.49283890063688157,-0.1943609079096466
1761468092494884600,4.866884521484375,-0.3750578859955072,0.5094640183538198,-0.05455317223612219
1761468092504838400,4.87683837890625,0.028268647629022595,0.540450692769885,0.02788914679214358
1761468092514792700,4.886792724609375,0.3684492815107107,0.49043081658184523,0.028905191966891286
1761468092524746800,4.896746826171875,0.619687311092019,0.4590091117493808,0.037040531094931065
1761468092534701600,4.90670166015625,0.7704980502843857,0.4155164453729987,0.03684741967562586
1761468092544655600,4.916655517578125,0.7459756034463644,0.4284799718424678,-0.011014036369509995
1761468092554609700,4.926609619140625,0.5916887125760316,0.47926221070513125,-0.09707348644901066
1761468092564563500,4.9365634765625,0.3758697869002819,0.5168541286051272,-0.16647979829348622
1761468092574517500,4.946517578125,0.13789455899596215,0.5595319714672863,-0.2449074017876759
1761468092584472600,4.95647265625,-0.033280338311195375,0.6053264850452542,-0.3023852292988449
1761468092594426600,4.966426513671875,-0.11615502087473868,0.6435492481946945,-0.31136012452356515
1761468092604380700,4.976380615234375,-0.15501695871055124,0.6817975841768086,-0.3120703186195344
1761468092614334500,4.98633447265625,-0.19288345576822757,0.7430661457404494,-0.29378636431228367
1761468092624289500,4.99628955078125,-0.23499124365746973,0.7460830093435943,-0.28691983954366296
1761468092634243600,5.00624365234375,-0.2843511946320534,0.7560676661327481,-0.2813086485983804
1761468092644197400,5.016197265625,-0.2944710221081972,0.7781731149569153,-0.25596235468946393
1761468092654151700,5.026151611328125,-0.29475276165902614,0.7852313629053532,-0.22973489403184502
1761468092664105700,5.036105712890625,-0.2910691047102213,0.808788764103502,-0.2282469204964116
1761468092674060500,5.046060546875,-0.27563714230060576,0.7873534696258604,-0.2199898912174627
1761468092684014600,5.0560146484375,-0.18770809895694254,0.7673461621247232,-0.17874485763739795
1761468092693968600,5.06596875,-0.06348316887319087,0.7436886615529656,-0.1605786844909191
1761468092703922400,5.07592236328125,0.12472878795266151,0.6899784064143896,-0.15204725871738045
1761468092713877800,5.085877685546875,0.29787118594050405,0.6124338328324258,-0.1651207118347287
1761468092723831600,5.09583154296875,0.47324353493750093,0.5356995527200401,-0.14944420007951556
1761468092733785600,5.10578564453125,0.5962246024399995,0.4929617963641882,-0.1425936400650069
1761468092743739600,5.11573974609375,0.6582061345785856,0.42932796697393055,-0.1291296167274937
1761468092753693700,5.125693603515625,0.7036205627977847,0.4052262297660112,-0.1073857312247157
1761468092763648500,5.1356484375,0.6712117466241121,0.4081175672933459,-0.09705796008631587
1761468092773602600,5.1456025390625,0.6171954942762852,0.3808741710588336,-0.09498520893286913
1761468092783556600,5.155556640625,0.6001835691988467,0.3588759820014238,-0.08759192034378648
1761468092793510700,5.1655107421875,0.5719236893981695,0.33628625679165125,-0.09158402218725532
1761468092803465700,5.1754658203125,0.528406619232893,0.3299459478542208,-0.08197839131094514
1761468092813419500,5.18541943359375,0.40390579481720923,0.3264278567306697,-0.08221110408827662
1761468092823373600,5.19537353515625,0.18315876508951187,0.35662469594329593,-0.07629954195693135
1761468092833327600,5.20532763671875,-0.015089432582259176,0.39703605517819524,-0.044718116518110036
1761468092843281400,5.215281494140625,-0.1950689831137657,0.4284504534870386,-0.06734831986874341
1761468092853236700,5.22523681640625,-0.2759785030841827,0.4632544942341745,-0.12819273773618042
1761468092863190500,5.2351904296875,-0.33620763859748837,0.42013782156333324,-0.11452858871668577
1761468092873144600,5.24514453125,-0.35737492978870866,0.41573359525501724,-0.18767587718777357
1761468092883098600,5.2550986328125,-0.322286080750823,0.4041400419645011,-0.22779979778341947
1761468092893053400,5.265053466796875,-0.27972002770006654,0.37713746874853965,-0.21159889682792127
1761468092903007500,5.275007568359375,-0.3087660894423723,0.3889565013580024,-0.2188684494394809
1761468092912961500,5.28496142578125,-0.28871815766990183,0.3952564782850444,-0.17361556845754383
1761468092922915600,5.29491552734375,-0.2564332601368427,0.4162188945539295,-0.10825754562318324
1761468092932869600,5.30486962890625,-0.21211422593891618,0.4415433054246008,-0.015999021707847713
1761468092942824700,5.31482470703125,-0.1461485926002264,0.45450317863225936,0.03485343284681439
1761468092952778500,5.324778564453125,-0.07092763966023921,0.5002941850788891,0.0994460242666304
1761468092962732500,5.334732666015625,-0.011944120293855666,0.4888244042985141,0.14508622406572103
1761468092972686600,5.3446865234375,0.027183775001764297,0.5022755681544542,0.1682376748114824
1761468092982641700,5.3546416015625,0.0611205313950777,0.5283889374457299,0.20083412251174448
1761468092992595700,5.364595703125,0.0765402188450098,0.5446276861935854,0.21990392996706068
1761468093002549800,5.3745498046875,0.08704992242157458,0.5462827599242329,0.22726408347152172
1761468093012503600,5.384503662109375,0.11461422117352485,0.5815859823651611,0.2867611053179949
1761468093022457600,5.39445751953125,0.17954466624557971,0.5805336968332528,0.3460364472378045
1761468093032412400,5.404412353515625,0.27238544702827927,0.5812867071576416,0.3951953226823359
1761468093042366500,5.414366455078125,0.3735369600385427,0.5483478757604956,0.41797224102728064
1761468093052320500,5.424320556640625,0.40376200243234633,0.4967946525253355,0.45963550001941617
1761468093062274800,5.43427490234375,0.35866964577436444,0.5172299761801957,0.47576720819622276
1761468093072229600,5.444229736328125,0.23015081788897512,0.4995898362018168,0.4469554666664451
1761468093082183700,5.45418359375,0.10008242247402667,0.44085459250807757,0.43950368935577566
1761468093092137500,5.464137451171875,0.06535246987640857,0.41243440757915373,0.4256428487204015
1761468093102091500,5.474091552734375,0.05716565628945827,0.34629078732505436,0.41418212802931664
1761468093112045600,5.484045654296875,0.04776128360629082,0.29597032075524327,0.379015318384394
1761468093122000600,5.494000732421875,-0.03425999699831009,0.24167320563942193,0.33869982073940336
1761468093131954700,5.50395458984375,-0.16173545331060885,0.1775181288540363,0.31304047882594166
1761468093141908700,5.51390869140625,-0.3028957361042499,0.11935893148258328,0.27176256588958203
1761468093151862500,5.523862548828125,-0.5089204129964113,0.08101078838780522,0.17559863203354178
1761468093161817600,5.533817626953125,-0.623823972505331,0.0550413576118648,0.09227306389734148
1761468093171771600,5.543771728515625,-0.6588888561457396,-0.02365560087561607,0.07449154268689454
1761468093181725400,5.553725341796875,-0.6205103179126977,-0.047333559713512656,0.004137026739493012
1761468093191679500,5.563679443359375,-0.6022779111295938,-0.10006401003450155,0.01199329319782555
1761468093201634600,5.573634521484375,-0.5466390260159969,-0.11653700592964887,-0.028117548720538614
1761468093211588600,5.583588623046875,-0.4630354446560144,-0.14707009135931728,-0.07913103905580937
1761468093221542700,5.593542724609375,-0.3660264382779598,-0.21631752284765243,-0.09171404177509247
1761468093231496400,5.603496337890625,-0.27363457030653954,-0.2645302034832537,-0.1413926302447915
1761468093241450500,5.613450439453125,-0.21334815164804458,-0.28402561593949793,-0.20751002007909117
1761468093251405600,5.623405517578125,-0.09811433727145194,-0.26619199921563264,-0.20590843010134993
1761468093261359600,5.633359619140625,0.049918753901124,-0.23639555749744176,-0.15094780957549808
1761468093271313700,5.643313720703125,0.17901508941352368,-0.19802023413479328,-0.06095949561446905
1761468093281267200,5.65326708984375,0.28070494708418847,-0.1335981769762933,-0.01611607221625745
1761468093291222000,5.663221923828125,0.33111469937264915,-0.08360212005525827,0.015956351609900592
1761468093301176000,5.673176025390625,0.3216138805776834,-0.047888417117297646,0.04307232207246124
1761468093311130000,5.683130126953125,0.3033534167438745,-0.05601648625433445,0.013315408647060394
1761468093321084000,5.693083984375,0.22597616255283354,-0.04114201159700751,-0.040172801238670945
1761468093331038200,5.7030380859375,0.1255915422618389,-0.037030923016369344,-0.06908573812060058
1761468093340993300,5.7129931640625,0.034869068807363506,-0.007064093167334795,-0.08369169803485274
1761468093350947000,5.722947021484375,-0.08214812185466289,0.04826061143055558,-0.11590279967933892
1761468093360901000,5.732901123046875,-0.1716284862935543,0.07793897972702979,-0.13410444599799812
1761468093370855200,5.742855224609375,-0.2611006674259901,0.12314444137066602,-0.11822737016938627
1761468093380810000,5.75281005859375,-0.34341128636598584,0.14978519553691147,-0.12592391602136194
1761468093390764300,5.762764404296875,-0.2678103941977024,0.16479557153359053,-0.13601035268455744
1761468093400718300,5.77271826171875,-0.22308394824266434,0.14444368837848304,-0.15007804100364447
1761468093410672000,5.782672119140625,-0.15378303300142288,0.15260551365464925,-0.1833737230144441
1761468093420627200,5.792627197265625,-0.04573065456151962,0.1003330362342298,-0.1622928679976612
1761468093430581000,5.8025810546875,0.10284487292468547,0.05734057446494698,-0.16581636594869195
1761468093440535000,5.81253515625,0.22353870627284048,0.01950432641506195,-0.20624935249350965
1761468093450489000,5.822489013671875,0.33634909289479253,-0.06768120508491993,-0.2166772230055183
1761468093460443100,5.832443115234375,0.37655835368633267,-0.13441329275146127,-0.2335301581289619
1761468093470398200,5.842398193359375,0.34591304005384443,-0.2068451994948089,-0.2553182846322656
1761468093480352300,5.852352294921875,0.3377560370832681,-0.26211393612176176,-0.3066222092814743
1761468093490306000,5.86230615234375,0.33342063822746276,-0.3384903427071869,-0.34209026689529415
1761468093500260000,5.872260009765625,0.35913200258910655,-0.41616921019330616,-0.3093441085260361
1761468093510215200,5.882215087890625,0.3920435075879097,-0.5039353180602193,-0.3083644498389214
1761468093520169000,5.8921689453125,0.42111996446847916,-0.5981820201180875,-0.3169640820104629
1761468093530123300,5.902123291015625,0.4142641072243452,-0.656937137556076,-0.30273660001978275
1761468093540077300,5.912077392578125,0.34266719000041485,-0.6935846142128109,-0.25970029910877346
1761468093550031000,5.922031005859375,0.2747679582506418,-0.7378761758819222,-0.18938355788849293
1761468093559986200,5.931986083984375,0.2705044555872679,-0.7575463603831827,-0.11103409766443073
1761468093569940000,5.94193994140625,0.22873393682837484,-0.7583024394474923,-0.029405469639226793
1761468093579894000,5.95189404296875,0.1192430500179529,-0.7467806362189352,0.07337598266042769
1761468093589848000,5.96184814453125,-0.005195230555534363,-0.6767386933520436,0.1417456814661622
1761468093599803100,5.97180322265625,-0.1850304041802883,-0.6212307411417365,0.17720584803447126
1761468093609757200,5.981757080078125,-0.3018301526993513,-0.549428948995471,0.255860136424005
1761468093619711200,5.991711181640625,-0.3361772434592247,-0.4752740178517997,0.29438012895435095
1761468093629665000,6.0016650390625,-0.2789204017549753,-0.422436892285943,0.39548634151816364
1761468093639620000,6.0116201171875,-0.2855132241487503,-0.3701744978681206,0.46542628531530494
1761468093649574100,6.02157421875,-0.22770634734630582,-0.2501353290364146,0.4950731624949723
1761468093659528000,6.03152783203125,-0.13390811970829963,-0.2076768280133605,0.5989345189858227
1761468093669482200,6.041482177734375,0.009978373178839683,-0.12661986239627002,0.6587395108029246
1761468093679436300,6.051436279296875,0.19565701213479042,-0.06300926775112747,0.6899470614280552
1761468093689391000,6.06139111328125,0.3469558271050453,-0.00113806411921978,0.7483483239270746
1761468093699345200,6.07134521484375,0.43817631320953365,0.07801014526709914,0.7722342264272272
1761468093709299200,6.08129931640625,0.5442559302717447,0.1735324202187359,0.7839517714235931
1761468093719253000,6.0912529296875,0.6916442937999964,0.20797215769812463,0.7849630673579872
1761468093729208300,6.101208251953125,0.8170826913267374,0.23647782895341515,0.7730185817379503
1761468093739162000,6.111162109375,0.9168167387545109,0.2406752806432545,0.7338189363803714
1761468093749116200,6.1211162109375,0.9942974533200264,0.24302096698656678,0.7200328414816409
1761468093759070200,6.1310703125,0.967962404102087,0.2791379900284111,0.6905336291443556
1761468093769025000,6.14102490234375,0.8639782980144023,0.3366550901040435,0.6790342569433152
1761468093778979000,6.15097900390625,0.7211117958247661,0.39725408184304833,0.695842914533615
1761468093788933000,6.16093310546875,0.583981791460514,0.4405338361211121,0.6937332289032637
1761468093798887000,6.170886962890625,0.490207529219985,0.40335181419625876,0.6699237526401877
1761468093808841200,6.18084130859375,0.48389527733325954,0.3467890922360122,0.6384441070754081
1761468093818796000,6.190796142578125,0.5473638331592082,0.25444559345096346,0.6035816141393036
1761468093828750000,6.20075,0.6148755268961191,0.1270760817311704,0.5714576062563806
1761468093838704000,6.2107041015625,0.7196352935314178,0.039038609576970335,0.557565785960853
1761468093848658200,6.220658203125,0.7910293816596269,-0.06508943502604961,0.6100450379997492
1761468093858613000,6.230613037109375,0.7433879250407218,-0.14944193505719303,0.6652686203107238
1761468093868567300,6.2405673828125,0.6010270342856645,-0.2303686984233558,0.64281158156991
1761468093878521000,6.25052099609375,0.3833323778659105,-0.31655981205850836,0.6059334379624575
1761468093888475100,6.26047509765625,0.21352759986817835,-0.4065190460555255,0.5297171903748065
1761468093898430200,6.27043017578125,0.03985679409205913,-0.48795799672752616,0.46227761202603573
1761468093908384000,6.280384033203125,-0.10159224251508712,-0.5245367920622229,0.45057358409836884
1761468093918338000,6.290338134765625,-0.2411971125602722,-0.4482891264230013,0.5279408283520489
1761468093928292000,6.3002919921875,-0.40335108354389665,-0.33954730441421266,0.7387599729791283
1761468093938246000,6.310245849609375,-0.6436082849055528,-0.22337854727506637,0.7975793147597462
1761468093948201200,6.320201171875,-0.8657657659530639,-0.23276743012815712,0.6527247074928134
1761468093958155300,6.3301552734375,-0.7402537186682224,-0.3532181023702025,0.5113549466669559
1761468093968109000,6.340109130859375,-0.38245501050949093,-0.5944178452789783,0.30220380831733346
1761468093978063000,6.35006298828125,-0.10347849465310573,-0.8436024494618177,0.21866028658151626
1761468093988018000,6.360017822265625,0.13792086248099802,-0.9423384257629513,0.021404168687015772
1761468093997972000,6.369971923828125,0.24363924501538275,-1.0508940775498747,-0.09357274831905961
1761468094007926300,6.37992626953125,0.2107464447170496,-1.080282084597647,-0.18153510941043496
1761468094017880300,6.38988037109375,0.039489129823446274,-1.0477160320356487,-0.20246968782432376
1761468094027835100,6.399835205078125,-0.2782984704643488,-0.9194728062212467,-0.15764891464933753
1761468094037789200,6.4097890625,-0.6486199755877256,-0.7403872819200158,-0.12157580381445586
1761468094047743000,6.419742919921875,-1.0612754785716534,-0.5161775445178151,-0.19637984651662407
1761468094057697000,6.429697021484375,-1.420207574674487,-0.26768939816653725,-0.3031808366559446
1761468094067651000,6.439651123046875,-1.7712655764013527,-0.021590777300298212,-0.33516017537117004
1761468094077606100,6.449606201171875,-2.1237480579733847,0.19280483757406472,-0.34046259262822565
1761468094087560200,6.459560302734375,-2.2306582806408404,0.45966801404953,-0.33400727900899946
1761468094097514200,6.46951416015625,-2.125605084016919,0.6550017855793238,-0.24974727956689893
1761468094107468000,6.479468017578125,-1.806513999915123,0.8290519460618495,-0.21071933751441538
1761468094117423000,6.489423095703125,-1.3885837713986635,0.850591869957745,-0.06843121973462403
1761468094127377200,6.499377197265625,-0.9769085116237402,0.7866291008740663,0.05952142563536763
1761468094137331000,6.5093310546875,-0.6376034915328025,0.6185121298328041,0.03995879316180944
1761468094147285200,6.51928515625,-0.3121457950085401,0.46890755155980585,0.017578655582107604
1761468094157239300,6.5292392578125,-0.01812836188673973,0.4204661767348647,0.01728307016901672
1761468094167194000,6.539194091796875,0.24357845473885534,0.37435266033560033,0.0206617528218776
1761468094177148200,6.549148193359375,0.4958446583241224,0.2820207058578729,-0.025510508027300236
1761468094187102000,6.55910205078125,0.7965168731600045,0.20692980903834104,-0.05517327689584344
1761468094197056000,6.569055908203125,1.08021106518805,0.15170973385870457,-0.09426091324631124
1761468094207011300,6.57901123046875,1.2822685920149086,0.10136632480472325,-0.06743185170004144
1761468094216965000,6.588965087890625,1.3704729451686144,0.09425970766991376,-0.0781476540416479
1761468094226919200,6.598919189453125,1.2998878353357315,0.12084931617081164,-0.11355495791155844
1761468094236873200,6.608873291015625,1.1054641643881797,0.2134542423710227,-0.232491517529916
1761468094246827000,6.618826904296875,0.8290823412001133,0.312940452517569,-0.32921547815520313
1761468094256782000,6.628781982421875,0.5314999090731144,0.42124300632625816,-0.4441237138392403
1761468094266736000,6.638736083984375,0.23868191486895082,0.5455743193939327,-0.5979477729707956
1761468094276690400,6.6486904296875,-0.08199614616334437,0.6201973064407705,-0.747567987204343
1761468094286644500,6.65864453125,-0.4043243124902248,0.7069187275603414,-0.8832523228049278
1761468094296599300,6.668599365234375,-0.7098147412627935,0.7146715336441993,-1.0276514413893223
1761468094306553300,6.67855322265625,-0.9906897842168807,0.7177391045212745,-1.1617902280483394
1761468094316507400,6.68850732421875,-1.1669576207488774,0.7785700053200125,-1.2496028784707187
1761468094326461400,6.69846142578125,-1.215136837506294,0.8793179059654473,-1.2148482298232615
1761468094336416500,6.70841650390625,-1.1223895802259445,0.9356550024762749,-1.1040430455438792
1761468094346370600,6.71837060546875,-0.919464622914791,0.9896179172016679,-0.9167885355733334
1761468094356324400,6.728324462890625,-0.7311696639806031,0.9714180975139141,-0.7445943051557987
1761468094366278400,6.7382783203125,-0.5912029748857021,0.9433796053789556,-0.5637455705743283
1761468094376233200,6.748233154296875,-0.4527724093168974,0.9489670501224696,-0.4672733744867146
1761468094386187300,6.758187255859375,-0.2828513114631176,0.8601989256061613,-0.4362100911704823
1761468094396141300,6.768141357421875,-0.09725158296227454,0.7114525715976953,-0.40094310908671466
1761468094406095400,6.778095458984375,0.12257365574538708,0.5897108366318047,-0.38066735990773887
1761468094416049400,6.78804931640625,0.31272038002610203,0.45104339356720446,-0.3776147674040869
1761468094426004500,6.79800439453125,0.42980245261788363,0.29120588283240795,-0.36430648261755705
1761468094435958300,6.807958251953125,0.5135924964606762,0.16160525105968115,-0.31211770142521705
1761468094445912300,6.817912353515625,0.5924784016489982,0.046713674249500035,-0.295189399510622
1761468094455866400,6.827866455078125,0.5753332055807113,-0.07845832742601633,-0.3097976975124329
1761468094465821200,6.8378212890625,0.6204167944103479,-0.23672478945180772,-0.3558182749312371
1761468094475775500,6.847775390625,0.7327613170862197,-0.4541607949353754,-0.3514734506599605
1761468094485729500,6.8577294921875,0.8408803310215472,-0.6730981448926031,-0.3831020031761378
1761468094495683300,6.867683349609375,0.9190876062959432,-0.8031535346955061,-0.3493398361647501
1761468094505637400,6.877637451171875,0.8826163629889487,-0.8729033627480268,-0.3462117672720924
1761468094515592400,6.887592529296875,0.7559276731401682,-0.8898587353326379,-0.32756215799022464
1761468094525546200,6.897546142578125,0.5424976884275674,-0.8891057250082492,-0.3140837042685598
1761468094535500300,6.907500244140625,0.3061480158984661,-0.8276673598356544,-0.321929814659059
1761468094545454300,6.917454345703125,0.01939502082169056,-0.7657355120576917,-0.3009869798734784
1761468094555409400,6.927409423828125,-0.19178221652805805,-0.690300185714662,-0.2299508383374661
1761468094565363500,6.937363525390625,-0.3328162425935268,-0.5958610298246145,-0.18244309110082685
1761468094575317500,6.9473173828125,-0.38100656526684756,-0.5368021071344614,-0.09503843695744872
1761468094585271300,6.957271240234375,-0.3702180447489023,-0.52434170788154,-0.02058203864917159
1761468094595225300,6.967225341796875,-0.4148503826797008,-0.4917461369641125,0.02322959401588887
1761468094605180200,6.97718017578125,-0.5816174004167318,-0.4525355318211019,0.02065576147250831
1761468094615134500,6.987134521484375,-0.8075485547840595,-0.39793139658272264,-0.026858853896334765
1761468094625088500,6.997088623046875,-1.0045008674263953,-0.39002690706849097,-0.06270970028266311
1761468094635042300,7.007042236328125,-0.9747475341975689,-0.3178158034689724,-0.1058978307545185
1761468094644997400,7.016997314453125,-0.7856167089611291,-0.2891515806511044,-0.07369958859160541
1761468094654951400,7.026951416015625,-0.5193704953402281,-0.28280528036430475,0.018759207136183977
1761468094664905200,7.0369052734375,-0.24349954428374765,-0.2731052857354283,0.005069339153543114
1761468094674859300,7.046859375,-0.03651157531738281,-0.3500138995014131,0.028078312688693402
1761468094684813300,7.056813232421875,0.13443711201846598,-0.43195875386893745,0.026097221874073148
1761468094694768400,7.066768310546875,0.2923246577292681,-0.4338194331742823,0.013265176297165452
1761468094704722400,7.076722412109375,0.40283261262774467,-0.47037937767803667,0.00209284409340471
1761468094714676500,7.086676513671875,0.4840998599946499,-0.5093994286850094,0.032471944537758826
1761468094724630300,7.09663037109375,0.5810971759349107,-0.5163118384219706,0.039997188943438226
1761468094734585300,7.10658544921875,0.670122782343626,-0.5333192334547638,0.09354870985634624
1761468094744539100,7.1165390625,0.7145411852627992,-0.532018233858794,0.140522569411993
1761468094754493400,7.126493408203125,0.6453881540596484,-0.48554362906217574,0.13218725073244422
1761468094764447500,7.136447509765625,0.5348948122084141,-0.4640547047011554,0.1367102445822209
1761468094774402300,7.14640234375,0.3917190979391336,-0.43810850867033,0.10512523894682525
1761468094784356400,7.1563564453125,0.24359072969853876,-0.44289632746875285,0.026937691286206242
1761468094794310400,7.166310302734375,0.13177286124527454,-0.4568232921428978,-0.06527472846508026
1761468094804264200,7.17626416015625,0.02543254742026329,-0.49437443964108824,-0.12550269493460656
1761468094814218200,7.18621826171875,-0.0863391438037157,-0.524808887001872,-0.1967282946281135
1761468094824173600,7.196173583984375,-0.13044307394623755,-0.5715995720103383,-0.2699748056899756
1761468094834127400,7.20612744140625,-0.1746077943652868,-0.6424455247364937,-0.3147238288030028
1761468094844081400,7.216081298828125,-0.24407938999831674,-0.6872795227192342,-0.3211962396875024
1761468094854035500,7.226035400390625,-0.3351332873642444,-0.68707289423123,-0.3129010703552514
1761468094863990300,7.235990234375,-0.33262451941370963,-0.6724367583744227,-0.32529388426467776
1761468094873944300,7.2459443359375,-0.34947336288392544,-0.6367141414776444,-0.257735063450411
1761468094883898400,7.2558984375,-0.3763473412841558,-0.5878250228852033,-0.1869246204290539
1761468094893852400,7.265852294921875,-0.4193640607118606,-0.5498179483130574,-0.14644465293735265
1761468094903806500,7.275806396484375,-0.4328513187944889,-0.5365161297999322,-0.15359430549629033
1761468094913761300,7.28576123046875,-0.36771570653915403,-0.5668956321030855,-0.1682395014423877
1761468094923715300,7.29571533203125,-0.2997778963446617,-0.6205317990921437,-0.21851656726188956
1761468094933669400,7.30566943359375,-0.21124036571383475,-0.6811228997856378,-0.22570158339515328
1761468094943623400,7.31562353515625,-0.12738017924427986,-0.7033353161156177,-0.21983349507935343
1761468094953578500,7.32557861328125,-0.10249825144410132,-0.7372628662891686,-0.1564039560895413
1761468094963532500,7.335532470703125,-0.1499339563578367,-0.7443604233346879,-0.08595109433420002
1761468094973486300,7.345486328125,-0.24787001445293425,-0.7563153572835027,-0.05887151035927236
1761468094983440400,7.3554404296875,-0.31914544463753697,-0.7685868098355829,-0.06250321792513132
1761468094993394400,7.36539453125,-0.3877805894464254,-0.7743857053726911,-0.07165405423864722
1761468095003349200,7.375349365234375,-0.4876315412521362,-0.7751387156970798,-0.10094985295832157
1761468095013303300,7.38530322265625,-0.621505758690834,-0.7227988721288741,-0.12210559984222054
1761468095023257300,7.39525732421875,-0.711755353936553,-0.6701711515299975,-0.1424187584221363
1761468095033211400,7.40521142578125,-0.8414186756819486,-0.5718851109534502,-0.20445516255311666
1761468095043166500,7.41516650390625,-0.9739584296464919,-0.45322117599770423,-0.2562096074488014
1761468095053120300,7.425120361328125,-1.1753607074350119,-0.330970468596369,-0.3162705467883497
1761468095063074300,7.43507421875,-1.442785317185521,-0.20158231053054332,-0.36608269850984215
1761468095073028400,7.4450283203125,-1.6169307547360658,-0.015856325301527977,-0.44336920567750926
1761468095082982400,7.454982421875,-1.603627036526799,0.17017068870067595,-0.4256136226259172
1761468095092937500,7.4649375,-1.3663766157656907,0.3145246529690921,-0.38221930205747484
1761468095102891500,7.4748916015625,-0.8455401395261287,0.37051015956327316,-0.31957528742216523
1761468095112845300,7.48484521484375,-0.21175883662998676,0.35754897118136286,-0.2519269616935402
1761468095122799400,7.49479931640625,0.3194464734107256,0.3445275770448148,-0.1965027057113126
1761468095132754400,7.50475439453125,0.7368383572667837,0.35508828015625477,-0.17194131510239094
1761468095142708200,7.514708251953125,0.9943605816841125,0.386150504026562,-0.17414507222436368
1761468095152662300,7.524662353515625,1.0981114635378122,0.4372407859250903,-0.1658133702740073
1761468095162616600,7.534616455078125,1.0939999365657567,0.4831152328714728,-0.16257460754849015
1761468095172570400,7.5445703125,1.0195219109475613,0.569668750078231,-0.21036756493467837
1761468095182525400,7.554525390625,0.873367473128438,0.6842315333254635,-0.2932094777397811
1761468095192479500,7.5644794921875,0.7111486202150583,0.7508592838346958,-0.3914287001578137
1761468095202433300,7.574433349609375,0.5446475599378348,0.7877819241710007,-0.49508952910788356
1761468095212387300,7.58438720703125,0.4117670297116041,0.7925367174826562,-0.5648753783218562
1761468095222342400,7.59434228515625,0.3458779687404632,0.7982448659963906,-0.6701896370347589
1761468095232296400,7.60429638671875,0.3172287973612547,0.8013407861851155,-0.7051221995323896
1761468095242250500,7.61425048828125,0.37343116157650946,0.7808556320391595,-0.7029242510966957
1761468095252204500,7.62420458984375,0.462495346429944,0.7822286739580333,-0.6310572847597301
1761468095262158300,7.634158447265625,0.5321662640273571,0.7422697346657514,-0.5646283447582274
1761468095272113400,7.644113525390625,0.5697615429282188,0.7170600362159312,-0.5067764597702771
1761468095282067200,7.654067138671875,0.5366203208267688,0.6868554520882666,-0.488355106286332
1761468095292021200,7.664021240234375,0.44241877308487887,0.6508909892596304,-0.520643803211674
1761468095301975600,7.6739755859375,0.2872287958949804,0.5958307808168232,-0.5417623598903417
1761468095311930400,7.683930419921875,0.09399813412427901,0.5600599408641457,-0.5468890552543103
1761468095321884400,7.693884521484375,0.011803835040330887,0.5517746353387832,-0.5037906488925218
1761468095331838500,7.70383837890625,0.017433949881792067,0.5153188818618655,-0.4621813851099461
1761468095341792300,7.713792236328125,0.01503916369974613,0.4641885602138936,-0.4191036562100053
1761468095351746300,7.723746337890625,0.07682721909284591,0.4439000976838171,-0.353799117128551
1761468095361701400,7.733701416015625,0.1699678596049547,0.4139470040991902,-0.2956462764326483
1761468095371655400,7.743655517578125,0.2348889523267746,0.36161592835932965,-0.23705599416755138
1761468095381609500,7.753609375,0.21822481777369976,0.31230259300544855,-0.18897285819575188
1761468095391563500,7.7635634765625,0.14997662645578383,0.28765915013626214,-0.1780425911195576
1761468095401518300,7.773518310546875,0.08289514082968234,0.3008642302766442,-0.17026742707341908
1761468095411472400,7.783472412109375,0.02896832033097744,0.33720877846404906,-0.15035685794502496
1761468095421426200,7.79342626953125,-0.038481998607516284,0.3713360889934003,-0.10504822818785906
1761468095431380200,7.803380126953125,-0.14013678496479987,0.4319637223049998,-0.09480492046251893
1761468095441334500,7.81333447265625,-0.20756606111526488,0.484427776774764,-0.03001607581824064
1761468095451289300,7.823289306640625,-0.2822755574017763,0.5526705612652003,0.05778568788394332
1761468095461243400,7.833243408203125,-0.3560235151797533,0.6288587518021463,0.07328384739756584
1761468095471197400,7.843197509765625,-0.3740203596413135,0.6482464661002159,0.11674275763481855
1761468095481151200,7.853151123046875,-0.35467151604890823,0.6761743374675512,0.13834792878665028
1761468095491106300,7.863106201171875,-0.3062479691416025,0.6784316148750483,0.13897468238286673
1761468095501060600,7.873060546875,-0.19062720127403734,0.6466805319577456,0.22631292022652924
1761468095511014400,7.883014404296875,-0.17090835532546042,0.6347581851042807,0.21619491938129065
1761468095520968400,7.892968505859375,-0.07587678650021552,0.6256086639650166,0.2209708285462111
1761468095530922500,7.902922607421875,-0.033118425747752187,0.534633823184669,0.2715254691980779
1761468095540877300,7.912877197265625,0.03170446729660034,0.5388204612195492,0.27602935648858545
1761468095550831400,7.922831298828125,0.019086393263936043,0.49640346125066276,0.372237056421116
1761468095560785400,7.932785400390625,0.015389876833558082,0.5402743132896721,0.3983638697158545
1761468095570739200,7.9427392578125,-0.0180991357922554,0.5749101578630507,0.4256562927238643
1761468095580694500,7.952694580078125,-0.02609130358994007,0.5772817092999816,0.4379413354098797
1761468095590648300,7.9626484375,-0.05870177981555461,0.5855759287841618,0.38626207464225587
1761468095600602400,7.972602294921875,-0.11439034928977489,0.5401603315211833,0.3417833929032087
1761468095610556400,7.982556396484375,-0.164596103438735,0.5126411870852112,0.2737247328080237
1761468095620510500,7.992510498046875,-0.19506664502620696,0.4797435644812882,0.2073365632083267
1761468095639796200,8.011796142578126,-0.1904120972186327,0.4695471646375954,0.15367562710419297
1761468095649750500,8.02175048828125,-0.11671908449828625,0.4277930124916136,0.10986278886273503
1761468095659704300,8.031704345703124,-0.01934475193917751,0.3623883740365505,0.05409008476901799
1761468095669658400,8.041658447265625,0.08308978661894798,0.2849874467089772,0.024729440652206537
1761468095679613400,8.051613525390625,0.14794073671400546,0.22187837184518575,-0.0072408379737287755
1761468095689567200,8.061567138671874,0.15528233164846897,0.20624474938362836,-0.0023963570846244693
1761468095699521300,8.071521240234375,0.09253332226872443,0.21463161558732388,0.002598492060601711
1761468095709475300,8.081475341796875,0.06362228508293628,0.2625054196573794,0.024502938419952987
1761468095719430400,8.091430419921876,0.05799567737281322,0.28933877378627654,0.08452508011907339
1761468095729384400,8.101384521484375,0.11777882268428802,0.3142250855006277,0.1279685005262494
1761468095739338500,8.11133837890625,0.1653109737098217,0.30108576407283544,0.15309556219391524
1761468095749292300,8.121292236328125,0.14623451731801032,0.2601817990154028,0.145194689408876
1761468095759246300,8.131246337890625,0.07180266892910003,0.20480141870751975,0.16472148338407278
1761468095769201200,8.141201171875,0.025712533405423163,0.1809304215155542,0.18107461575921624
1761468095779155200,8.1511552734375,-0.0037894554108381267,0.1674335188217461,0.1833925738453865
1761468095789109500,8.161109619140625,0.02015489927828312,0.10299977122545241,0.22432346344236284
1761468095799063600,8.1710634765625,0.07888999684154988,0.010057722025364637,0.23992566785234956
1761468095809018400,8.181018310546875,0.13198153555989264,-0.049384647024422884,0.237977748654969
1761468095818972400,8.190972412109375,0.18883447263836858,-0.11616349644213914,0.23442699737083164
1761468095828926200,8.20092626953125,0.1985375360071659,-0.22006591559574007,0.19943828423917292
1761468095838880300,8.21088037109375,0.16567513084709642,-0.3085467476032674,0.17373163258526472
1761468095848834300,8.220834228515624,0.11018120716214179,-0.3452874555014074,0.1294436145801097
1761468095858789400,8.230789306640625,0.043915129572153086,-0.38723172339200973,0.09127261815052479
1761468095868743400,8.240743408203125,-0.035464112091064454,-0.41657092286199326,0.07119403551146387
1761468095878697500,8.250697509765626,-0.12921031728088855,-0.4510245427362621,0.020629932911507783
1761468095888651300,8.2606513671875,-0.19230127196609972,-0.4474732799954712,0.005925334928371012
1761468095898606300,8.2706064453125,-0.25917291423380373,-0.4230722675800323,0.03602024813648313
1761468095908560400,8.280560302734376,-0.3038461686968803,-0.3692378015398979,0.06894048443101346
1761468095918514400,8.290514404296875,-0.37116029403507705,-0.3260854730337858,0.10895919108651578
1761468095928468500,8.300468505859374,-0.3954816653430462,-0.2890529425822198,0.13491408188045023
1761468095938422500,8.310422607421875,-0.4122907613247633,-0.2524287006705999,0.11812091412022709
1761468095948999400,8.32099951171875,-0.4941553900629282,-0.2599374688655138,0.041928193538635965
1761468095958953500,8.330953369140625,-0.43405543388724327,-0.21352964569479227,0.0033055443514138456
1761468095968907300,8.3409072265625,-0.26402619948387146,-0.2661829391263425,0.03483443588539958
1761468095978862300,8.3508623046875,-0.2604512636065483,-0.2929993421204388,-0.034766777476668356
1761468095988816400,8.36081640625,-0.19755144757926463,-0.2185565339460969,-0.12085523445494473
1761468095998770400,8.3707705078125,-0.14673486805558203,-0.27273221463933583,-0.10185396219119429
1761468096008724500,8.380724365234375,-0.02870294739305973,-0.2980132247596979,-0.1580672861918807
1761468096018679300,8.39067919921875,0.10531447790861129,-0.300977481392771,-0.20885127862021327
1761468096028633300,8.40063330078125,0.22934359315931796,-0.32437223937511445,-0.2124721359984949
1761468096038587400,8.41058740234375,0.3158428959608078,-0.3154818075634539,-0.17704159738346933
1761468096048541200,8.420541259765624,0.37868250623345373,-0.29854893907159563,-0.16259068190045653
1761468096058495200,8.4304951171875,0.4284147976517677,-0.3156498576067388,-0.16825718322955072
1761468096068450600,8.440450439453125,0.4814584055751562,-0.37281273741722104,-0.20988595543019473
1761468096078404400,8.450404296875,0.5231973601520061,-0.41804961711242794,-0.2571061178971082
1761468096088358400,8.4603583984375,0.5177420173555612,-0.48386751254349947,-0.2735769218351692
1761468096098312400,8.4703125,0.48312896913588044,-0.5381273643888533,-0.29315548253022133
1761468096108267300,8.480267333984376,0.4351087423324585,-0.6033655602358281,-0.3053962476830929
1761468096118221300,8.49022119140625,0.35093525213003157,-0.5969675297617912,-0.29197343313880264
1761468096128175400,8.50017529296875,0.22773265083134173,-0.5848688034281134,-0.27189444864094253
1761468096138129400,8.51012939453125,0.2050941180437803,-0.5602402658671141,-0.23395240212902427
1761468096148084500,8.52008447265625,0.1326584119081497,-0.5910951305970549,-0.13364062787853181
1761468096158038300,8.530038330078124,-0.0676607468187809,-0.5360805148616433,-0.037989027458801866
1761468096167992300,8.539992431640625,-0.19618600444495676,-0.4597663598574698,-0.041234439120814204
1761468096177946400,8.5499462890625,-0.30791151843965053,-0.4621691832154989,0.028476152899861332
1761468096187900400,8.559900390625,-0.363000952976942,-0.40984351430311794,0.03453092289417982
1761468096197855500,8.56985546875,-0.41138124526441094,-0.4545594388641417,0.02965206481143832
1761468096207809500,8.5798095703125,-0.3929126916378736,-0.42170346344485876,-0.03498319670632481
1761468096217763300,8.589763427734376,-0.3847439982295036,-0.4359425628080964,0.0064084057375788685
1761468096227717400,8.59971728515625,-0.30835049437880513,-0.43060587795525784,0.05166055606715381
1761468096237672400,8.60967236328125,-0.16939152102172375,-0.4193396569229662,0.12143040399439632
1761468096247626200,8.619626220703125,-0.03196867119073868,-0.4771902267366647,0.1982918176177889
1761468096257580300,8.629580322265625,0.07833177843689917,-0.5556390556819737,0.26174327617846427
1761468096267534300,8.639534423828126,0.12743395525813103,-0.6330953664585948,0.2637233440797776
1761468096277489400,8.649489501953125,0.11085399185717106,-0.6353289707295596,0.16358261554725467
1761468096287443500,8.659443359375,0.00851063871383667,-0.6092404436185955,0.03762085173353553
1761468096297397200,8.669397216796876,-0.33491818330883977,-0.5896102988667786,-0.029625761326402423
1761468096307351300,8.679351318359375,-0.6718745944470167,-0.48692105489522214,-0.051597062376886604
1761468096317305300,8.689305419921874,-0.8397405133366584,-0.35828546876236794,0.024352131772413847
1761468096327260200,8.69926025390625,-0.8578145146876573,-0.2500359603151679,0.1156717674024403
1761468096337214200,8.709214111328125,-0.8225748590022325,-0.18636442926302552,0.22010434790998695
1761468096347168500,8.71916845703125,-0.7907657622873783,-0.10453034179359674,0.303386149969697
1761468096357122300,8.729122314453125,-0.7348959910273551,-0.036489948007464405,0.34383316503986716
1761468096367077400,8.739077392578125,-0.6616022067576647,-0.042293958111107345,0.3392567239698022
1761468096377031400,8.749031494140626,-0.6417302160739898,-0.05326601850241423,0.29724055988676845
1761468096386985200,8.758985107421875,-0.6074813249915838,-0.05870324112027883,0.25992168677449223
1761468096396939300,8.768939208984374,-0.6261930397242307,-0.037574528373777866,0.2303734476637095
1761468096406894300,8.778894287109376,-0.5568979697018861,-0.0035857495322823524,0.2083466170337051
1761468096416848400,8.788848388671875,-0.30108722537755966,0.037851737879961725,0.2466788319069892
1761468096426802400,8.798802490234374,0.0359065951615572,0.04508855726569891,0.3310513518128544
1761468096436756500,8.808756591796875,0.29161154102385045,0.05183744700402021,0.42610418262183664
1761468096446711300,8.818711181640625,0.35379297964870926,0.04228168315142393,0.4397008193630725
1761468096456665300,8.828665283203126,0.364722369942069,0.04057210275456309,0.3887126826647669
1761468096466619100,8.838619140625,0.3046463791638613,0.01611950628235936,0.36362083844095466
1761468096476573200,8.8485732421875,0.3877554550051689,-0.003253010446578264,0.3692169048823416
1761468096486527500,8.858527587890626,0.5317044917345046,-0.07791749854758381,0.3774280491929501
1761468096496482300,8.868482421875,0.6995546285331249,-0.10818506490886211,0.3556309356655925
1761468096506436400,8.878436279296874,0.7714134115636349,-0.12224413153007625,0.3584657207001
1761468096516390400,8.888390380859375,0.6285510010272264,-0.07325286773741245,0.3792338565059006
1761468096526344200,8.89834423828125,0.41888299919664856,0.0512912112981081,0.3850491917211562
1761468096536299300,8.90829931640625,0.22920330790579319,0.14312866025716064,0.43724473144784565
1761468096546253600,8.918253662109375,0.1331944184809923,0.2445537295117974,0.40151612320169805
1761468096556207400,8.928207275390625,0.0037239889591932293,0.22511077789515255,0.4364983700599521
1761468096566161400,8.938161376953126,-0.07147767475843429,0.28221666682139035,0.32755057715028524
1761468096576116200,8.9481162109375,-0.17707973743677138,0.3227648041784763,0.22367687263451516
1761468096586070300,8.9580703125,-0.2776923212647438,0.3331298385873437,0.18059424836374818
1761468096596024300,8.9680244140625,-0.3180944742798805,0.42138752936348317,0.15881320918835698
1761468096605978400,8.977978271484375,-0.34703239947259423,0.46996495165824886,0.23029855579659342
1761468096615933400,8.987933349609374,-0.2766074486374855,0.5499335375167429,0.24687318543531
1761468096625887500,8.997887451171875,-0.0669762716859579,0.6185176827907561,0.19475743294656275
1761468096635841300,9.00784130859375,0.13128069381415844,0.5748877999007701,0.1590975790876895
1761468096645795300,9.01779541015625,0.24466624997556208,0.5261809060074388,0.0969070073083043
1761468096655749400,9.027749267578125,0.30784897459745403,0.49188218443393705,0.033005320762097834
1761468096665704200,9.0377041015625,0.31203181324005125,0.44184521098062396,-0.0028328853383660316
1761468096675658200,9.047658203125,0.2225134548783302,0.43992257235497234,-0.06550393411107361
1761468096685612500,9.057612548828125,0.04891746790409088,0.4403656399473548,-0.11037081145010888
1761468096695566300,9.06756640625,-0.0763654467999935,0.47799116785600776,-0.15937179291918874
1761468096705521400,9.077521484375,-0.1130909571290016,0.49604354189708827,-0.17055676540881395
1761468096715475200,9.08747509765625,-0.0887748465180397,0.5186866047292947,-0.18148776313737033
1761468096725429200,9.09742919921875,-0.03191080352365971,0.5304416321918368,-0.22965397428274154
1761468096735383300,9.10738330078125,-0.056146834635734555,0.5812604036726057,-0.2516474871650338
1761468096745338400,9.11733837890625,-0.08671323781311512,0.624834903113544,-0.20178375138677657
1761468096755292400,9.12729248046875,-0.16809563599228858,0.6214945066444575,-0.15079959674384444
1761468096765246500,9.13724658203125,-0.25516075598299504,0.6840520851053297,-0.20719675287883726
1761468096775200300,9.1472001953125,-0.30052959149479863,0.6814136994257569,-0.17880842439290134
1761468096785155300,9.1571552734375,-0.21693536248505113,0.675533116954565,-0.15925236779060215
1761468096795109400,9.167109375,-0.045160161197185515,0.659940849416703,-0.17273473050240426
1761468096805063200,9.177063232421874,0.06932838777005672,0.6300463541515171,-0.1687580088911578
1761468096815017200,9.187017333984375,0.13145780394673345,0.6186622058279811,-0.12104381582960486
1761468096824971500,9.196971435546875,0.13717501254975795,0.5963628418669105,-0.15151044842693953
1761468096834926300,9.20692626953125,0.10995908884406089,0.5699886296823621,-0.23337182576209306
1761468096844880400,9.21688037109375,0.017234043395519257,0.5318004994548857,-0.27264628992155193
1761468096854834400,9.22683447265625,0.016546061131358147,0.5122982188664377,-0.30790443111173804
1761468096864788200,9.236788330078125,0.002163315513730049,0.48175242008566854,-0.3598994067650288
1761468096874743300,9.246743408203125,-0.08021744605302811,0.44694954838231205,-0.40608847261853515
1761468096884697300,9.256697265625,-0.14637655613720416,0.4579620869144797,-0.5061072187392041
1761468096894651400,9.2666513671875,-0.24839199250042437,0.43707975014448164,-0.5706951705165207
1761468096904605400,9.27660546875,-0.3124585142195225,0.4148784397304058,-0.5984895882299169
1761468096914560300,9.286560302734374,-0.3693219726920128,0.4296373251840472,-0.559138515170291
1761468096924514300,9.296514404296875,-0.33834874227941036,0.4358461166962981,-0.48299127769824113
1761468096934468400,9.30646826171875,-0.23810090011060236,0.4218326427824795,-0.336792854606919
1761468096944422100,9.316422119140626,-0.14201836092770098,0.43908276052996514,-0.22359639127682893
1761468096954377500,9.32637744140625,-0.05176818116009235,0.46176586311161516,-0.13568795232977718
1761468096964331300,9.336331298828124,-0.00793371560871601,0.42746261149346826,-0.03924016003105789
1761468096974285300,9.346285400390625,0.022551439025998113,0.3805379248417914,-0.0073553677314892405
1761468096984239400,9.3562392578125,-0.02562251703441143,0.32469971776381135,0.006930201121978462
1761468096994194200,9.366194091796874,-0.053179801523685455,0.2675895910538733,0.07269947163835168
1761468097004148200,9.376148193359375,0.05036357505917549,0.21184271552115677,0.018491386512853203
1761468097014102300,9.386102294921875,0.13124153084754944,0.09706073656529188,-0.09771879861522466
1761468097024056300,9.396056396484376,0.1682826829969883,-0.029019027604907748,-0.19488091319575904
1761468097034010400,9.40601025390625,0.1868161185532808,-0.15025675857141613,-0.1638027611039579
1761468097043965400,9.41596533203125,0.19816636460721493,-0.23903087443709373,-0.03793612822778523
1761468097053919200,9.425919189453126,0.24220833542943,-0.257889304164052,0.05425820787753909
1761468097063873300,9.435873291015625,0.25272446874678134,-0.22736206395328043,0.09009184740073978
1761468097073827300,9.445827392578124,0.2566653153270483,-0.23211013526320456,0.09620923430249094
1761468097083782400,9.455782470703125,0.24345278253257274,-0.24736557206213472,0.11186455713920294
1761468097093736400,9.465736328125,0.22033201918601988,-0.30955490173250433,0.08804996630959212
1761468097103690500,9.4756904296875,0.22265023300051687,-0.3326378172867,0.043673904694803055
1761468097113644300,9.485644287109375,0.14796236402392388,-0.321321911893785,0.03177143158558756
1761468097123599400,9.495599365234375,-0.0019055413603782652,-0.3143400901824236,0.04654825455471873
1761468097133553200,9.50555322265625,-0.15534896714389324,-0.2607372409410775,0.06768281252011657
1761468097143507200,9.515507080078125,-0.3130746002912521,-0.18071005676314233,0.050498307354748244
1761468097153461200,9.525461181640624,-0.41706805872917174,-0.13761647270694374,0.026121041141077876
1761468097163415600,9.53541552734375,-0.4056359796106815,-0.14964987871944904,-0.040974399945139885
1761468097173370400,9.545370361328125,-0.33778818578720093,-0.18841858531385658,-0.07154398146029561
1761468097183324400,9.555324462890624,-0.2286713929861784,-0.21919950802475213,-0.05535382109452039
1761468097193278200,9.5652783203125,-0.12397884636819362,-0.26988924629837274,0.036570319767296314
1761468097203232300,9.575232177734375,0.011396423283219336,-0.25088278640285133,0.1074444391420111
1761468097213187300,9.585187255859376,0.114638186571002,-0.2309843461036682,0.15845588365066796
1761468097223141400,9.595141357421875,0.1608054789841175,-0.19815116703808305,0.1892186496503651
1761468097233095400,9.605095458984374,0.17367431290745733,-0.17120426953211426,0.17813191337082535
1761468097243049500,9.615049560546876,0.16417875480949878,-0.18220833249688148,0.1819235607387498
1761468097253004300,9.62500439453125,0.10647007768452167,-0.20046265885084866,0.11609890677332878
1761468097262958300,9.634958251953124,0.08845978921949862,-0.18684563690871,0.08249174766056239
1761468097272912400,9.644912353515625,0.11161679292321204,-0.17297084081321953,0.08762092724256217
1761468097282866700,9.65486669921875,0.17503858699798583,-0.21587620882093905,0.16451383198276162
1761468097292820700,9.66482080078125,0.2070686329871416,-0.24641338590383527,0.15308628290891646
1761468097302775600,9.674775634765625,0.22484628174006938,-0.24088161687031387,0.14127218220289794
1761468097312729600,9.6847294921875,0.21427344979941843,-0.24482699349522588,0.1363968677841127
1761468097322684000,9.694683837890626,0.16565408805906773,-0.25158552784472704,0.11498144705072044
1761468097332637700,9.7046376953125,0.15567454583644866,-0.2661404151588678,0.08402458325102925
1761468097342592800,9.7145927734375,0.14397534021437167,-0.2776759546518326,0.08544475224725902
1761468097352546800,9.724546875,0.1108954929113388,-0.2693374576345086,0.09541446719560771
1761468097362500600,9.73450048828125,0.12130524324476719,-0.26467399586811663,0.010181384937651455
1761468097372454700,9.74445458984375,0.18560148206651209,-0.3013523060545325,-0.05525580408014357
1761468097382409700,9.75440966796875,0.27320611576139925,-0.38122853745445606,-0.07050466500781476
1761468097392363800,9.76436376953125,0.2952899372756481,-0.4844273383833468,-0.1091706418801099
1761468097402317800,9.77431787109375,0.2827782462269068,-0.5017614811524749,-0.15923004636093974
1761468097412271600,9.784271728515625,0.20114625720083712,-0.465937157446891,-0.19831969200540334
1761468097422226700,9.794226806640625,0.06089081429243087,-0.41880832652524114,-0.0975239701628685
1761468097432180700,9.8041806640625,-0.06568389378786087,-0.4323937842853367,0.023803009989671407
1761468097442134500,9.814134521484375,-0.10995967336595058,-0.4116197301954031,-0.041691169912368056
1761468097452088600,9.824088623046874,-0.013729834666848182,-0.4382122613057494,-0.1527523382468149
1761468097462043000,9.83404296875,0.05910568444132804,-0.4922659230545163,-0.16973448924049733
1761468097471997700,9.843997802734375,0.07424538590610028,-0.5540246062226594,-0.21017777798362075
1761468097481951700,9.85395166015625,0.05853752916455268,-0.5758116367474198,-0.24740426010470837
1761468097491905800,9.86390576171875,-0.014456979897618292,-0.5517148679755628,-0.24224972688574342
1761468097501859600,9.873859619140624,-0.07211889527142047,-0.5352181989438831,-0.23551672883629798
1761468097511814700,9.883814697265626,-0.16424539030492305,-0.5203958928652107,-0.28964301742985843
1761468097521768700,9.893768798828125,-0.26654724239408967,-0.5092698109559715,-0.30173662919700145
1761468097531722800,9.90372265625,-0.272220027333498,-0.5608826554238796,-0.2012054035095498
1761468097541676800,9.9136767578125,-0.16201836190521715,-0.584088174444437,-0.29460827515441923
1761468097551631600,9.923631591796875,-0.0407207174450159,-0.573247777608782,-0.34289003897085785
1761468097561585700,9.933585693359374,-0.030936990055441854,-0.5839690781094133,-0.2355345202213153
1761468097571539700,9.943539794921875,-0.03551730358302593,-0.5758987305089831,-0.19913641521576791
1761468097581493500,9.953493408203125,-0.09595394436717034,-0.5425996874973178,-0.20906861116532235
1761468097591447600,9.963447509765626,-0.18245909238755703,-0.5451341744109988,-0.24144604582004248
