time,seconds_elapsed,z,y,x
1761468087693214200,0.065214111328125,0.13666118681430817,-0.2417447715997696,0.05408836528658867
1761468087703168300,0.075168212890625,0.12445779889822006,-0.17095687985420227,0.12006711214780807
1761468087713123300,0.085123291015625,0.10393933951854706,-0.08369819819927216,0.17886964976787567
1761468087723077400,0.095077392578125,0.07556335628032684,0.0007085555698722601,0.21574483811855316
1761468087733031200,0.10503125,0.05487911030650139,0.04279647767543793,0.20536796748638153
1761468087742985200,0.114985107421875,0.0411025770008564,0.04961363598704338,0.154433935880661
1761468087752939300,0.124939208984375,0.04360859468579292,0.03758913278579712,0.0743747279047966
1761468087762894000,0.13489404296875,0.05874280631542206,0.022534552961587906,-0.009851200506091118
1761468087772848000,0.14484814453125,0.07865738123655319,0.003256238764151931,-0.06055056303739548
1761468087782802200,0.15480224609375,0.09376336634159088,-0.0077130552381277084,-0.06803644448518753
1761468087792756200,0.164756103515625,0.10706797242164612,-0.013214224018156528,-0.04691825062036514
1761468087802711300,0.174711181640625,0.1207297220826149,-0.012151090428233147,-0.015504400245845318
1761468087812665300,0.184665283203125,0.11700600385665894,-0.005753010511398315,0.02678750269114971
1761468087822619100,0.194619140625,0.0969550684094429,0.0016316687688231468,0.07695160061120987
1761468087832573200,0.2045732421875,0.06164952367544174,0.01215980015695095,0.11770421266555786
1761468087842528000,0.214528076171875,0.03811463713645935,0.03436576947569847,0.12545640766620636
1761468087852482300,0.224482421875,0.033767782151699066,0.049336567521095276,0.10089817643165588
1761468087862436400,0.234436279296875,0.04107789322733879,0.043612636625766754,0.05901836231350899
1761468087872390100,0.24439013671875,0.051564399152994156,0.020836032927036285,0.016318917274475098
1761468087882345200,0.25434521484375,0.05989077314734459,0.0066416505724191666,-0.019376493990421295
1761468087892299300,0.26429931640625,0.06276103109121323,-0.006319383159279823,-0.04238536208868027
1761468087902253000,0.274253173828125,0.05765894427895546,-0.020877819508314133,-0.05050534009933472
1761468087912207000,0.28420703125,0.04867863655090332,-0.040803201496601105,-0.05219313129782677
1761468087922161200,0.2941611328125,0.036800406873226166,-0.05172216147184372,-0.04565160721540451
1761468087932116200,0.3041162109375,0.026463810354471207,-0.03888387978076935,-0.029227644205093384
1761468087942070300,0.3140703125,0.01764235645532608,-0.012652544304728508,-0.013520852662622929
1761468087952024300,0.3240244140625,0.009123534895479679,0.002159466501325369,-0.002004773123189807
1761468087961978000,0.33397802734375,0.0068723647855222225,0.007704700343310833,0.005745025351643562
1761468087971933200,0.34393310546875,0.006089395843446255,0.021584829315543175,0.022616682574152946
1761468087981887000,0.353886962890625,-0.0032897251658141613,0.016108037903904915,0.037942640483379364
1761468087991841300,0.36384130859375,-0.009105858393013477,-0.003926881123334169,0.046355608850717545
1761468088001795300,0.37379541015625,-0.009890958666801453,-0.007139718160033226,0.05517280474305153
1761468088011750100,0.383750244140625,-0.002949415473267436,0.0066308313980698586,0.0637563169002533
1761468088021704200,0.3937041015625,0.0049878694117069244,0.031612079590559006,0.06352275609970093
1761468088031658200,0.403658203125,0.006283988710492849,0.048286233097314835,0.06060882657766342
1761468088041612000,0.413612060546875,0.009305078536272049,0.03684210032224655,0.057310767471790314
1761468088051566000,0.423566162109375,0.005265736021101475,0.015352725051343441,0.05751390755176544
1761468088061521400,0.433521484375,0.003802595427259803,-0.002245975425466895,0.05724998936057091
1761468088071475200,0.44347509765625,0.007609864231199026,-0.01971244066953659,0.049525897949934006
1761468088081429200,0.45342919921875,0.010240268893539906,-0.04316903278231621,0.03257834166288376
1761468088091383300,0.46338330078125,0.009400881826877594,-0.0676596462726593,0.009972444735467434
1761468088101338000,0.473338134765625,-0.00033669982803985476,-0.09861835837364197,-0.011946702376008034
1761468088111292200,0.483292236328125,-0.019103029742836952,-0.1371956169605255,-0.02382071129977703
1761468088121246200,0.49324609375,-0.027975350618362427,-0.13449837267398834,-0.012364591471850872
1761468088131200300,0.5032001953125,-0.03133450821042061,-0.10803427547216415,0.017476126551628113
1761468088141155300,0.5131552734375,-0.03555694594979286,-0.03987705707550049,0.057205960154533386
1761468088151109000,0.523109130859375,-0.038480162620544434,0.03426635265350342,0.08740534633398056
1761468088161063200,0.533063232421875,-0.04032892733812332,0.07640022784471512,0.09441877901554108
1761468088171017200,0.543017333984375,-0.040211692452430725,0.08703631907701492,0.07552547752857208
1761468088180972000,0.552971923828125,-0.03781457990407944,0.08533801883459091,0.052006836980581284
1761468088190926300,0.56292626953125,-0.030324524268507957,0.06509143859148026,0.03810177743434906
1761468088200880400,0.57288037109375,-0.028624096885323524,0.034401435405015945,0.03256027400493622
1761468088210834200,0.582834228515625,-0.027969196438789368,0.001064190873876214,0.030143389478325844
1761468088220788200,0.592788330078125,-0.022160576656460762,-0.027851346880197525,0.0241539403796196
1761468088230743300,0.602743408203125,-0.018341658636927605,-0.03944244608283043,0.015709897503256798
1761468088240697000,0.612697021484375,-0.018270021304488182,-0.043331727385520935,0.002046283334493637
1761468088250651100,0.622651123046875,-0.023930836468935013,-0.051094576716423035,-0.016087446361780167
1761468088260605200,0.632605224609375,-0.02968566119670868,-0.042062465101480484,-0.02514219470322132
1761468088270560300,0.642560302734375,-0.033933375030756,-0.023895161226391792,-0.02213679440319538
1761468088280514300,0.652514404296875,-0.04100726172327995,-0.009931141510605812,-0.007350125350058079
1761468088290468000,0.662468017578125,-0.050346292555332184,0.0013605996500700712,0.010424815118312836
1761468088300422100,0.672422119140625,-0.05381612852215767,0.003954518586397171,0.03024033084511757
1761468088310377500,0.68237744140625,-0.056552302092313766,0.0029359625186771154,0.04948975890874863
1761468088320331300,0.692331298828125,-0.04809090495109558,0.005986880045384169,0.058812420815229416
1761468088330285300,0.702285400390625,-0.031175894662737846,0.015027287416160107,0.058064382523298264
1761468088340239400,0.7122392578125,-0.011894342489540577,0.021292373538017273,0.05408402159810066
1761468088350193200,0.722193115234375,0.0061978986486792564,0.031305551528930664,0.04680129885673523
1761468088360148200,0.732148193359375,0.01648835279047489,0.042870327830314636,0.04385504499077797
1761468088370102300,0.742102294921875,0.018910076469182968,0.04664501175284386,0.04129885882139206
1761468088380056000,0.75205615234375,0.01668500527739525,0.04076927900314331,0.03192479908466339
1761468088390010400,0.76201025390625,0.013852552510797977,0.01977609284222126,0.015447001904249191
1761468088399965200,0.771965087890625,0.015528746880590916,-0.002364096464589238,-0.008079363033175468
1761468088409919200,0.781919189453125,0.02756120078265667,-0.013001540675759315,-0.03888731822371483
1761468088419873300,0.791873291015625,0.03658638894557953,-0.012903536669909954,-0.06921007484197617
1761468088429827300,0.801827392578125,0.039591092616319656,-0.01942848414182663,-0.09913914650678635
1761468088439782100,0.8117822265625,0.031106259673833847,-0.024889029562473297,-0.1165705993771553
1761468088449736400,0.821736328125,0.01621190272271633,-0.03801046684384346,-0.11171383410692215
1761468088459690200,0.831690185546875,0.003696376457810402,-0.050561148673295975,-0.09725046902894974
1761468088469644300,0.841644287109375,-0.000721681397408247,-0.04453594982624054,-0.07773184031248093
1761468088479598300,0.851598388671875,0.009336546063423157,-0.024210438132286072,-0.06804299354553223
1761468088489553200,0.86155322265625,0.019826246425509453,0.0025600057560950518,-0.05304399132728577
1761468088499507200,0.871507080078125,0.02462153509259224,0.049749355763196945,-0.026148192584514618
1761468088509461200,0.881461181640625,0.02471296489238739,0.08092696219682693,-0.0020252985414117575
1761468088519415000,0.8914150390625,0.02658916264772415,0.0842127725481987,0.006387627217918634
1761468088529370400,0.901370361328125,0.027184700593352318,0.07378645241260529,0.012121904641389847
1761468088539324200,0.91132421875,0.032588254660367966,0.059220828115940094,0.015236737206578255
1761468088549278200,0.9212783203125,0.037092290818691254,0.034122172743082047,0.010748017579317093
1761468088559232300,0.931232177734375,0.040946681052446365,0.000440109841292724,0.0030011488124728203
1761468088569187000,0.94118701171875,0.041390564292669296,-0.017026519402861595,-0.0007089178543537855
1761468088579141000,0.95114111328125,0.04309258982539177,-0.02506047859787941,-0.0006378113757818937
1761468088589095400,0.961095458984375,0.04483237490057945,-0.029240082949399948,-0.0029486806597560644
1761468088599049200,0.97104931640625,0.0465591698884964,-0.01625610701739788,-0.0010059045162051916
1761468088609003300,0.981003173828125,0.04744010418653488,-0.003307634498924017,0.007091090083122253
1761468088618958300,0.990958251953125,0.04893839731812477,-0.00010465073864907026,0.013366295956075191
1761468088628912000,1.000912109375,0.05386362969875336,0.004818406421691179,0.013342004269361496
1761468088638866200,1.0108662109375,0.06006985902786255,0.01398820336908102,0.007600228302180767
1761468088648820200,1.0208203125,0.06693441420793533,0.010222189128398895,-0.002715309616178274
1761468088658775300,1.030775390625,0.07611539214849472,0.0023416290059685707,-0.009138854220509529
1761468088668729300,1.040729248046875,0.0832018107175827,0.00008314504520967603,-0.0031436679419130087
1761468088678683400,1.050683349609375,0.08569292724132538,-0.009522611275315285,0.004029023461043835
1761468088688637200,1.06063720703125,0.08285229653120041,-0.014517739415168762,0.0032859044149518013
1761468088698592300,1.07059228515625,0.08050205558538437,-0.014888451434671879,0.0021093199029564857
1761468088708546000,1.080546142578125,0.08094694465398788,-0.01224434096366167,-0.0027849185280501842
1761468088718500000,1.0905,0.07687204331159592,-0.010288515128195286,-0.002616606652736664
1761468088728454400,1.100454345703125,0.07122965902090073,0.0011321433121338487,0.00004651281051337719
1761468088738408400,1.110408447265625,0.07070155441761017,0.010718191973865032,0.006647690199315548
1761468088748363300,1.12036328125,0.06857433915138245,0.017671046778559685,0.01621071621775627
1761468088758317300,1.1303173828125,0.0696617066860199,0.026750296354293823,0.02239697240293026
1761468088768271000,1.14027099609375,0.06182997673749924,0.036321062594652176,0.017427675426006317
1761468088778225200,1.15022509765625,0.054053276777267456,0.04303276166319847,0.00498778373003006
1761468088788180200,1.16018017578125,0.03922881931066513,0.0459100604057312,-0.006935432553291321
1761468088798134300,1.17013427734375,0.025107407942414284,0.032816629856824875,-0.01829887367784977
1761468088808088300,1.18008837890625,0.01712452434003353,0.005431199446320534,-0.02635560929775238
1761468088818042400,1.19004248046875,0.009431716986000538,-0.02263292483985424,-0.03187527507543564
1761468088827997200,1.1999970703125,0.007663224823772907,-0.03905565291643143,-0.03365221992135048
1761468088837951200,1.209951171875,0.008088798262178898,-0.03060651198029518,-0.0321643128991127
1761468088847905300,1.2199052734375,0.016635891050100327,-0.007482856046408415,-0.025247061625123024
1761468088857859000,1.229859130859375,0.02543950267136097,0.006877174600958824,-0.012614889070391655
1761468088867813400,1.2398134765625,0.02561824396252632,0.014579917304217815,0.00017235823906958103
1761468088877768200,1.249768310546875,0.026432106271386147,0.0213741734623909,0.015637867152690887
1761468088887722200,1.25972216796875,0.02940828539431095,0.011368000879883766,0.03379622474312782
1761468088897676300,1.26967626953125,0.02958378754556179,-0.011981530115008354,0.04230262711644173
1761468088907630000,1.279630126953125,0.0315830260515213,-0.0217601228505373,0.04167145490646362
1761468088917585200,1.289585205078125,0.028879648074507713,-0.018524914979934692,0.035561367869377136
1761468088927539500,1.29953955078125,0.030396416783332825,-0.010438451543450356,0.02731412835419178
1761468088937493200,1.3094931640625,0.03018363006412983,0.0027724248357117176,0.026259249076247215
1761468088947447300,1.319447265625,0.03063974715769291,0.008928875438869,0.03205244243144989
1761468088957402000,1.329402099609375,0.032718073576688766,0.008220474235713482,0.03495901823043823
1761468088967356200,1.339356201171875,0.03136471286416054,-0.003965392243117094,0.03329396992921829
1761468088977310200,1.349310302734375,0.023528896272182465,-0.01334850862622261,0.031382352113723755
1761468088987264300,1.35926416015625,0.01562652550637722,-0.01521562971174717,0.02670639380812645
1761468088997218000,1.369218017578125,0.014037417247891426,-0.004848476964980364,0.028469141572713852
1761468089007173400,1.37917333984375,0.011152162216603756,0.00694246543571353,0.030914248898625374
1761468089017127200,1.389127197265625,0.008702320046722889,0.004663598723709583,0.029181063175201416
1761468089027081200,1.399081298828125,0.0010720985010266304,-0.008634017780423164,0.014073035679757595
1761468089037035300,1.40903515625,-0.0059623755514621735,-0.01775561086833477,-0.004097446333616972
1761468089046990000,1.418989990234375,-0.01542104035615921,-0.02405400574207306,-0.026736197993159294
1761468089056944000,1.428944091796875,-0.02793443389236927,-0.03488268703222275,-0.042947396636009216
1761468089066898400,1.4388984375,-0.04270920529961586,-0.05172814428806305,-0.05479862168431282
1761468089076852200,1.448852294921875,-0.04952210560441017,-0.04723326116800308,-0.05056978762149811
1761468089086806300,1.45880615234375,-0.04839963838458061,-0.02948165312409401,-0.033893831074237823
1761468089096761300,1.46876123046875,-0.045342329889535904,-0.015339735895395279,-0.011392248794436455
1761468089106715100,1.478715087890625,-0.04061441868543625,-0.0010314505780115724,0.011633355170488358
1761468089116669200,1.488669189453125,-0.034822311252355576,0.011513636447489262,0.027393143624067307
1761468089126623200,1.498623291015625,-0.030712252482771873,0.011200714856386185,0.02970822900533676
1761468089136578300,1.508578369140625,-0.024330521002411842,-0.0036916821263730526,0.02187693864107132
1761468089146532400,1.518532470703125,-0.024200066924095154,-0.007617530412971973,0.014843182638287544
1761468089156486400,1.528486328125,-0.02002103440463543,0.006854086648672819,0.015134532935917377
1761468089166440200,1.538440185546875,-0.0193193182349205,0.019362933933734894,0.0145222507417202
1761468089176394200,1.548394287109375,-0.021946527063846588,0.02198987640440464,0.011889182031154633
1761468089186349000,1.55834912109375,-0.02805417962372303,0.023587776347994804,0.00479291845113039
1761468089196303400,1.568303466796875,-0.034289173781871796,0.013270690105855465,-0.010542095638811588
1761468089206257400,1.57825732421875,-0.03378217667341232,-0.00853476207703352,-0.03036455251276493
1761468089216211200,1.588211181640625,-0.03464610502123833,-0.03240866959095001,-0.04769933596253395
1761468089226166300,1.598166259765625,-0.03552043437957764,-0.049883145838975906,-0.05369905009865761
1761468089236120300,1.608120361328125,-0.03458353504538536,-0.06637983024120331,-0.05123509094119072
1761468089246074000,1.61807421875,-0.03163784369826317,-0.06693575531244278,-0.043131742626428604
1761468089256028200,1.628028076171875,-0.025832416489720345,-0.061547115445137024,-0.03251824527978897
1761468089265982200,1.637982177734375,-0.01889610104262829,-0.05323706939816475,-0.023007914423942566
1761468089275937500,1.6479375,-0.00876996386796236,-0.04347924515604973,-0.01105405017733574
1761468089285891600,1.6578916015625,-0.00003985560033470392,-0.028817029669880867,-0.004700100049376488
1761468089295845600,1.667845703125,0.002616647630929947,-0.02546916902065277,-0.006567775271832943
1761468089305799400,1.67779931640625,0.003971635829657316,-0.03241037204861641,-0.017991075292229652
1761468089315754500,1.68775439453125,-0.0025216834619641304,-0.0351417101919651,-0.02363085001707077
1761468089325708300,1.697708251953125,-0.012480461969971657,-0.03454604372382164,-0.018750689923763275
1761468089335662300,1.707662353515625,-0.024069473147392273,-0.027036992833018303,-0.00921178050339222
1761468089345616400,1.717616455078125,-0.023841198533773422,-0.01589735969901085,-0.0030653048306703568
1761468089355571500,1.727571533203125,-0.02846205048263073,-0.02306685596704483,-0.004651749972254038
1761468089365525500,1.737525390625,-0.034617986530065536,-0.0315057747066021,-0.008164625614881516
1761468089375479600,1.7474794921875,-0.041221294552087784,-0.03584885969758034,-0.016094453632831573
1761468089385433300,1.757433349609375,-0.05305885151028633,-0.03701542690396309,-0.022000916302204132
1761468089395387400,1.767387451171875,-0.06552031636238098,-0.02540537714958191,-0.022491734474897385
1761468089405342500,1.777342529296875,-0.07955552637577057,-0.014036054722964764,-0.018477799370884895
1761468089415296500,1.787296630859375,-0.08774181455373764,-0.004505932331085205,-0.01186090987175703
1761468089425250600,1.79725048828125,-0.0843719020485878,-0.004334570374339819,-0.005319259595125914
1761468089435204600,1.80720458984375,-0.0847170501947403,-0.010633211582899094,0.0047118025831878185
1761468089445159400,1.817159423828125,-0.08383166044950485,-0.022015562281012535,0.012651481665670872
1761468089455113500,1.827113525390625,-0.0903441533446312,-0.04017405956983566,0.009530790150165558
1761468089465067300,1.8370673828125,-0.09590605646371841,-0.04858280345797539,0.006734120659530163
1761468089475021300,1.847021240234375,-0.09766028076410294,-0.03721723333001137,-0.00814096536487341
1761468089484975400,1.856975341796875,-0.10026799142360687,-0.03195611760020256,-0.024711374193429947
1761468089494930400,1.866930419921875,-0.10509417206048965,-0.03306186571717262,-0.0387696698307991
1761468089504884500,1.876884521484375,-0.10848580300807953,-0.027617869898676872,-0.047128573060035706
1761468089514838500,1.886838623046875,-0.11162673681974411,-0.01514868438243866,-0.049841538071632385
1761468089524792300,1.896792236328125,-0.12035322934389114,-0.006618925370275974,-0.04035384580492973
1761468089534747400,1.906747314453125,-0.13079655170440674,-0.013284018263220787,-0.025510184466838837
1761468089544701400,1.916701416015625,-0.14602097868919373,-0.009132767096161842,-0.014123384840786457
1761468089554655500,1.926655517578125,-0.1648378074169159,-0.006757226772606373,-0.00424092635512352
1761468089564609500,1.936609619140625,-0.1853717714548111,-0.02215738780796528,-0.0017449096776545048
1761468089574563600,1.9465634765625,-0.20975646376609802,-0.036327533423900604,0.0009659221395850182
1761468089584518400,1.956518310546875,-0.23251445591449738,-0.04575049504637718,-0.003376791952177882
1761468089594472400,1.966472412109375,-0.240894615650177,-0.04238186404109001,-0.016388731077313423
1761468089604426500,1.976426513671875,-0.23362910747528076,-0.03724929317831993,-0.04416272044181824
1761468089614380300,1.98638037109375,-0.21759767830371857,-0.029754092916846275,-0.08146614581346512
1761468089624335600,1.996335693359375,-0.19240564107894897,-0.024976853281259537,-0.11901000142097473
1761468089634289400,2.006289306640625,-0.16736313700675964,-0.03493174910545349,-0.1482594907283783
1761468089644243500,2.016243408203125,-0.14767378568649292,-0.044272538274526596,-0.15614700317382812
1761468089654197500,2.026197509765625,-0.1362951546907425,-0.049508579075336456,-0.14026790857315063
1761468089664151600,2.036151611328125,-0.12640206515789032,-0.051637452095746994,-0.11600857228040695
1761468089674106400,2.0461064453125,-0.12080331146717072,-0.04344157502055168,-0.09133757650852203
1761468089684060700,2.056060791015625,-0.11344578862190247,-0.030062464997172356,-0.0756058394908905
1761468089694014500,2.066014404296875,-0.10633301734924316,-0.010126574896275997,-0.07607695460319519
1761468089703968500,2.075968505859375,-0.10176757723093033,0.00934639573097229,-0.09788909554481506
1761468089713923300,2.08592333984375,-0.09500900655984879,0.025869980454444885,-0.12547412514686584
1761468089723877400,2.09587744140625,-0.0818682461977005,0.04097452759742737,-0.14279410243034363
1761468089733831400,2.10583154296875,-0.05464513972401619,0.04647288843989372,-0.14450038969516754
1761468089743785500,2.115785400390625,-0.016309764236211777,0.0383283905684948,-0.1295667290687561
1761468089753739300,2.1257392578125,0.020397650077939034,0.014556747861206532,-0.10013613104820251
1761468089763694600,2.135694580078125,0.055420391261577606,-0.017691917717456818,-0.0637865737080574
1761468089773648400,2.1456484375,0.0873226597905159,-0.045833807438611984,-0.03031196817755699
1761468089783602400,2.1556025390625,0.1074904203414917,-0.055421844124794006,-0.00602965522557497
1761468089793556500,2.165556396484375,0.11866877228021622,-0.04159071668982506,0.007022763602435589
1761468089803511300,2.17551123046875,0.12368535995483398,-0.027400780469179153,0.009807184338569641
1761468089813465300,2.18546533203125,0.12170690298080444,-0.026613816618919373,0.005732281133532524
1761468089823419600,2.195419677734375,0.11877111345529556,-0.024468393996357918,0.010898527689278126
1761468089833373400,2.20537353515625,0.11412443220615387,-0.027342211455106735,0.023208457976579666
1761468089843328500,2.21532861328125,0.10722651332616806,-0.03705433011054993,0.04209336265921593
1761468089853282600,2.225282470703125,0.10314814746379852,-0.04596766456961632,0.06476990878582001
1761468089863236400,2.235236328125,0.09792410582304001,-0.049801141023635864,0.08779947459697723
1761468089873190400,2.2451904296875,0.1003853976726532,-0.051856569945812225,0.10288655012845993
1761468089883144400,2.25514453125,0.09844563901424408,-0.054554373025894165,0.10631242394447327
1761468089893099500,2.265099609375,0.0925493985414505,-0.06289592385292053,0.104128897190094
1761468089903053600,2.275053466796875,0.08073277026414871,-0.06617863476276398,0.09497923403978348
1761468089913007600,2.285007568359375,0.057928651571273804,-0.05462797358632088,0.08572634309530258
1761468089922961400,2.29496142578125,0.039195165038108826,-0.017843207344412804,0.07928135246038437
1761468089932916500,2.30491650390625,0.02785382606089115,0.020856782793998718,0.08164224773645401
1761468089942870300,2.314870361328125,0.026857860386371613,0.04930596053600311,0.08301319926977158
1761468089952824300,2.32482421875,0.029263759031891823,0.07525154203176498,0.08885005116462708
1761468089962778600,2.334778564453125,0.031693559139966965,0.09789185225963593,0.08536449074745178
1761468089972732400,2.344732421875,0.03712081536650658,0.10639479011297226,0.07230620831251144
1761468089982687500,2.3546875,0.03451866656541824,0.10029716044664383,0.05070817470550537
1761468089992641500,2.3646416015625,0.027499640360474586,0.07328525185585022,0.023117292672395706
1761468090002595300,2.37459521484375,0.02402358502149582,0.025920886546373367,-0.007333328481763601
1761468090012549400,2.38454931640625,0.024977529421448708,-0.01344276499003172,-0.027721425518393517
1761468090022503400,2.39450341796875,0.027033966034650803,-0.0262179896235466,-0.031122323125600815
1761468090032458500,2.40445849609375,0.03013521619141102,-0.01574883610010147,-0.03231249004602432
1761468090042412500,2.41441259765625,0.03226447105407715,0.017327317968010902,-0.04319421201944351
1761468090052366600,2.42436669921875,0.037597451359033585,0.05136943981051445,-0.0643322542309761
1761468090062320400,2.4343203125,0.033191461116075516,0.07218155264854431,-0.08772435784339905
1761468090072275500,2.444275390625,0.02652903087437153,0.05904258042573929,-0.10953298211097717
1761468090082229200,2.454229248046875,0.02169879898428917,0.026915045455098152,-0.11225920915603638
1761468090092183300,2.464183349609375,0.019990647211670876,0.0010437669698148966,-0.09706774353981018
1761468090102137600,2.4741376953125,0.026217496022582054,-0.014354179613292217,-0.07182852178812027
1761468090112091600,2.484091552734375,0.03021862916648388,-0.01590253971517086,-0.04867233335971832
1761468090122046500,2.49404638671875,0.03218143805861473,-0.008117282763123512,-0.035517338663339615
1761468090132000500,2.50400048828125,0.03910538926720619,-0.008656040765345097,-0.03668247163295746
1761468090141954300,2.513954345703125,0.050128377974033356,-0.01144768763333559,-0.03796091303229332
1761468090151908400,2.523908447265625,0.06436111032962799,-0.018530098721385002,-0.041428349912166595
1761468090161863700,2.53386376953125,0.07338244467973709,-0.03461652994155884,-0.03743082284927368
1761468090171817500,2.5438173828125,0.08269897848367691,-0.052181676030159,-0.024524345993995667
1761468090181771500,2.553771484375,0.08224647492170334,-0.05698055028915405,-0.01148189790546894
1761468090191725600,2.5637255859375,0.07475394010543823,-0.05394188314676285,-0.006694599986076355
1761468090201679400,2.573679443359375,0.05966761335730553,-0.019424881786108017,0.0010475174058228731
1761468090211634400,2.583634521484375,0.04765276238322258,0.04275673255324364,0.015722867101430893
1761468090221588500,2.59358837890625,0.038204874843358994,0.07153427600860596,0.02835392765700817
1761468090231542300,2.603542236328125,0.04815817251801491,0.10311191529035568,0.0437999963760376
1761468090241496600,2.61349658203125,0.07115913927555084,0.12892308831214905,0.05990021675825119
1761468090251451400,2.623451416015625,0.09981821477413177,0.13793255388736725,0.08379010111093521
1761468090261405400,2.633405517578125,0.12719358503818512,0.14314360916614532,0.11414086073637009
1761468090271359500,2.643359375,0.15474292635917664,0.14075955748558044,0.14196477830410004
1761468090281313300,2.653313232421875,0.1794460415840149,0.11498090624809265,0.14743512868881226
1761468090291268000,2.66326806640625,0.19630677998065948,0.05353938043117523,0.11537519842386246
1761468090301222100,2.67322216796875,0.19743509590625763,-0.05185345560312271,0.048732951283454895
1761468090311176000,2.683176025390625,0.18579469621181488,-0.18588769435882568,-0.027097631245851517
1761468090321130000,2.6931298828125,0.16279061138629913,-0.31375381350517273,-0.08796581625938416
1761468090331084000,2.703083984375,0.1329275220632553,-0.42487767338752747,-0.1248396784067154
1761468090341039000,2.7130390625,0.10404493659734726,-0.4747953414916992,-0.12175057083368301
1761468090350993200,2.7229931640625,0.0768737643957138,-0.47888755798339844,-0.08339492976665497
1761468090360947200,2.732947265625,0.057019125670194626,-0.4302569627761841,-0.007407283876091242
1761468090370901000,2.74290087890625,0.03948087990283966,-0.24877850711345673,0.09965098649263382
1761468090380855000,2.75285498046875,0.050980858504772186,0.03081721067428589,0.21325160562992096
1761468090390810000,2.76281005859375,0.08495932817459106,0.2694612145423889,0.3039247691631317
1761468090400764200,2.77276416015625,0.14970280230045319,0.4323986768722534,0.3635540008544922
1761468090410718200,2.78271826171875,0.21872927248477936,0.552421510219574,0.4061238467693329
1761468090420672300,2.79267236328125,0.26896873116493225,0.5909495949745178,0.4270888864994049
1761468090430627000,2.802626953125,0.30016475915908813,0.5543758869171143,0.42496928572654724
1761468090440581000,2.8125810546875,0.31921645998954773,0.4783644378185272,0.419911652803421
1761468090450535200,2.82253515625,0.3235688805580139,0.36199069023132324,0.4062784016132355
1761468090460489000,2.832489013671875,0.3098951578140259,0.21641786396503448,0.3908931612968445
1761468090470444300,2.8424443359375,0.2776855528354645,0.07017117738723755,0.3708009421825409
1761468090480398000,2.852398193359375,0.23221096396446228,-0.04187362641096115,0.3398965299129486
1761468090490352000,2.86235205078125,0.18352943658828735,-0.10010204464197159,0.3028884530067444
1761468090500306200,2.87230615234375,0.14363263547420502,-0.11643940955400467,0.24908198416233063
1761468090510260200,2.88226025390625,0.1103132963180542,-0.09910435974597931,0.19128046929836273
1761468090520215000,2.892215087890625,0.09000564366579056,-0.06330867111682892,0.12881377339363098
1761468090530169000,2.902169189453125,0.0755516067147255,-0.030686015263199806,0.06160037964582443
1761468090540123100,2.912123046875,0.06508619338274002,-0.0026339979376643896,-0.0019243871793150902
1761468090550077200,2.9220771484375,0.06302809715270996,0.026439731940627098,-0.04177699238061905
1761468090560031200,2.93203125,0.0684073194861412,0.05003609508275986,-0.049981702119112015
1761468090569986000,2.941986083984375,0.07801733911037445,0.047433920204639435,-0.041804730892181396
1761468090579940000,2.951940185546875,0.09000026434659958,0.021772706881165504,-0.02988714724779129
1761468090589894100,2.96189404296875,0.10133041441440582,-0.01640823483467102,-0.013740137219429016
1761468090599848000,2.971847900390625,0.10949613898992538,-0.06862274557352066,-0.003638810943812132
1761468090609803300,2.98180322265625,0.11626482754945755,-0.13392424583435059,0.004431099630892277
1761468090619757000,2.991757080078125,0.12311029434204102,-0.17743194103240967,0.017655394971370697
1761468090629711000,3.001711181640625,0.1336100697517395,-0.19282475113868713,0.03529377654194832
1761468090639665200,3.0116650390625,0.1470402479171753,-0.19457732141017914,0.05052286013960838
1761468090649619200,3.021619140625,0.1576569378376007,-0.16575393080711365,0.06455931812524796
1761468090659574000,3.031573974609375,0.15670517086982727,-0.1197308748960495,0.07782202959060669
1761468090669528000,3.041528076171875,0.15127632021903992,-0.06691347062587738,0.07994509488344193
1761468090679482000,3.051482177734375,0.1400161236524582,-0.01824266090989113,0.07014486193656921
1761468090689436200,3.061436279296875,0.11981471627950668,0.006780668627470732,0.05329024791717529
1761468090699391200,3.07139111328125,0.09230294078588486,0.006196061614900827,0.02425137162208557
1761468090709345000,3.081344970703125,0.0627082958817482,-0.01221809908747673,-0.007747041992843151
1761468090719299000,3.091299072265625,0.024576695635914803,-0.036535587161779404,-0.038055311888456345
1761468090729253000,3.101253173828125,-0.01774945668876171,-0.056761499494314194,-0.06841055303812027
1761468090739207000,3.11120703125,-0.055738676339387894,-0.06654331088066101,-0.0922892764210701
1761468090749162200,3.121162353515625,-0.08631069958209991,-0.07984712719917297,-0.11214554309844971
1761468090759116300,3.1311162109375,-0.10289683192968369,-0.10071443021297455,-0.13027352094650269
1761468090769070000,3.141070068359375,-0.10820583999156952,-0.0977865532040596,-0.13247781991958618
1761468090779024100,3.151024169921875,-0.10929899662733078,-0.06852922588586807,-0.12363547831773758
1761468090788979000,3.16097900390625,-0.09385479241609573,-0.02520092763006687,-0.10285589098930359
1761468090798933000,3.17093310546875,-0.07566820830106735,0.027870342135429382,-0.08294737339019775
1761468090808887000,3.180886962890625,-0.04885762929916382,0.07270652055740356,-0.06606000661849976
1761468090818841300,3.19084130859375,-0.03548617660999298,0.0975765809416771,-0.061053141951560974
1761468090828795100,3.200795166015625,-0.027631450444459915,0.1137012168765068,-0.06903170049190521
1761468090838750200,3.210750244140625,-0.027901608496904373,0.12183379381895065,-0.08287206292152405
1761468090848704000,3.2207041015625,-0.027567649260163307,0.13801303505897522,-0.09332017600536346
1761468090858658000,3.230657958984375,-0.0290287546813488,0.16549113392829895,-0.09497785568237305
1761468090868612000,3.240612060546875,-0.02915099449455738,0.19703415036201477,-0.09235783666372299
1761468090878567200,3.250567138671875,-0.02335517294704914,0.22111403942108154,-0.09252949804067612
1761468090888521200,3.260521240234375,-0.006673930212855339,0.2338639348745346,-0.09377346187829971
1761468090898475300,3.270475341796875,0.014557644724845886,0.2429247498512268,-0.09576687216758728
1761468090908429000,3.280428955078125,0.0375569723546505,0.22203652560710907,-0.1082693487405777
1761468090918383000,3.290383056640625,0.05620264261960983,0.17991958558559418,-0.12957154214382172
1761468090928338200,3.300338134765625,0.06398332864046097,0.13171078264713287,-0.15060704946517944
1761468090938292000,3.3102919921875,0.0632261112332344,0.07533656060695648,-0.1661054790019989
1761468090948246300,3.320246337890625,0.06055230274796486,0.006495176814496517,-0.17731419205665588
1761468090958200300,3.330200439453125,0.059521447867155075,-0.05421188846230507,-0.18660254776477814
1761468090968155100,3.340155029296875,0.05829878896474838,-0.105282261967659,-0.20036816596984863
1761468090978109200,3.350109130859375,0.06221994757652283,-0.12971265614032745,-0.2212754637002945
1761468090988063000,3.36006298828125,0.07453813403844833,-0.12348034232854843,-0.23227724432945251
1761468090998017000,3.37001708984375,0.0839541107416153,-0.11750774830579758,-0.2299201786518097
1761468091007971000,3.37997119140625,0.08750490099191666,-0.10917631536722183,-0.22716008126735687
1761468091017926100,3.389926025390625,0.07903911173343658,-0.1057223230600357,-0.2165842354297638
1761468091027880200,3.399880126953125,0.06938621401786804,-0.12012256681919098,-0.20006650686264038
1761468091037834200,3.409834228515625,0.054954491555690765,-0.14637978374958038,-0.1786148101091385
1761468091047788000,3.4197880859375,0.041712455451488495,-0.15945003926753998,-0.15572254359722137
1761468091057743000,3.4297431640625,0.03254272788763046,-0.14883270859718323,-0.1350400596857071
1761468091067697200,3.439697265625,0.02296733297407627,-0.13707353174686432,-0.129740908741951
1761468091077651000,3.44965087890625,0.004718357231467962,-0.11971661448478699,-0.1376078575849533
1761468091087605200,3.459605224609375,-0.018191751092672348,-0.10735289007425308,-0.1501670628786087
1761468091097559300,3.469559326171875,-0.03949233144521713,-0.09888260811567307,-0.15994635224342346
1761468091107514000,3.47951416015625,-0.057073988020420074,-0.09479252249002457,-0.15841396152973175
1761468091117468200,3.48946826171875,-0.0748378187417984,-0.0962936282157898,-0.14354941248893738
1761468091127422200,3.499422119140625,-0.09091372042894363,-0.09824172407388687,-0.11755749583244324
1761468091137376000,3.5093759765625,-0.10504396259784698,-0.09640155732631683,-0.08492665737867355
1761468091147331300,3.519331298828125,-0.11755043268203735,-0.09741569310426712,-0.06017923355102539
1761468091157285000,3.52928515625,-0.13067162036895752,-0.08972204476594925,-0.04420528933405876
1761468091167239200,3.5392392578125,-0.1456226110458374,-0.07292149215936661,-0.027023371309041977
1761468091177193200,3.549193115234375,-0.160944402217865,-0.0371851921081543,-0.013951902277767658
1761468091187147300,3.559147216796875,-0.17165803909301758,0.007515966426581144,-0.00547799002379179
1761468091197102000,3.56910205078125,-0.1772916465997696,0.05115114524960518,-0.008039337582886219
1761468091207056100,3.57905615234375,-0.17943255603313446,0.09365998953580856,-0.011036991141736507
1761468091217010000,3.589010009765625,-0.17506764829158783,0.13392505049705505,-0.008302517235279083
1761468091226964200,3.598964111328125,-0.1656741499900818,0.1499788612127304,-0.008559245616197586
1761468091236919000,3.6089189453125,-0.16207097470760345,0.14088605344295502,-0.009636741131544113
1761468091246873000,3.618873046875,-0.1592024862766266,0.09914632141590118,-0.012303629890084267
1761468091256827100,3.6288271484375,-0.16237293183803558,0.035395000129938126,-0.021721940487623215
1761468091266781200,3.63878125,-0.1631721407175064,-0.03197978064417839,-0.03198390081524849
1761468091276735000,3.64873486328125,-0.1625562459230423,-0.06539209932088852,-0.03431020677089691
1761468091286690000,3.65868994140625,-0.16133466362953186,-0.07360049337148666,-0.026948697865009308
1761468091296644000,3.66864404296875,-0.15495817363262177,-0.06782367080450058,-0.024386310949921608
1761468091306598100,3.67859814453125,-0.1533445566892624,-0.06032421067357063,-0.028158413246273994
1761468091316552200,3.68855224609375,-0.15840177237987518,-0.05103078484535217,-0.03611880540847778
1761468091326507000,3.698507080078125,-0.16281649470329285,-0.04233556240797043,-0.052021339535713196
1761468091336461000,3.7084609375,-0.1665823608636856,-0.04335635155439377,-0.0722789317369461
1761468091346415000,3.7184150390625,-0.17373694479465485,-0.055129121989011765,-0.09253573417663574
1761468091356369000,3.728368896484375,-0.1786966770887375,-0.06637606024742126,-0.1071486547589302
1761468091366323000,3.738322998046875,-0.18570052087306976,-0.07597169280052185,-0.1149517148733139
1761468091376278300,3.7482783203125,-0.18304048478603363,-0.08107633888721466,-0.10920371115207672
1761468091386232000,3.758232177734375,-0.180079847574234,-0.08879391103982925,-0.0946282297372818
1761468091396186000,3.76818603515625,-0.17651385068893433,-0.11110719293355942,-0.08004367351531982
1761468091406140200,3.77814013671875,-0.17876289784908295,-0.1455591768026352,-0.07226431369781494
1761468091416094000,3.788093994140625,-0.18396957218647003,-0.16712594032287598,-0.07414525747299194
1761468091426049000,3.798049072265625,-0.19384297728538513,-0.1534671187400818,-0.07238277792930603
1761468091436003000,3.808003173828125,-0.20823752880096436,-0.1448260396718979,-0.07739493250846863
1761468091445957000,3.81795703125,-0.21723048388957977,-0.13484637439250946,-0.08252471685409546
1761468091455911200,3.8279111328125,-0.23272164165973663,-0.12411142885684967,-0.08193054050207138
1761468091465866000,3.837865966796875,-0.2361222356557846,-0.09600575268268585,-0.06107213348150253
1761468091475820000,3.847820068359375,-0.2335217446088791,-0.03844478353857994,-0.020323969423770905
1761468091485774000,3.857774169921875,-0.2176263928413391,0.02817711979150772,0.03879474475979805
1761468091495728000,3.86772802734375,-0.1893359273672104,0.08975452929735184,0.09794281423091888
1761468091505683200,3.87768310546875,-0.14916400611400604,0.13141675293445587,0.14708879590034485
1761468091515637200,3.88763720703125,-0.10331233590841293,0.14663273096084595,0.18327797949314117
1761468091525591000,3.897591064453125,-0.06546109169721603,0.144758403301239,0.20495983958244324
1761468091535545000,3.907545166015625,-0.03847874328494072,0.13434544205665588,0.22095930576324463
1761468091545499100,3.9174990234375,-0.019454721361398697,0.1088467389345169,0.2277650088071823
1761468091555454000,3.927453857421875,-0.014035427011549473,0.0688910111784935,0.2196042239665985
1761468091565408000,3.937407958984375,-0.009822039864957333,0.0327276848256588,0.21433542668819427
1761468091575362000,3.947362060546875,-0.0011030178284272552,0.0034037381410598755,0.21315789222717285
1761468091585316000,3.957316162109375,0.005792172625660896,-0.020681090652942657,0.201191246509552
1761468091595270100,3.967270263671875,0.013301446102559566,-0.03275187313556671,0.19296981394290924
1761468091605225000,3.977224853515625,0.017776088789105415,-0.035713840276002884,0.1957261860370636
1761468091615179000,3.987178955078125,0.026895930990576744,-0.029507236555218697,0.20797975361347198
1761468091628243000,4.000242919921875,0.04323548823595047,-0.015071307308971882,0.2373110055923462
1761468091638197200,4.010197265625,0.055558860301971436,0.0011496166698634624,0.2600734829902649
1761468091648152000,4.020152099609375,0.06401465833187103,0.013497363775968552,0.274598628282547
1761468091658106000,4.030106201171875,0.06433400511741638,0.021902505308389664,0.278242826461792
1761468091668060200,4.04006005859375,0.062359005212783813,0.014179338701069355,0.2667944133281708
1761468091678014000,4.050013916015625,0.05093258619308472,-0.00422316649928689,0.24232177436351776
1761468091687968000,4.059968017578125,0.03012690506875515,-0.029935454949736595,0.21324165165424347
1761468091697923000,4.069923095703125,0.010873624123632908,-0.06382463127374649,0.18477760255336761
1761468091707877000,4.079877197265625,-0.003055240958929062,-0.08824129402637482,0.17060212790966034
1761468091717831200,4.0898310546875,-0.015320836566388607,-0.0954567939043045,0.1674886792898178
1761468091727785200,4.09978515625,-0.02528984658420086,-0.09015896916389465,0.16620025038719177
1761468091737740000,4.109739990234375,-0.04156745225191116,-0.058857012540102005,0.17394734919071198
1761468091747694000,4.119694091796875,-0.06132571026682854,-0.008655896410346031,0.17889443039894104
1761468091757648000,4.12964794921875,-0.07621268182992935,0.027726389467716217,0.17098674178123474
1761468091767602000,4.139601806640625,-0.08946137875318527,0.046060655266046524,0.14812563359737396
1761468091777556200,4.14955615234375,-0.1011781170964241,0.045948658138513565,0.10921831429004669
1761468091787511000,4.159510986328125,-0.11714909225702286,0.03737460821866989,0.07273168116807938
1761468091797465000,4.169465087890625,-0.1337684839963913,0.031082196161150932,0.04500854015350342
1761468091807419100,4.179419189453125,-0.14671571552753448,0.03382232412695885,0.029093222692608833
1761468091817373000,4.189373046875,-0.15884634852409363,0.037343841046094894,0.0202651284635067
1761468091827328000,4.199327880859375,-0.17156000435352325,0.03996465727686882,0.0028344711754471064
1761468091837282300,4.2092822265625,-0.17772944271564484,0.04506024718284607,-0.019282115623354912
1761468091847236000,4.219236083984375,-0.17605723440647125,0.05216662585735321,-0.04802294820547104
1761468091857190100,4.229190185546875,-0.1619832068681717,0.059824034571647644,-0.07606574892997742
1761468091867144200,4.239144287109375,-0.13740037381649017,0.06064828485250473,-0.10107682645320892
1761468091877099000,4.24909912109375,-0.10905952006578445,0.06701231747865677,-0.10942462831735611
1761468091887053000,4.259052978515625,-0.08076396584510803,0.08764329552650452,-0.1013837456703186
1761468091897007000,4.269007080078125,-0.06076201796531677,0.11783801019191742,-0.08857707679271698
1761468091906961000,4.2789609375,-0.05377920717000961,0.13464868068695068,-0.09055020660161972
1761468091916916200,4.288916259765625,-0.058835387229919434,0.13085804879665375,-0.1084609106183052
1761468091926870000,4.2988701171875,-0.07460449635982513,0.11611772328615189,-0.14160847663879395
1761468091936824000,4.308823974609375,-0.08903457224369049,0.10118024051189423,-0.1804257333278656
1761468091947401000,4.31940087890625,-0.10198818892240524,0.06871577352285385,-0.21692968904972076
1761468091957356000,4.32935595703125,-0.10200145840644836,0.009867536835372448,-0.24196669459342957
1761468091967310000,4.33931005859375,-0.09878569096326828,-0.04902054741978645,-0.24190065264701843
1761468091977264000,4.34926416015625,-0.08331750333309174,-0.08164998888969421,-0.22498250007629395
1761468091987218200,4.35921826171875,-0.06514116376638412,-0.08500397205352783,-0.20096105337142944
1761468091997172200,4.369172119140625,-0.03679067641496658,-0.06096484512090683,-0.18023358285427094
1761468092007127000,4.379126953125,-0.010856816545128822,-0.022547416388988495,-0.16869063675403595
1761468092017081000,4.3890810546875,-0.007351886481046677,0.008284307084977627,-0.1729457974433899
1761468092027035000,4.399034912109375,-0.02740682102739811,0.015939297154545784,-0.18175846338272095
1761468092036989000,4.408989013671875,-0.05262073129415512,0.009301676414906979,-0.19508115947246552
1761468092046944300,4.4189443359375,-0.07683446258306503,-0.0008292539278045297,-0.20264185965061188
1761468092056898000,4.42889794921875,-0.1028565838932991,-0.014623361639678478,-0.20052438974380493
1761468092066852000,4.43885205078125,-0.12475363165140152,-0.028656356036663055,-0.1957157850265503
1761468092076806100,4.44880615234375,-0.13345541059970856,-0.04377926141023636,-0.18865454196929932
1761468092086760000,4.458760009765625,-0.1303645372390747,-0.053864385932683945,-0.18482252955436707
1761468092096715000,4.468715087890625,-0.12506356835365295,-0.048774633556604385,-0.1734256148338318
1761468092106669300,4.47866943359375,-0.11893642693758011,-0.03002065420150757,-0.15182630717754364
1761468092116623000,4.488623046875,-0.11285409331321716,-0.033393774181604385,-0.1352803111076355
1761468092126577200,4.4985771484375,-0.11452043056488037,-0.006907837465405464,-0.11912718415260315
1761468092136532000,4.508531982421875,-0.1164063960313797,0.015842460095882416,-0.10001315921545029
1761468092146486000,4.518486083984375,-0.11822826415300369,0.015252570621669292,-0.08692851662635803
1761468092156440000,4.528440185546875,-0.1231037825345993,0.008100203238427639,-0.0768720731139183
1761468092166394000,4.53839404296875,-0.12396025657653809,0.01066402904689312,-0.0766286626458168
1761468092176348000,4.548347900390625,-0.12407996505498886,0.016458019614219666,-0.0797828882932663
1761468092186303200,4.55830322265625,-0.12153611332178116,0.03188624605536461,-0.08636701852083206
1761468092196257000,4.568257080078125,-0.11984877288341522,0.06042531505227089,-0.08852993696928024
1761468092206211000,4.578211181640625,-0.11949697136878967,0.08261211216449738,-0.09241655468940735
1761468092216165000,4.5881650390625,-0.11722583323717117,0.08223414421081543,-0.09202459454536438
1761468092226120000,4.598119873046875,-0.11327077448368073,0.06755933165550232,-0.08019030839204788
1761468092236074000,4.608073974609375,-0.10027729719877243,0.04978479817509651,-0.05634043738245964
1761468092246028300,4.6180283203125,-0.07747664302587509,0.030865702778100967,-0.014553307555615902
1761468092255982000,4.627982177734375,-0.04721219092607498,0.021565431728959084,0.03423502668738365
1761468092265936100,4.63793603515625,-0.012265924364328384,0.02658868581056595,0.07927574217319489
1761468092275891500,4.647891357421875,0.024644382297992706,0.042239200323820114,0.10140945017337799
1761468092285845500,4.657845458984375,0.059959229081869125,0.06442572921514511,0.09956148266792297
1761468092295799600,4.667799560546875,0.09646639227867126,0.08193855732679367,0.08603277057409286
1761468092305753300,4.67775341796875,0.1305479258298874,0.10055964440107346,0.08314377069473267
1761468092315708700,4.687708740234375,0.1623145341873169,0.12410624325275421,0.10873381793498993
1761468092325662700,4.697662841796875,0.19095443189144135,0.1469002515077591,0.1563572734594345
1761468092335616500,4.707616455078125,0.21300917863845825,0.1500280797481537,0.21182820200920105
1761468092345570600,4.717570556640625,0.22799000144004822,0.14095309376716614,0.25394129753112793
1761468092355524600,4.727524658203125,0.23684029281139374,0.12295270711183548,0.2675883173942566
1761468092365479400,4.7374794921875,0.23894739151000977,0.09117400646209717,0.24605108797550201
1761468092375433700,4.747433837890625,0.23099248111248016,0.035756923258304596,0.2021969109773636
1761468092385387800,4.7573876953125,0.21041209995746613,-0.033275142312049866,0.15049855411052704
1761468092395341600,4.767341552734375,0.1792604923248291,-0.08615130931138992,0.11269216239452362
1761468092405296600,4.777296630859375,0.14254029095172882,-0.12115669250488281,0.09493181109428406
1761468092415250400,4.78725048828125,0.10129819065332413,-0.14887714385986328,0.08617572486400604
1761468092425204500,4.79720458984375,0.06050069257616997,-0.1378474086523056,0.08652779459953308
1761468092435158500,4.807158447265625,0.027467429637908936,-0.09874104708433151,0.08635731041431427
1761468092445113600,4.817113525390625,0.007281467318534851,-0.021449986845254898,0.10255119204521179
1761468092455067600,4.827067626953125,-0.01049785129725933,0.07347291707992554,0.13180693984031677
1761468092465021700,4.837021728515625,-0.0030180965550243855,0.15000444650650024,0.17780053615570068
1761468092474975500,4.8469755859375,0.013376252725720406,0.2334616780281067,0.23465731739997864
1761468092484929500,4.856929443359375,0.04516693949699402,0.3042714297771454,0.29262369871139526
1761468092494884600,4.866884521484375,0.08226964622735977,0.3176758885383606,0.32940351963043213
1761468092504838400,4.87683837890625,0.10930286347866058,0.2950989305973053,0.34609249234199524
1761468092514792700,4.886792724609375,0.12360178679227829,0.2286049872636795,0.33446043729782104
1761468092524746800,4.896746826171875,0.12826630473136902,0.13318632543087006,0.3015866279602051
1761468092534701600,4.90670166015625,0.12659284472465515,0.04051320627331734,0.25344932079315186
1761468092544655600,4.916655517578125,0.12034401297569275,-0.028345752507448196,0.2053137570619583
1761468092554609700,4.926609619140625,0.11719349026679993,-0.07111630588769913,0.16391818225383759
1761468092564563500,4.9365634765625,0.10579116642475128,-0.09375689923763275,0.13231737911701202
1761468092574517500,4.946517578125,0.09760960191488266,-0.08756017684936523,0.11940672248601913
1761468092584472600,4.95647265625,0.0896102637052536,-0.06783227622509003,0.10907525569200516
1761468092594426600,4.966426513671875,0.08621884882450104,-0.04848640039563179,0.08907853066921234
1761468092604380700,4.976380615234375,0.08923088759183884,-0.019919205456972122,0.06900149583816528
1761468092614334500,4.98633447265625,0.09306305646896362,-0.012041183188557625,0.05030275881290436
1761468092624289500,4.99628955078125,0.0941392332315445,-0.021264776587486267,0.03853185474872589
1761468092634243600,5.00624365234375,0.0964614525437355,-0.035295598208904266,0.034146200865507126
1761468092644197400,5.016197265625,0.10239950567483902,-0.052968334406614304,0.04091968387365341
1761468092654151700,5.026151611328125,0.1157476007938385,-0.06611306220293045,0.04730285331606865
1761468092664105700,5.036105712890625,0.13168928027153015,-0.06801296770572662,0.06155768781900406
1761468092674060500,5.046060546875,0.14867591857910156,-0.050398919731378555,0.07758688926696777
1761468092684014600,5.0560146484375,0.1735149472951889,-0.021513739600777626,0.08471297472715378
1761468092693968600,5.06596875,0.19930173456668854,0.009304380975663662,0.08508370816707611
1761468092703922400,5.07592236328125,0.22538979351520538,0.04127669706940651,0.07621431350708008
1761468092713877800,5.085877685546875,0.24632124602794647,0.06363803148269653,0.06135424226522446
1761468092723831600,5.09583154296875,0.26123175024986267,0.0594632551074028,0.04782165586948395
1761468092733785600,5.10578564453125,0.2650374472141266,0.029282471165060997,0.03730751946568489
1761468092743739600,5.11573974609375,0.2654520869255066,-0.009605271741747856,0.03584304824471474
1761468092753693700,5.125693603515625,0.2626985013484955,-0.052851706743240356,0.038967031985521317
1761468092763648500,5.1356484375,0.2640244960784912,-0.08598915487527847,0.05005297064781189
1761468092773602600,5.1456025390625,0.26270851492881775,-0.11000590771436691,0.05942613631486893
1761468092783556600,5.155556640625,0.25941231846809387,-0.13105127215385437,0.06123655289411545
1761468092793510700,5.1655107421875,0.2569599151611328,-0.14582036435604095,0.04458380863070488
1761468092803465700,5.1754658203125,0.24843379855155945,-0.15579363703727722,0.01678094081580639
1761468092813419500,5.18541943359375,0.24205926060676575,-0.16029764711856842,-0.010055286809802055
1761468092823373600,5.19537353515625,0.23445327579975128,-0.16728845238685608,-0.020525770261883736
1761468092833327600,5.20532763671875,0.23064368963241577,-0.17438514530658722,-0.007396550849080086
1761468092843281400,5.215281494140625,0.22657251358032227,-0.17532284557819366,0.018420398235321045
1761468092853236700,5.22523681640625,0.22210164368152618,-0.17114977538585663,0.04204573482275009
1761468092863190500,5.2351904296875,0.2109869420528412,-0.16597551107406616,0.06630633026361465
1761468092873144600,5.24514453125,0.19134560227394104,-0.14298081398010254,0.08224713057279587
1761468092883098600,5.2550986328125,0.16521865129470825,-0.11436593532562256,0.08749329298734665
1761468092893053400,5.265053466796875,0.13349048793315887,-0.09416280686855316,0.08566755801439285
1761468092903007500,5.275007568359375,0.10285641252994537,-0.06219635158777237,0.08447792381048203
1761468092912961500,5.28496142578125,0.07585685700178146,-0.0296719241887331,0.07723788917064667
1761468092922915600,5.29491552734375,0.05798012390732765,-0.0012959431624040008,0.06422674655914307
1761468092932869600,5.30486962890625,0.04462774470448494,0.015227846801280975,0.05574078857898712
1761468092942824700,5.31482470703125,0.03679592162370682,0.022674046456813812,0.048413634300231934
1761468092952778500,5.324778564453125,0.0272187739610672,0.014884484000504017,0.04022805765271187
1761468092962732500,5.334732666015625,0.020525451749563217,0.007931503467261791,0.033899854868650436
1761468092972686600,5.3446865234375,0.013579199090600014,0.007372421678155661,0.031283751130104065
1761468092982641700,5.3546416015625,0.009008948691189289,0.013593299314379692,0.03168455883860588
1761468092992595700,5.364595703125,0.005144449882209301,0.025349168106913567,0.034053850919008255
1761468093002549800,5.3745498046875,0.0027097882702946663,0.04143412783741951,0.04232456162571907
1761468093012503600,5.384503662109375,0.006255633197724819,0.051629237830638885,0.04632330313324928
1761468093022457600,5.39445751953125,0.020147213712334633,0.04997914284467697,0.04794277250766754
1761468093032412400,5.404412353515625,0.033457525074481964,0.04863642156124115,0.03670959547162056
1761468093042366500,5.414366455078125,0.0378730446100235,0.036987755447626114,0.014296166598796844
1761468093052320500,5.424320556640625,0.06035340204834938,0.008304424583911896,-0.010901883244514465
1761468093062274800,5.43427490234375,0.0817393884062767,-0.0024408979807049036,-0.031480129808187485
1761468093072229600,5.444229736328125,0.09437083452939987,0.0034549105912446976,-0.036529116332530975
1761468093082183700,5.45418359375,0.1055569052696228,0.011508043855428696,-0.035558391362428665
1761468093092137500,5.464137451171875,0.11258097738027573,0.007220210507512093,-0.03793460875749588
1761468093102091500,5.474091552734375,0.12164904177188873,-0.012297830544412136,-0.053373754024505615
1761468093112045600,5.484045654296875,0.12556327879428864,-0.03537414222955704,-0.07117673754692078
1761468093122000600,5.494000732421875,0.12435899674892426,-0.06391604244709015,-0.08505500108003616
1761468093131954700,5.50395458984375,0.11672399938106537,-0.11361562460660934,-0.09731720387935638
1761468093141908700,5.51390869140625,0.10744848102331161,-0.13147665560245514,-0.09525351971387863
1761468093151862500,5.523862548828125,0.1002609133720398,-0.12136046588420868,-0.08152821660041809
1761468093161817600,5.533817626953125,0.08812382817268372,-0.10742787271738052,-0.0662083774805069
1761468093171771600,5.543771728515625,0.07952193170785904,-0.07892121374607086,-0.05733934044837952
1761468093181725400,5.553725341796875,0.06816568225622177,-0.035475730895996094,-0.06008666008710861
1761468093191679500,5.563679443359375,0.06477107107639313,0.007304203696548939,-0.057565201073884964
1761468093201634600,5.573634521484375,0.055546946823596954,0.050025567412376404,-0.0485522635281086
1761468093211588600,5.583588623046875,0.044049687683582306,0.08203038573265076,-0.035727523267269135
1761468093221542700,5.593542724609375,0.023348934948444366,0.09305188059806824,-0.019554411992430687
1761468093231496400,5.603496337890625,-0.0037983888760209084,0.0998319685459137,0.004086675122380257
1761468093241450500,5.613450439453125,-0.0382373221218586,0.10559451580047607,0.030686326324939728
1761468093251405600,5.623405517578125,-0.06916718184947968,0.09494324773550034,0.04598809406161308
1761468093261359600,5.633359619140625,-0.08878722041845322,0.07892566174268723,0.04844352602958679
1761468093271313700,5.643313720703125,-0.09378566592931747,0.06255510449409485,0.037975337356328964
1761468093281267200,5.65326708984375,-0.09271001070737839,0.05102201923727989,0.021852029487490654
1761468093291222000,5.663221923828125,-0.08417310565710068,0.031266096979379654,0.00316456682048738
1761468093301176000,5.673176025390625,-0.07666778564453125,0.009485699236392975,-0.012990433722734451
1761468093311130000,5.683130126953125,-0.07760275155305862,-0.011477882973849773,-0.023252910003066063
1761468093321084000,5.693083984375,-0.08454721421003342,-0.037152886390686035,-0.030497239902615547
1761468093331038200,5.7030380859375,-0.09554029256105423,-0.05370672792196274,-0.03420771658420563
1761468093340993300,5.7129931640625,-0.10966809839010239,-0.06689949333667755,-0.03518989309668541
1761468093350947000,5.722947021484375,-0.12194503098726273,-0.0763034000992775,-0.03193739429116249
1761468093360901000,5.732901123046875,-0.13122960925102234,-0.08043822646141052,-0.02657405287027359
1761468093370855200,5.742855224609375,-0.14014120399951935,-0.07624700665473938,-0.014794686809182167
1761468093380810000,5.75281005859375,-0.1425151526927948,-0.06853929162025452,0.00007667043246328831
1761468093390764300,5.762764404296875,-0.1443532556295395,-0.05427992343902588,0.0044421241618692875
1761468093400718300,5.77271826171875,-0.14247733354568481,-0.02521791122853756,0.008034994825720787
1761468093410672000,5.782672119140625,-0.14310820400714874,-0.0008551074424758554,0.011219538748264313
1761468093420627200,5.792627197265625,-0.147121861577034,0.009192733094096184,0.008907116018235683
1761468093430581000,5.8025810546875,-0.14626720547676086,0.01775895431637764,0.005214010830968618
1761468093440535000,5.81253515625,-0.14963610470294952,0.01704256422817707,0.0033242315985262394
1761468093450489000,5.822489013671875,-0.1568044126033783,-0.01048966683447361,0.003182612592354417
1761468093460443100,5.832443115234375,-0.1705513894557953,-0.05046504735946655,0.007850601337850094
1761468093470398200,5.842398193359375,-0.18128451704978943,-0.0671367198228836,0.01839750073850155
1761468093480352300,5.852352294921875,-0.19380083680152893,-0.07284680753946304,0.026374734938144684
1761468093490306000,5.86230615234375,-0.2046619951725006,-0.0638887882232666,0.02907591313123703
1761468093500260000,5.872260009765625,-0.22229264676570892,-0.04690581187605858,0.02408435009419918
1761468093510215200,5.882215087890625,-0.24150751531124115,-0.03450271114706993,0.005321536213159561
1761468093520169000,5.8921689453125,-0.26195740699768066,-0.020806076005101204,-0.018540652468800545
1761468093530123300,5.902123291015625,-0.284878134727478,-0.018099218606948853,-0.03522187098860741
1761468093540077300,5.912077392578125,-0.30998802185058594,-0.02181006595492363,-0.04112689942121506
1761468093550031000,5.922031005859375,-0.3352019786834717,-0.03108809143304825,-0.03870858624577522
1761468093559986200,5.931986083984375,-0.3593219518661499,-0.06396135687828064,-0.03297586366534233
1761468093569940000,5.94193994140625,-0.3785301446914673,-0.10685434937477112,-0.02514495700597763
1761468093579894000,5.95189404296875,-0.39487582445144653,-0.13339994847774506,-0.005634905770421028
1761468093589848000,5.96184814453125,-0.404018759727478,-0.1512032002210617,0.019832348451018333
1761468093599803100,5.97180322265625,-0.4074814021587372,-0.15271294116973877,0.05369763821363449
1761468093609757200,5.981757080078125,-0.4027288556098938,-0.13253764808177948,0.09205858409404755
1761468093619711200,5.991711181640625,-0.3968379497528076,-0.11845698207616806,0.11856821924448013
1761468093629665000,6.0016650390625,-0.3868771195411682,-0.09285636246204376,0.13767153024673462
1761468093639620000,6.0116201171875,-0.37272295355796814,-0.05513002350926399,0.15968015789985657
1761468093649574100,6.02157421875,-0.35797086358070374,-0.022946154698729515,0.1785580813884735
1761468093659528000,6.03152783203125,-0.33634865283966064,-0.004313080105930567,0.20114141702651978
1761468093669482200,6.041482177734375,-0.31229379773139954,0.010702130384743214,0.21112698316574097
1761468093679436300,6.051436279296875,-0.29066652059555054,0.017618359997868538,0.2162807285785675
1761468093689391000,6.06139111328125,-0.2737967073917389,0.015174416825175285,0.2212158739566803
1761468093699345200,6.07134521484375,-0.254028856754303,0.009822261519730091,0.23043973743915558
1761468093709299200,6.08129931640625,-0.22993378341197968,0.0027998764999210835,0.2346380352973938
1761468093719253000,6.0912529296875,-0.20549635589122772,-0.00027421038248576224,0.23403030633926392
1761468093729208300,6.101208251953125,-0.18648703396320343,-0.007495250552892685,0.22013911604881287
1761468093739162000,6.111162109375,-0.17177067697048187,-0.02624923177063465,0.2003350555896759
1761468093749116200,6.1211162109375,-0.16564230620861053,-0.05753936618566513,0.17802216112613678
1761468093759070200,6.1310703125,-0.15953487157821655,-0.09206885099411011,0.15495066344738007
1761468093769025000,6.14102490234375,-0.1427588164806366,-0.1094624251127243,0.14085647463798523
1761468093778979000,6.15097900390625,-0.11866679042577744,-0.10845974087715149,0.14218352735042572
1761468093788933000,6.16093310546875,-0.0877717137336731,-0.09330613166093826,0.15385906398296356
1761468093798887000,6.170886962890625,-0.06259285658597946,-0.05555795133113861,0.16276627779006958
1761468093808841200,6.18084130859375,-0.03703811392188072,-0.008890132419764996,0.16124258935451508
1761468093818796000,6.190796142578125,-0.019859129562973976,0.04576272889971733,0.15089142322540283
1761468093828750000,6.20075,-0.00714744022116065,0.08932333439588547,0.14154328405857086
1761468093838704000,6.2107041015625,-0.0032720081508159637,0.08981282263994217,0.12970952689647675
1761468093848658200,6.220658203125,-0.005487996153533459,0.041678790003061295,0.1213388741016388
1761468093858613000,6.230613037109375,-0.00465149711817503,-0.030507521703839302,0.13118618726730347
1761468093868567300,6.2405673828125,-0.004554348066449165,-0.08744187653064728,0.15322467684745789
1761468093878521000,6.25052099609375,0.0004832874401472509,-0.11204762011766434,0.18346326053142548
1761468093888475100,6.26047509765625,0.004341857507824898,-0.1037244126200676,0.20894494652748108
1761468093898430200,6.27043017578125,0.006766665726900101,-0.06235354021191597,0.2359427511692047
1761468093908384000,6.280384033203125,0.011034547351300716,-0.0035133545752614737,0.2624090313911438
1761468093918338000,6.290338134765625,0.041085124015808105,0.06743964552879333,0.28642168641090393
1761468093928292000,6.3002919921875,0.1095789223909378,0.13141155242919922,0.3304683566093445
1761468093938246000,6.310245849609375,0.18808437883853912,0.24560630321502686,0.3985680341720581
1761468093948201200,6.320201171875,0.2590135931968689,0.3716548979282379,0.49527981877326965
1761468093958155300,6.3301552734375,0.2892862558364868,0.42903271317481995,0.5609727501869202
1761468093968109000,6.340109130859375,0.282283216714859,0.42789649963378906,0.5816142559051514
1761468093978063000,6.35006298828125,0.24697211384773254,0.37348997592926025,0.5533336400985718
1761468093988018000,6.360017822265625,0.17900478839874268,0.29570889472961426,0.4721682071685791
1761468093997972000,6.369971923828125,0.10901372134685516,0.21254315972328186,0.35408976674079895
1761468094007926300,6.37992626953125,0.032311033457517624,0.1038757860660553,0.20523211359977722
1761468094017880300,6.38988037109375,-0.04008327051997185,0.0076198275201022625,0.05684371292591095
1761468094027835100,6.399835205078125,-0.09316838532686234,-0.07189154624938965,-0.0752057135105133
1761468094037789200,6.4097890625,-0.13208089768886566,-0.14259447157382965,-0.17435839772224426
1761468094047743000,6.419742919921875,-0.15755972266197205,-0.1965096890926361,-0.23213544487953186
1761468094057697000,6.429697021484375,-0.1850869506597519,-0.25160035490989685,-0.2527238130569458
1761468094067651000,6.439651123046875,-0.21006666123867035,-0.2739020586013794,-0.22940154373645782
1761468094077606100,6.449606201171875,-0.22609037160873413,-0.23388804495334625,-0.1725933849811554
1761468094087560200,6.459560302734375,-0.21514753997325897,-0.1263439953327179,-0.10824554413557053
1761468094097514200,6.46951416015625,-0.17565445601940155,0.03170902281999588,-0.06053900718688965
1761468094107468000,6.479468017578125,-0.09805693477392197,0.22039760649204254,-0.04225650802254677
1761468094117423000,6.489423095703125,0.013311930932104588,0.3758106529712677,-0.053075067698955536
1761468094127377200,6.499377197265625,0.1067589819431305,0.473888635635376,-0.06619443744421005
1761468094137331000,6.5093310546875,0.1601247489452362,0.5465034246444702,-0.0665837898850441
1761468094147285200,6.51928515625,0.19797402620315552,0.5978690981864929,-0.061424754559993744
1761468094157239300,6.5292392578125,0.23681943118572235,0.6171703338623047,-0.03963397070765495
1761468094167194000,6.539194091796875,0.27033600211143494,0.6068999767303467,-0.0031600301153957844
1761468094177148200,6.549148193359375,0.29672977328300476,0.5843214392662048,0.035614263266325
1761468094187102000,6.55910205078125,0.31171634793281555,0.5435034036636353,0.06348975002765656
1761468094197056000,6.569055908203125,0.3123973309993744,0.4417104125022888,0.07377167791128159
1761468094207011300,6.57901123046875,0.3057481050491333,0.2923282980918884,0.06349074095487595
1761468094216965000,6.588965087890625,0.29995760321617126,0.12054935097694397,0.04407176747918129
1761468094226919200,6.598919189453125,0.2931455969810486,-0.048601940274238586,0.02803332917392254
1761468094236873200,6.608873291015625,0.27535808086395264,-0.19925110042095184,0.01589250937104225
1761468094246827000,6.618826904296875,0.2574376165866852,-0.31447604298591614,-0.01223643310368061
1761468094256782000,6.628781982421875,0.23433415591716766,-0.38546261191368103,-0.05116305872797966
1761468094266736000,6.638736083984375,0.2063160091638565,-0.42825281620025635,-0.09745291620492935
1761468094276690400,6.6486904296875,0.18352574110031128,-0.43342387676239014,-0.13988985121250153
1761468094286644500,6.65864453125,0.14686520397663116,-0.41656699776649475,-0.18216420710086823
1761468094296599300,6.668599365234375,0.09973498433828354,-0.3713667690753937,-0.22037683427333832
1761468094306553300,6.67855322265625,0.048936840146780014,-0.28206807374954224,-0.24602684378623962
1761468094316507400,6.68850732421875,0.0009045996121130884,-0.16304288804531097,-0.26348015666007996
1761468094326461400,6.69846142578125,-0.031286951154470444,-0.028096480295062065,-0.2667693495750427
1761468094336416500,6.70841650390625,-0.04286211356520653,0.08802480250597,-0.2670218050479889
1761468094346370600,6.71837060546875,-0.04450860619544983,0.14650775492191315,-0.27004513144493103
1761468094356324400,6.728324462890625,-0.03898387774825096,0.1600070595741272,-0.27063021063804626
1761468094366278400,6.7382783203125,-0.02167108841240406,0.15264305472373962,-0.25240761041641235
1761468094376233200,6.748233154296875,-0.0005218596197664738,0.12966664135456085,-0.23061682283878326
1761468094386187300,6.758187255859375,0.018628818914294243,0.10842020809650421,-0.21172569692134857
1761468094396141300,6.768141357421875,0.03672393411397934,0.09023827314376831,-0.20309093594551086
1761468094406095400,6.778095458984375,0.052937090396881104,0.0652499571442604,-0.19607417285442352
1761468094416049400,6.78804931640625,0.06781963258981705,0.035348787903785706,-0.20035786926746368
1761468094426004500,6.79800439453125,0.08147121965885162,0.011084907688200474,-0.20732371509075165
1761468094435958300,6.807958251953125,0.09892051666975021,0.007081377785652876,-0.21973644196987152
1761468094445912300,6.817912353515625,0.12274999171495438,0.0077365972101688385,-0.22593939304351807
1761468094455866400,6.827866455078125,0.1396283060312271,0.0271915215998888,-0.22463124990463257
1761468094465821200,6.8378212890625,0.13798552751541138,0.04560168832540512,-0.22051745653152466
1761468094475775500,6.847775390625,0.11780541390180588,0.04066312313079834,-0.2353757619857788
1761468094485729500,6.8577294921875,0.07842546701431274,0.01577584072947502,-0.27020543813705444
1761468094495683300,6.867683349609375,0.03637468069791794,-0.026152700185775757,-0.31669116020202637
1761468094505637400,6.877637451171875,-0.004236955661326647,-0.0841401219367981,-0.3548433780670166
1761468094515592400,6.887592529296875,-0.05334777757525444,-0.14469614624977112,-0.3886226415634155
1761468094525546200,6.897546142578125,-0.09407391399145126,-0.18537679314613342,-0.4209710657596588
1761468094535500300,6.907500244140625,-0.12760604918003082,-0.18507559597492218,-0.44490063190460205
1761468094545454300,6.917454345703125,-0.1441696435213089,-0.15351757407188416,-0.44867852330207825
1761468094555409400,6.927409423828125,-0.14488044381141663,-0.10597535967826843,-0.42638012766838074
1761468094565363500,6.937363525390625,-0.1321593075990677,-0.0692426860332489,-0.3899824917316437
1761468094575317500,6.9473173828125,-0.11714786291122437,-0.055070143193006516,-0.3514191210269928
1761468094585271300,6.957271240234375,-0.10232976824045181,-0.07088585942983627,-0.3040638566017151
1761468094595225300,6.967225341796875,-0.08631271868944168,-0.11792819947004318,-0.25505876541137695
1761468094605180200,6.97718017578125,-0.07478848099708557,-0.16453835368156433,-0.18829947710037231
1761468094615134500,6.987134521484375,-0.06742431223392487,-0.17452573776245117,-0.10064365714788437
1761468094625088500,6.997088623046875,-0.05757613480091095,-0.12180516868829727,-0.01292728167027235
1761468094635042300,7.007042236328125,-0.04055001214146614,-0.04513941705226898,0.0530376210808754
1761468094644997400,7.016997314453125,-0.008955796249210835,0.030383937060832977,0.07999184727668762
1761468094654951400,7.026951416015625,0.029645124450325966,0.08745387941598892,0.07879901677370071
1761468094664905200,7.0369052734375,0.05730750784277916,0.1200137510895729,0.05731908231973648
1761468094674859300,7.046859375,0.07516106963157654,0.13504941761493683,0.029466144740581512
1761468094684813300,7.056813232421875,0.08674726635217667,0.1543959528207779,-0.00004993216134607792
1761468094694768400,7.066768310546875,0.09944282472133636,0.1666978895664215,-0.026182467117905617
1761468094704722400,7.076722412109375,0.10908224433660507,0.15571492910385132,-0.04409097507596016
1761468094714676500,7.086676513671875,0.11337099969387054,0.13127776980400085,-0.05366983637213707
1761468094724630300,7.09663037109375,0.11753839254379272,0.10581660270690918,-0.06380212306976318
1761468094734585300,7.10658544921875,0.1252136379480362,0.06328511983156204,-0.07336313277482986
1761468094744539100,7.1165390625,0.1337675005197525,-0.0018754865741357207,-0.08121703565120697
1761468094754493400,7.126493408203125,0.14488807320594788,-0.05932892858982086,-0.0802559107542038
1761468094764447500,7.136447509765625,0.162612646818161,-0.10640693455934525,-0.07525606453418732
1761468094774402300,7.14640234375,0.18115730583667755,-0.14103734493255615,-0.07174175977706909
1761468094784356400,7.1563564453125,0.19772101938724518,-0.13967184722423553,-0.06978210806846619
1761468094794310400,7.166310302734375,0.2108762264251709,-0.12210164219141006,-0.07811354100704193
1761468094804264200,7.17626416015625,0.21503444015979767,-0.08551216125488281,-0.08348109573125839
1761468094814218200,7.18621826171875,0.21182532608509064,-0.049977339804172516,-0.08304406702518463
1761468094824173600,7.196173583984375,0.1978817880153656,-0.026148192584514618,-0.08243795484304428
1761468094834127400,7.20612744140625,0.17688728868961334,-0.022999536246061325,-0.08284701406955719
1761468094844081400,7.216081298828125,0.1546422690153122,-0.009276146069169044,-0.07742069661617279
1761468094854035500,7.226035400390625,0.13528507947921753,0.011880271136760712,-0.06210113689303398
1761468094863990300,7.235990234375,0.12137401103973389,0.02181914821267128,-0.04999951273202896
1761468094873944300,7.2459443359375,0.11661014705896378,0.016681645065546036,-0.036967065185308456
1761468094883898400,7.2558984375,0.11719217896461487,0.01107743103057146,-0.014149220660328865
1761468094893852400,7.265852294921875,0.13045312464237213,0.010885150171816349,0.013312764465808868
1761468094903806500,7.275806396484375,0.14400051534175873,0.02036467380821705,0.03857870399951935
1761468094913761300,7.28576123046875,0.1547498255968094,0.039305076003074646,0.05445913225412369
1761468094923715300,7.29571533203125,0.15576985478401184,0.06417516618967056,0.06360778957605362
1761468094933669400,7.30566943359375,0.1541099101305008,0.08670870214700699,0.06282801926136017
1761468094943623400,7.31562353515625,0.15003900229930878,0.08810339868068695,0.060141950845718384
1761468094953578500,7.32557861328125,0.1538105607032776,0.07393884658813477,0.05998509004712105
1761468094963532500,7.335532470703125,0.15693888068199158,0.049566272646188736,0.06857260316610336
1761468094973486300,7.345486328125,0.1609157919883728,0.01951170526444912,0.07837569713592529
1761468094983440400,7.3554404296875,0.16497154533863068,-0.009640691801905632,0.07953140139579773
1761468094993394400,7.36539453125,0.16676998138427734,-0.023964503780007362,0.06546325236558914
1761468095003349200,7.375349365234375,0.1760803461074829,-0.0207847710698843,0.050065044313669205
1761468095013303300,7.38530322265625,0.1805291622877121,-0.017326923087239265,0.03850239887833595
1761468095023257300,7.39525732421875,0.18472920358181,-0.019879050552845,0.02405339479446411
1761468095033211400,7.40521142578125,0.1877063512802124,-0.047040894627571106,0.014099031686782837
1761468095043166500,7.41516650390625,0.1816064715385437,-0.09458713233470917,0.015569876879453659
1761468095053120300,7.425120361328125,0.1693900227546692,-0.13767442107200623,0.033949147909879684
1761468095063074300,7.43507421875,0.1555415242910385,-0.11106619983911514,0.08155132830142975
1761468095073028400,7.4450283203125,0.1432473063468933,-0.009032509289681911,0.15415655076503754
1761468095082982400,7.454982421875,0.15474708378314972,0.12474831193685532,0.24444156885147095
1761468095092937500,7.4649375,0.17476233839988708,0.2511693835258484,0.3335477411746979
1761468095102891500,7.4748916015625,0.19886010885238647,0.34310221672058105,0.3831765353679657
1761468095112845300,7.48484521484375,0.21197697520256042,0.39734816551208496,0.38802802562713623
1761468095122799400,7.49479931640625,0.21952562034130096,0.39209142327308655,0.3636151850223541
1761468095132754400,7.50475439453125,0.2207898199558258,0.3195892870426178,0.32971900701522827
1761468095142708200,7.514708251953125,0.21863298118114471,0.2063736468553543,0.2932434380054474
1761468095152662300,7.524662353515625,0.2092759609222412,0.07518766820430756,0.2694648504257202
1761468095162616600,7.534616455078125,0.20144878327846527,-0.04945466294884682,0.2530187964439392
1761468095172570400,7.5445703125,0.19812409579753876,-0.142606720328331,0.235085591673851
1761468095182525400,7.554525390625,0.20655493438243866,-0.18803149461746216,0.21973749995231628
1761468095192479500,7.5644794921875,0.21238431334495544,-0.19258363544940948,0.20118138194084167
1761468095202433300,7.574433349609375,0.21432839334011078,-0.16677621006965637,0.18212254345417023
1761468095212387300,7.58438720703125,0.20697353780269623,-0.10545239597558975,0.166597381234169
1761468095222342400,7.59434228515625,0.1877380758523941,-0.03464048355817795,0.15203073620796204
1761468095232296400,7.60429638671875,0.16655875742435455,0.02438102848827839,0.13547518849372864
1761468095242250500,7.61425048828125,0.14556708931922913,0.05130714178085327,0.11807645857334137
1761468095252204500,7.62420458984375,0.12817025184631348,0.04126356169581413,0.10205861181020737
1761468095262158300,7.634158447265625,0.10672017931938171,0.004423502366989851,0.08002892136573792
1761468095272113400,7.644113525390625,0.0962640717625618,-0.03637239709496498,0.05184442177414894
1761468095282067200,7.654067138671875,0.08667725324630737,-0.05338260158896446,0.026274019852280617
1761468095292021200,7.664021240234375,0.07316303998231888,-0.05897124484181404,0.003614247078076005
1761468095301975600,7.6739755859375,0.05950981378555298,-0.052122924476861954,-0.0073848748579621315
1761468095311930400,7.683930419921875,0.04447546973824501,-0.02747989445924759,0.0005548077169805765
1761468095321884400,7.693884521484375,0.03281800076365471,0.00457597803324461,0.009918423369526863
1761468095331838500,7.70383837890625,0.019060909748077393,0.024239961057901382,0.021371880546212196
1761468095341792300,7.713792236328125,0.010089659132063389,0.03910797834396362,0.02841765806078911
1761468095351746300,7.723746337890625,0.007711456157267094,0.047842349857091904,0.030486933887004852
1761468095361701400,7.733701416015625,0.004446379840373993,0.046574339270591736,0.02306409180164337
1761468095371655400,7.743655517578125,-0.0018104510381817818,0.02058747597038746,0.017486900091171265
1761468095381609500,7.753609375,-0.016751360148191452,-0.0182992834597826,0.01815713755786419
1761468095391563500,7.7635634765625,-0.032897040247917175,-0.04338546097278595,0.021219240501523018
1761468095401518300,7.773518310546875,-0.052720461040735245,-0.051801953464746475,0.023274827748537064
1761468095411472400,7.783472412109375,-0.0705505907535553,-0.05940714105963707,0.01664622128009796
1761468095421426200,7.79342626953125,-0.08329849690198898,-0.06837932765483856,0.011801401153206825
1761468095431380200,7.803380126953125,-0.09869875758886337,-0.06295580416917801,0.006367486901581287
1761468095441334500,7.81333447265625,-0.10478895902633667,-0.05738479644060135,0.004824118688702583
1761468095451289300,7.823289306640625,-0.10329066216945648,-0.05239802971482277,0.006051037460565567
1761468095461243400,7.833243408203125,-0.10924071073532104,-0.038384005427360535,0.00428130803629756
1761468095471197400,7.843197509765625,-0.10689686983823776,-0.025731859728693962,0.006736475974321365
1761468095481151200,7.853151123046875,-0.11159650981426239,-0.01253216527402401,0.004113524220883846
1761468095491106300,7.863106201171875,-0.11528684943914413,-0.012506065890192986,-0.006411555223166943
1761468095501060600,7.873060546875,-0.11550608277320862,0.008822779171168804,-0.019607655704021454
1761468095511014400,7.883014404296875,-0.12008912116289139,0.044118717312812805,-0.03228617087006569
1761468095520968400,7.892968505859375,-0.12251207232475281,0.06007783114910126,-0.04866528511047363
1761468095530922500,7.902922607421875,-0.1318214237689972,0.06146454066038132,-0.06776680797338486
1761468095540877300,7.912877197265625,-0.14975756406784058,0.05846979841589928,-0.08421078324317932
1761468095550831400,7.922831298828125,-0.14909443259239197,0.045934565365314484,-0.09716439992189407
1761468095560785400,7.932785400390625,-0.1469278484582901,0.03098171576857567,-0.10159030556678772
1761468095570739200,7.9427392578125,-0.1255732923746109,0.02214108407497406,-0.10429847240447998
1761468095580694500,7.952694580078125,-0.10483340919017792,0.015545436181128025,-0.11314821243286133
1761468095590648300,7.9626484375,-0.09172718971967697,0.0119943767786026,-0.11503612995147705
1761468095600602400,7.972602294921875,-0.08958041667938232,0.0031851730309426785,-0.1150374561548233
1761468095610556400,7.982556396484375,-0.09078363329172134,-0.0010135667398571968,-0.11544571816921234
1761468095620510500,7.992510498046875,-0.08464983850717545,0.012641524896025658,-0.11002405732870102
1761468095639796200,8.011796142578126,-0.07376589626073837,0.04327039793133736,-0.11076270788908005
1761468095649750500,8.02175048828125,-0.076175257563591,0.053374167531728745,-0.12425267696380615
1761468095659704300,8.031704345703124,-0.08360742777585983,0.05837160721421242,-0.14395259320735931
1761468095669658400,8.041658447265625,-0.09504304081201553,0.05290786549448967,-0.16859056055545807
1761468095679613400,8.051613525390625,-0.10844043642282486,0.040982987731695175,-0.1817506104707718
1761468095689567200,8.061567138671874,-0.12269394099712372,0.034301914274692535,-0.1861885040998459
1761468095699521300,8.071521240234375,-0.12365590035915375,0.03617577627301216,-0.1804719716310501
1761468095709475300,8.081475341796875,-0.11241549998521805,0.04031246528029442,-0.1761384755373001
1761468095719430400,8.091430419921876,-0.09179161489009857,0.03744276612997055,-0.17726460099220276
1761468095729384400,8.101384521484375,-0.07399796694517136,0.025008998811244965,-0.18504609167575836
1761468095739338500,8.11133837890625,-0.06036058068275452,0.014425454661250114,-0.18994565308094025
1761468095749292300,8.121292236328125,-0.04491984099149704,0.020136870443820953,-0.1869724988937378
1761468095759246300,8.131246337890625,-0.029457734897732735,0.0247717946767807,-0.17628580331802368
1761468095769201200,8.141201171875,-0.007904772646725178,0.02759874053299427,-0.1592186689376831
1761468095779155200,8.1511552734375,0.00986020639538765,0.02632525935769081,-0.14409400522708893
1761468095789109500,8.161109619140625,0.02754918858408928,0.019439123570919037,-0.1330815702676773
1761468095799063600,8.1710634765625,0.04052462801337242,0.009929178282618523,-0.1256476789712906
1761468095809018400,8.181018310546875,0.04960281401872635,-0.027054939419031143,-0.12052296102046967
1761468095818972400,8.190972412109375,0.04521283134818077,-0.0601518452167511,-0.11831273883581161
1761468095828926200,8.20092626953125,0.03483981639146805,-0.08414746075868607,-0.12147417664527893
1761468095838880300,8.21088037109375,0.022814003750681877,-0.09929142147302628,-0.12460409104824066
1761468095848834300,8.220834228515624,0.0045777433551847935,-0.10292423516511917,-0.12927527725696564
1761468095858789400,8.230789306640625,-0.011989880353212357,-0.09355003386735916,-0.14405354857444763
1761468095868743400,8.240743408203125,-0.029743311926722527,-0.06578817963600159,-0.16038778424263
1761468095878697500,8.250697509765626,-0.04191362112760544,-0.02195635810494423,-0.17350313067436218
1761468095888651300,8.2606513671875,-0.0526387020945549,0.004514663480222225,-0.17251428961753845
1761468095898606300,8.2706064453125,-0.05601591244339943,-0.0006630935240536928,-0.1617594212293625
1761468095908560400,8.280560302734376,-0.060072705149650574,-0.022376112639904022,-0.1367608606815338
1761468095918514400,8.290514404296875,-0.05689676105976105,-0.04726747050881386,-0.10356362164020538
1761468095928468500,8.300468505859374,-0.055071163922548294,-0.06946811079978943,-0.06797979027032852
1761468095938422500,8.310422607421875,-0.05291342735290527,-0.06584479659795761,-0.036589570343494415
1761468095948999400,8.32099951171875,-0.04813651740550995,-0.07321935892105103,-0.01734689623117447
1761468095958953500,8.330953369140625,-0.04341334477066994,-0.05323850363492966,-0.010011527687311172
1761468095968907300,8.3409072265625,-0.03901513293385506,-0.006854493170976639,-0.0001261404249817133
1761468095978862300,8.3508623046875,-0.040827542543411255,0.02223701775074005,0.011217266321182251
1761468095988816400,8.36081640625,-0.03814840316772461,0.039174191653728485,0.02444731816649437
1761468095998770400,8.3707705078125,-0.04715954139828682,0.05001048743724823,0.03839152678847313
1761468096008724500,8.380724365234375,-0.05689099803566933,0.05120331794023514,0.045043036341667175
1761468096018679300,8.39067919921875,-0.0706530436873436,0.025433160364627838,0.049587905406951904
1761468096028633300,8.40063330078125,-0.08044308423995972,-0.00894851516932249,0.054402634501457214
1761468096038587400,8.41058740234375,-0.08649081736803055,-0.042175281792879105,0.05859914422035217
1761468096048541200,8.420541259765624,-0.09347469359636307,-0.06430215388536453,0.05166906863451004
1761468096058495200,8.4304951171875,-0.09870719164609909,-0.0751589685678482,0.03532588109374046
1761468096068450600,8.440450439453125,-0.11264964193105698,-0.07237782329320908,0.007560563273727894
1761468096078404400,8.450404296875,-0.13258768618106842,-0.06909588724374771,-0.02467155270278454
1761468096088358400,8.4603583984375,-0.164746955037117,-0.0714019238948822,-0.059008754789829254
1761468096098312400,8.4703125,-0.19711218774318695,-0.0828867182135582,-0.09047578275203705
1761468096108267300,8.480267333984376,-0.22295284271240234,-0.09701718389987946,-0.11791139841079712
1761468096118221300,8.49022119140625,-0.2504483461380005,-0.09968692064285278,-0.14461509883403778
1761468096128175400,8.50017529296875,-0.28468114137649536,-0.12226839363574982,-0.175700843334198
1761468096138129400,8.51012939453125,-0.3014819622039795,-0.13069604337215424,-0.19742165505886078
1761468096148084500,8.52008447265625,-0.3070636987686157,-0.14931978285312653,-0.1939784437417984
1761468096158038300,8.530038330078124,-0.31987589597702026,-0.16283626854419708,-0.1677190363407135
1761468096167992300,8.539992431640625,-0.3168279230594635,-0.16564004123210907,-0.125579833984375
1761468096177946400,8.5499462890625,-0.3069338798522949,-0.16896559298038483,-0.0797191932797432
1761468096187900400,8.559900390625,-0.30724841356277466,-0.15908420085906982,-0.03599141538143158
1761468096197855500,8.56985546875,-0.31399795413017273,-0.13247446715831757,-0.0025749169290065765
1761468096207809500,8.5798095703125,-0.3108240067958832,-0.08529070764780045,0.02616139128804207
1761468096217763300,8.589763427734376,-0.30251622200012207,-0.046134356409311295,0.03751114755868912
1761468096227717400,8.59971728515625,-0.29102522134780884,-0.02048039436340332,0.03818892315030098
1761468096237672400,8.60967236328125,-0.2805701494216919,-0.01930679939687252,0.029511483386158943
1761468096247626200,8.619626220703125,-0.2735849618911743,-0.050456732511520386,0.00948344636708498
1761468096257580300,8.629580322265625,-0.27802953124046326,-0.10370870679616928,-0.027171971276402473
1761468096267534300,8.639534423828126,-0.2926393747329712,-0.14744792878627777,-0.08312632143497467
1761468096277489400,8.649489501953125,-0.3137419819831848,-0.17060822248458862,-0.13945922255516052
1761468096287443500,8.659443359375,-0.33825957775115967,-0.15622448921203613,-0.16641387343406677
1761468096297397200,8.669397216796876,-0.3635298013687134,-0.11390586942434311,-0.15259478986263275
1761468096307351300,8.679351318359375,-0.3796999752521515,-0.07378827780485153,-0.11399386823177338
1761468096317305300,8.689305419921874,-0.38036128878593445,-0.05270441621541977,-0.08294419944286346
1761468096327260200,8.69926025390625,-0.3616581857204437,-0.0492582842707634,-0.06049428880214691
1761468096337214200,8.709214111328125,-0.33508703112602234,-0.041442956775426865,-0.043525662273168564
1761468096347168500,8.71916845703125,-0.3087235987186432,-0.041618190705776215,-0.035886652767658234
1761468096357122300,8.729122314453125,-0.28682297468185425,-0.04567193239927292,-0.04169275611639023
1761468096367077400,8.739077392578125,-0.2788081765174866,-0.03395695239305496,-0.04030311852693558
1761468096377031400,8.749031494140626,-0.27291974425315857,-0.020695453509688377,-0.023199213668704033
1761468096386985200,8.758985107421875,-0.2709466218948364,-0.0017963313730433583,0.014741776511073112
1761468096396939300,8.768939208984374,-0.26830869913101196,0.033040110021829605,0.06336940079927444
1761468096406894300,8.778894287109376,-0.2597216069698334,0.07315343618392944,0.09038743376731873
1761468096416848400,8.788848388671875,-0.23099257051944733,0.10044427216053009,0.0887153148651123
1761468096426802400,8.798802490234374,-0.1944209784269333,0.10648006200790405,0.07664374262094498
1761468096436756500,8.808756591796875,-0.1633334755897522,0.10547292977571487,0.07213269919157028
1761468096446711300,8.818711181640625,-0.13884198665618896,0.1023612916469574,0.07810457050800323
1761468096456665300,8.828665283203126,-0.11851315200328827,0.11465524137020111,0.10406026989221573
1761468096466619100,8.838619140625,-0.1099628135561943,0.10017909854650497,0.12212742120027542
1761468096476573200,8.8485732421875,-0.10355181246995926,0.07357116788625717,0.12199103832244873
1761468096486527500,8.858527587890626,-0.11036816984415054,0.022697599604725838,0.09231676906347275
1761468096496482300,8.868482421875,-0.11592073738574982,-0.028860336169600487,0.04598874971270561
1761468096506436400,8.878436279296874,-0.1170608326792717,-0.058691736310720444,0.008667475543916225
1761468096516390400,8.888390380859375,-0.1041828840970993,-0.05871324613690376,-0.004534814972430468
1761468096526344200,8.89834423828125,-0.0785137414932251,-0.05200634151697159,0.0008908428717404604
1761468096536299300,8.90829931640625,-0.05628998205065727,-0.045516710728406906,0.00790485180914402
1761468096546253600,8.918253662109375,-0.029902316629886627,-0.04343092069029808,0.02205182984471321
1761468096556207400,8.928207275390625,-0.01481400802731514,-0.04228109121322632,0.0404413640499115
1761468096566161400,8.938161376953126,-0.008516698144376278,-0.03159062936902046,0.07186587154865265
1761468096576116200,8.9481162109375,-0.011370569467544556,-0.02206585370004177,0.11133336275815964
1761468096586070300,8.9580703125,-0.015464913100004196,-0.029383689165115356,0.1578369438648224
1761468096596024300,8.9680244140625,-0.01115653570741415,-0.021774137392640114,0.21137697994709015
1761468096605978400,8.977978271484375,0.0043854061514139175,0.0029503838159143925,0.24621698260307312
1761468096615933400,8.987933349609374,0.02362484112381935,0.03409722074866295,0.24730284512043
1761468096625887500,8.997887451171875,0.04232155904173851,0.049606673419475555,0.22065739333629608
1761468096635841300,9.00784130859375,0.05410313233733177,0.062119677662849426,0.18599916994571686
1761468096645795300,9.01779541015625,0.04944899305701256,0.06505900621414185,0.1552516371011734
1761468096655749400,9.027749267578125,0.034075334668159485,0.03670545667409897,0.12886375188827515
1761468096665704200,9.0377041015625,0.014229192398488522,0.012931685894727707,0.11741749942302704
1761468096675658200,9.047658203125,-0.0020812014117836952,0.00782855600118637,0.12062050402164459
1761468096685612500,9.057612548828125,-0.01773499697446823,0.02033289521932602,0.13119085133075714
1761468096695566300,9.06756640625,-0.0316920205950737,0.05135083571076393,0.13637986779212952
1761468096705521400,9.077521484375,-0.05377575010061264,0.08529815077781677,0.12101902067661285
1761468096715475200,9.08747509765625,-0.07157645374536514,0.12805385887622833,0.08424073457717896
1761468096725429200,9.09742919921875,-0.0843585655093193,0.16310718655586243,0.05509510263800621
1761468096735383300,9.10738330078125,-0.09341498464345932,0.18289470672607422,0.033354904502630234
1761468096745338400,9.11733837890625,-0.08857867866754532,0.19104157388210297,0.0330214761197567
1761468096755292400,9.12729248046875,-0.08240809291601181,0.1907968372106552,0.05689910799264908
1761468096765246500,9.13724658203125,-0.07755447924137115,0.18957951664924622,0.09364327043294907
1761468096775200300,9.1472001953125,-0.06779744476079941,0.17371679842472076,0.11424216628074646
1761468096785155300,9.1571552734375,-0.05968332290649414,0.14446783065795898,0.1122535839676857
1761468096795109400,9.167109375,-0.049325212836265564,0.10138681530952454,0.08540134131908417
1761468096805063200,9.177063232421874,-0.033265817910432816,0.06297311931848526,0.054342228919267654
1761468096815017200,9.187017333984375,-0.011982747353613377,0.03878530487418175,0.01769135519862175
1761468096824971500,9.196971435546875,0.0014987066388130188,0.023058541119098663,-0.02178041823208332
1761468096834926300,9.20692626953125,0.008478866890072823,0.01813255250453949,-0.05038058012723923
1761468096844880400,9.21688037109375,0.012451237998902798,0.007104669231921434,-0.07728675752878189
1761468096854834400,9.22683447265625,0.013517175801098347,-0.029584696516394615,-0.09495130926370621
1761468096864788200,9.236788330078125,0.005562579724937677,-0.057573456317186356,-0.10650862753391266
1761468096874743300,9.246743408203125,-0.006080410443246365,-0.06881733983755112,-0.1150699108839035
1761468096884697300,9.256697265625,-0.01655116118490696,-0.06233760714530945,-0.11718232929706573
1761468096894651400,9.2666513671875,-0.03127318620681763,-0.03547599911689758,-0.11372777819633484
1761468096904605400,9.27660546875,-0.04428458958864212,0.005086873658001423,-0.10846670717000961
1761468096914560300,9.286560302734374,-0.045888617634773254,0.0413229875266552,-0.11327708512544632
1761468096924514300,9.296514404296875,-0.02816714346408844,0.06604910641908646,-0.12851783633232117
1761468096934468400,9.30646826171875,0.0015171265695244074,0.09145756810903549,-0.148585245013237
1761468096944422100,9.316422119140626,0.042268283665180206,0.09484004974365234,-0.15984083712100983
1761468096954377500,9.32637744140625,0.08352255821228027,0.07143156230449677,-0.15847472846508026
1761468096964331300,9.336331298828124,0.11879026889801025,0.03055177442729473,-0.1423644721508026
1761468096974285300,9.346285400390625,0.1426440179347992,-0.008531813509762287,-0.10972700268030167
1761468096984239400,9.3562392578125,0.16819438338279724,-0.03885563090443611,-0.06696648895740509
1761468096994194200,9.366194091796874,0.19573397934436798,-0.05553406849503517,-0.05050294101238251
1761468097004148200,9.376148193359375,0.221788227558136,-0.04259589686989784,-0.05294958874583244
1761468097014102300,9.386102294921875,0.2319517731666565,-0.016963239759206772,-0.06267784535884857
1761468097024056300,9.396056396484376,0.22456522285938263,-0.0064892941154539585,-0.059388838708400726
1761468097034010400,9.40601025390625,0.21157649159431458,-0.02266813814640045,-0.05502753332257271
1761468097043965400,9.41596533203125,0.2041209638118744,-0.04383281245827675,-0.0546024926006794
1761468097053919200,9.425919189453126,0.2017834335565567,-0.05731455236673355,-0.05821215733885765
1761468097063873300,9.435873291015625,0.21082672476768494,-0.07131239771842957,-0.06225190684199333
1761468097073827300,9.445827392578124,0.2152058184146881,-0.07925131916999817,-0.0679231509566307
1761468097083782400,9.455782470703125,0.20999161899089813,-0.08193232119083405,-0.0753035694360733
1761468097093736400,9.465736328125,0.19700489938259125,-0.09485182911157608,-0.08965878933668137
1761468097103690500,9.4756904296875,0.1810176819562912,-0.09710752964019775,-0.10425078123807907
1761468097113644300,9.485644287109375,0.17225253582000732,-0.07410867512226105,-0.10816130042076111
1761468097123599400,9.495599365234375,0.17561984062194824,-0.05442072078585625,-0.09968739002943039
1761468097133553200,9.50555322265625,0.18929319083690643,-0.030877908691763878,-0.0774172991514206
1761468097143507200,9.515507080078125,0.19570155441761017,0.004937348421663046,-0.04817952215671539
1761468097153461200,9.525461181640624,0.20396970212459564,0.05586976930499077,-0.027599940076470375
1761468097163415600,9.53541552734375,0.21076849102973938,0.10393183678388596,-0.013778932392597198
1761468097173370400,9.545370361328125,0.20691391825675964,0.1227048933506012,0.00008484581485390663
1761468097183324400,9.555324462890624,0.19448360800743103,0.1198398619890213,0.011930585838854313
1761468097193278200,9.5652783203125,0.19228796660900116,0.09301789849996567,0.018012773245573044
1761468097203232300,9.575232177734375,0.2053920477628708,0.06741506606340408,0.007156131789088249
1761468097213187300,9.585187255859376,0.22320125997066498,0.054705724120140076,-0.0013323663733899593
1761468097223141400,9.595141357421875,0.24787597358226776,0.0484856441617012,-0.007902385666966438
1761468097233095400,9.605095458984374,0.26753777265548706,0.041213616728782654,-0.014720603823661804
1761468097243049500,9.615049560546876,0.2880169749259949,0.05598670244216919,-0.01752464659512043
1761468097253004300,9.62500439453125,0.30480441451072693,0.08160227537155151,-0.013730217702686787
1761468097262958300,9.634958251953124,0.3206944465637207,0.08336688578128815,-0.014273769222199917
1761468097272912400,9.644912353515625,0.33291664719581604,0.07439598441123962,-0.019873371347784996
1761468097282866700,9.65486669921875,0.33955350518226624,0.0640043318271637,-0.024461200460791588
1761468097292820700,9.66482080078125,0.3498536944389343,0.05462173372507095,-0.031111937016248703
1761468097302775600,9.674775634765625,0.36519747972488403,0.04932417348027229,-0.042428240180015564
1761468097312729600,9.6847294921875,0.37185007333755493,0.059346672147512436,-0.043060511350631714
1761468097322684000,9.694683837890626,0.37241998314857483,0.059875573962926865,-0.031628359109163284
1761468097332637700,9.7046376953125,0.37492746114730835,0.04363088682293892,-0.014745720662176609
1761468097342592800,9.7145927734375,0.3769240379333496,0.03857966884970665,0.009727131575345993
1761468097352546800,9.724546875,0.3761581480503082,0.05416823551058769,0.025020089000463486
1761468097362500600,9.73450048828125,0.37699490785598755,0.07399386912584305,0.030720852315425873
1761468097372454700,9.74445458984375,0.36800119280815125,0.09270156919956207,0.0180815476924181
1761468097382409700,9.75440966796875,0.3519660234451294,0.11266276240348816,-0.010732523165643215
1761468097392363800,9.76436376953125,0.33425000309944153,0.14490877091884613,-0.041043639183044434
1761468097402317800,9.77431787109375,0.3194553256034851,0.15683014690876007,-0.0504605770111084
1761468097412271600,9.784271728515625,0.306851327419281,0.1417536437511444,-0.028201425448060036
1761468097422226700,9.794226806640625,0.2967880368232727,0.12435920536518097,0.008810920640826225
1761468097432180700,9.8041806640625,0.29269939661026,0.13359443843364716,0.035432327538728714
1761468097442134500,9.814134521484375,0.2918589115142822,0.1479019969701767,0.037191346287727356
1761468097452088600,9.824088623046874,0.28316956758499146,0.14561422169208527,0.021174706518650055
1761468097462043000,9.83404296875,0.2638738751411438,0.1426818072795868,0.0012739691883325577
1761468097471997700,9.843997802734375,0.24313446879386902,0.1408851444721222,-0.01307151559740305
1761468097481951700,9.85395166015625,0.2247282862663269,0.14084120094776154,-0.016975712031126022
1761468097491905800,9.86390576171875,0.20602944493293762,0.14376774430274963,-0.01774616166949272
1761468097501859600,9.873859619140624,0.19307981431484222,0.1719232201576233,0.006483542732894421
1761468097511814700,9.883814697265626,0.1752941757440567,0.1490621715784073,0.045421943068504333
1761468097521768700,9.893768798828125,0.1576126515865326,0.12328144907951355,0.08527854830026627
1761468097531722800,9.90372265625,0.13604813814163208,0.11273887008428574,0.09415494650602341
1761468097541676800,9.9136767578125,0.11325892060995102,0.1042468473315239,0.0759839341044426
1761468097551631600,9.923631591796875,0.10589432716369629,0.0808459222316742,0.0402056984603405
1761468097561585700,9.933585693359374,0.11024992913007736,0.0715794488787651,-0.008263833820819855
1761468097571539700,9.943539794921875,0.11957862228155136,0.11981742829084396,-0.051001835614442825
1761468097581493500,9.953493408203125,0.13595040142536163,0.19160373508930206,-0.06737201660871506
1761468097591447600,9.963447509765626,0.1356324702501297,0.2050524801015854,-0.06878611445426941
