time,seconds_elapsed,z,y,x
1761508298847430000,0.107429931640625,0.028390812703967094,0.00028882687874138353,0.008177205508388578
1761508298857400800,0.11740087890625,0.023902269113063812,0.009996054966002702,0.0012738649938721209
1761508298867373000,0.127373046875,0.027046996879577637,0.0014149265655316412,0.004779032703768462
1761508298877344000,0.137343994140625,0.028395488879084586,-0.00380392232760787,0.006592639730684459
1761508298887316000,0.14731591796875,0.015977321332693098,0.0010470613675191997,0.0011579469966236501
1761508298897287000,0.157286865234375,0.03154021664559841,-0.006323229938466101,0.01052452668636106
1761508298907258000,0.167258056640625,0.031390579041838645,-0.004606507414765656,0.00999360728058964
1761508298917229800,0.177229736328125,0.022864742758870123,0.001956906221434474,0.0003637735447846353
1761508298927201000,0.187200927734375,0.018081015613675117,-0.0033112617061473427,-0.004728097100974992
1761508298937172000,0.197171875,0.020623101311922073,-0.004920797528326511,0.003379778631404042
1761508298947144000,0.20714404296875,0.032441549399495125,-0.0030424729684367774,0.0047400341339409345
1761508298957115000,0.217114990234375,0.026454876205325124,0.005346274665091187,-0.003960309332562611
1761508298967087000,0.227087158203125,0.02929799067676067,0.005214483245275914,-0.004023803022829816
1761508298977058000,0.23705810546875,0.02061667157113552,0.002913184032961726,0.0027070761347655205
1761508298987029000,0.247029052734375,0.02600537887215614,0.0012800664057955144,0.0030292572938371448
1761508298997001000,0.2570009765625,0.01912614075243473,0.005440930678602308,0.004659790238272399
1761508299006972200,0.26697216796875,0.027055764707922935,-0.00797002903111279,0.008235264971712604
1761508299016943900,0.27694384765625,0.02070610342025757,-0.00025435835355892773,0.006344336658576503
1761508299026915000,0.2869150390625,0.015192308434844017,0.006123012924939394,-0.0007166512362193315
1761508299036886000,0.296885986328125,0.01940846482515335,-0.0007214644086547196,-0.0005950889494735748
1761508299046858000,0.30685791015625,0.014781389546394347,0.004462367970030755,-0.006862433115392923
1761508299056829000,0.316828857421875,0.024971359649300574,0.00789097244553268,0.0036737292098347096
1761508299066799900,0.3267998046875,0.026627310162782667,-0.006615289953909814,0.01275735463919118
1761508299076772000,0.336772216796875,0.022907412856817244,0.0002745426250621676,0.007209155060676858
1761508299086742800,0.34674267578125,0.02842880662679672,-0.0028499826036393642,0.003596380524151027
1761508299096715000,0.356715087890625,0.01570493413209915,-0.0010696750581264496,-0.004324302073055878
1761508299106686000,0.36668603515625,0.022145196312665937,-0.0045572979781776666,0.006938530558906495
1761508299116657000,0.376656982421875,0.026328619477152822,0.004836041854321956,0.0009213617617730051
1761508299126628900,0.38662890625,0.020343699848651885,-0.0029317974018864333,-0.0000606898118276149
1761508299136600000,0.39660009765625,0.029492051944136618,-0.0017899156240746379,0.003720564026245847
1761508299146571500,0.406571533203125,0.015423779103159903,0.004458367648348212,-0.0009815309837926179
1761508299156542500,0.41654248046875,0.009445873737335204,0.0061290956058539445,0.0031700266045518216
1761508299166513400,0.426513427734375,0.023057634982466695,0.001639675232116133,0.006223030100157484
1761508299176485600,0.436485595703125,0.01930909610390663,-0.0016863821843639015,-0.003731660808995366
1761508299186456300,0.446456298828125,0.021700959676504133,-0.0000865275059826672,-0.0027986908078193665
1761508299196427300,0.45642724609375,0.02769114000201225,0.0035855486028827724,0.005281895058834925
1761508299206399500,0.4663994140625,0.02080313405394554,0.003751150960754603,0.0011717837257310747
1761508299216370400,0.476370361328125,0.024844518399238586,0.004499850436206907,-0.005215442226501181
1761508299226342400,0.48634228515625,0.01871697542965412,0.0026629721315577625,-0.0028360271435230967
1761508299236313300,0.496313232421875,0.021119360396265982,0.004998666803818196,-0.0004825776188634336
1761508299246284500,0.506284423828125,0.01962590696811676,0.0019372882055118678,0.0005107351342681795
1761508299256256300,0.51625634765625,0.0223123695731163,0.00039785847747698423,-0.01311172103481367
1761508299266227500,0.5262275390625,0.020815993535518645,-0.0021325550492852924,-0.0039447099046316
1761508299276199400,0.536199462890625,0.02246609883010387,0.006167199126537889,-0.007545328212482855
1761508299286170400,0.54617041015625,0.017529811471700667,-0.0019679025394842026,-0.005943171979160979
1761508299296141300,0.556141357421875,0.016328034466505048,0.0006452938999049365,-0.0024432558331172914
1761508299306113500,0.566113525390625,0.01288461601436138,0.003960720324516296,-0.009215553846489638
1761508299316084500,0.57608447265625,0.01692833844721317,0.0007768661240115762,-0.007701203760784119
1761508299326056400,0.586056396484375,0.015579846447706222,0.006233140502218157,-0.005431331733195111
1761508299336027400,0.59602734375,0.021406360644102094,0.0009879881240427494,0.002325858264835551
1761508299345998600,0.60599853515625,0.01736146916747093,0.0020049283479340375,-0.00021335048973560332
1761508299355970300,0.61597021484375,0.016164952859282492,0.005372614682745188,-0.001161645924206823
1761508299365941500,0.62594140625,0.024098083946108816,-0.0017904453470371662,-0.00011745236720889805
1761508299375913500,0.63591357421875,0.018864859467744827,0.0044364298111759124,-0.0014459884240757674
1761508299385884400,0.645884521484375,0.028289690417051313,0.004190802753344178,0.0014339326601009814
1761508299395855400,0.65585546875,0.018262801921367644,-0.0016063209517858921,0.002861800905596465
1761508299405827600,0.66582763671875,0.015123334851860999,-0.001464282132592052,-0.008329802254214883
1761508299415798500,0.675798583984375,0.02245440839231014,-0.006728668934199959,-0.00021800839854404328
1761508299425769500,0.68576953125,0.02200140392780304,-0.007405198222585022,0.0007143679475877433
1761508299435741400,0.695741455078125,0.01870879212319851,-0.002641344821639359,0.000029207828175276516
1761508299445712600,0.705712646484375,0.023646833047270773,-0.005271419330593198,-0.002886341691808775
1761508299455684400,0.715684326171875,0.014366379004716873,-0.008876531150471418,-0.002569138101954013
1761508299465655600,0.725655517578125,0.007784078004956245,0.001369626119080931,-0.00377286960221827
1761508299475626500,0.73562646484375,0.00808101512491703,-0.002299509114027023,-0.005082618760224432
1761508299485598500,0.745598388671875,0.01570668769776821,-0.0013369111595675348,-0.0005669405672233551
1761508299495569400,0.7555693359375,0.015102876585721969,-0.004215717998892069,0.009594241832615808
1761508299505541600,0.765541748046875,0.023328268617391585,-0.0010360467831604181,-0.0005473042849916965
1761508299515512600,0.7755126953125,0.023923896422982215,-0.00008062748815864324,-0.00002937222495675087
1761508299525483300,0.785483154296875,0.02107552125453949,0.001404880095552653,0.003129420599527657
1761508299535455500,0.79545556640625,0.026009470525383948,0.0012148739487864077,0.0017328425414394587
1761508299545426400,0.805426513671875,0.020179449197649954,-0.0003740209441632032,-0.002697614186676219
1761508299555398400,0.8153984375,0.02153027928471565,0.0006693688952364027,-0.0023193371925037355
1761508299565369300,0.825369384765625,0.028116087415814398,0.0039056291364133354,-0.0023617606952786446
1761508299575340500,0.835340576171875,0.023778934994339942,0.007017386215087026,0.002074075460853055
1761508299585312300,0.845312255859375,0.01809095248579979,-0.0002679119548760354,-0.004973742425115779
1761508299595283500,0.855283447265625,0.019137246668338773,0.0063888059879653155,0.0020395156041253357
1761508299605255400,0.86525537109375,0.027517537000775336,0.00829374456014484,-0.0007885382954962552
1761508299615226600,0.8752265625,0.019734628039598464,0.003824234463274479,0.004996557045122608
1761508299625197300,0.885197265625,0.01823649843633175,-0.006709927701111882,0.00006024228725582361
1761508299635169500,0.89516943359375,0.020933482435345648,0.0026696576006710526,0.00018905629869550466
1761508299645140500,0.905140380859375,0.010908932027220725,-0.000707527214847505,-0.0074055544156115495
1761508299655112400,0.915112548828125,0.019142507365345954,0.0037139242229051886,-0.003965149904461577
1761508299665083400,0.92508349609375,0.017948913666605948,0.0019480653278529643,0.007246363532217219
1761508299675054600,0.9350546875,0.02558627667725086,-0.0021747136905789373,0.004636820354638621
1761508299685026300,0.9450263671875,0.016312836897373197,0.0031382432268001136,-0.00399990155743435
1761508299694997500,0.95499755859375,0.016164952859282492,0.006668609310034662,-0.001635410048952326
1761508299704969500,0.964969482421875,0.019305004450678825,0.0014123692822642624,-0.0010793836013879626
1761508299714940700,0.974940673828125,0.01990472390949726,-0.00010457461932674049,0.0015941647231113164
1761508299724911400,0.984911376953125,0.01780979745686054,-0.0020769341382198036,-0.0037849710319656877
1761508299734883600,0.994883544921875,0.014369301614165305,0.006958934026118368,-0.0023860640194732696
1761508299744854500,1.0048544921875,0.023950784429907796,0.0011488229752518236,0.0037891540167387574
1761508299754826500,1.014826416015625,0.012581249153614044,0.004800038959179073,0.0011514624569099396
1761508299764797400,1.02479736328125,0.02290799737870693,-0.001981985863763839,-0.0004092201217077672
1761508299774768400,1.034768310546875,0.020514380240440368,0.0031321057469584045,0.0032671303034760056
1761508299784740400,1.044740234375,0.02200491105914116,0.0062817106179893015,0.005251098061772063
1761508299794711300,1.054711181640625,0.0124263508528471,-0.006973748002760112,0.004517386092897504
1761508299804683500,1.06468359375,0.020501520758867263,-0.0020822131015360355,0.001384430962568149
1761508299814654500,1.074654541015625,0.03202536981403827,-0.000019910276867449283,0.0014612407921347765
1761508299824625400,1.08462548828125,0.025744682109355925,-0.0003274601223878562,-0.0013083061195909977
1761508299834597400,1.094597412109375,0.01407587162554264,-0.0028359175456687804,0.003460040793381631
1761508299844568600,1.104568603515625,0.012425766330957412,-0.00041787835219874976,0.00003185644298791885
1761508299854540300,1.114540283203125,0.022457915523648262,-0.002664068110100925,-0.0015331826503388582
1761508299864511500,1.124511474609375,0.015579261925816535,-0.0016654124615713953,0.003520228281710297
1761508299874482400,1.134482421875,0.019464578926563263,-0.0015927490841597318,0.0014934534281492232
1761508299884454400,1.144454345703125,0.019014497071504592,-0.002571567521058023,-0.003025247839000076
1761508299894425300,1.15442529296875,0.02110942352414131,-0.002076093888003379,-0.005631439148867503
1761508299904396500,1.164396484375,0.015274141499400137,0.004073112924117594,-0.002564772454090416
1761508299914368500,1.174368408203125,0.016321604725718496,-0.0007205328268930316,-0.00017912855972535908
1761508299924339500,1.18433935546875,0.02170855846107006,0.0017300203966908155,-0.0014276581829413772
1761508299934311400,1.1943115234375,0.01227905133664608,-0.00937987756272778,-0.0011443933953065426
1761508299944282600,1.20428271484375,0.009288052827119827,0.002319802983384579,0.001686756643699482
1761508299954253300,1.21425341796875,0.020658757147192952,0.002632759656384587,0.004475903305038809
1761508299964225500,1.2242255859375,0.008386720073223114,-0.00464413601141423,-0.00175560236251913
1761508299974196500,1.234196533203125,0.023348142361640928,0.003307096987683326,0.000327816315414384
1761508299984168400,1.24416845703125,0.02634089443683624,-0.0007483341492712497,-0.0004008906847797334
1761508299994139400,1.254139404296875,0.01870996116697788,0.002544259389024228,0.0017932948912493883
1761508300004110300,1.2641103515625,0.01915712041258812,0.00554672914063558,0.0041494295633398
1761508300014082300,1.274082275390625,0.009726444244384765,-0.002014280698169023,-0.0027324845706578342
1761508300024053200,1.28405322265625,0.021250877821445465,-0.0035581126066856084,-0.008007054839562624
1761508300034025500,1.294025390625,0.01870879212319851,-0.005389419687073678,0.00181983583830297
1761508300043996400,1.303996337890625,0.016761165186762808,-0.0012554799538105725,0.004512298925826326
1761508300053967400,1.31396728515625,0.018259879311919212,-0.00016196736237034202,0.000008110241219401359
1761508300063939300,1.323939208984375,0.02499415600299835,0.0020824505635537206,-0.0013743479599710553
1761508300073910500,1.33391064453125,0.021856442499160765,0.0003114953682757914,-0.002098789777001366
1761508300083882500,1.343882568359375,0.021861118674278257,0.003160400259681046,-0.002830282389326021
1761508300093853400,1.353853515625,0.029042554610967636,0.0017046302271075545,0.00422362731071189
1761508300103824400,1.363824462890625,0.022457331001758573,0.004623659478966147,-0.004576285806437954
1761508300113796400,1.37379638671875,0.011684008052945137,0.0003757014445960521,0.006255617195507511
1761508300123767300,1.383767333984375,0.018421791875362394,-0.0034710553777404125,-0.007651455468079074
1761508300133739500,1.393739501953125,0.017974048107862472,0.0019897125124931333,-0.00045068464325740933
1761508300143710500,1.40371044921875,0.031740123131871224,-0.002301883734203875,0.0019230496176052838
1761508300153682200,1.41368212890625,0.028746786534786222,-0.007168923514988273,-0.005447122957371175
1761508300163654100,1.423654052734375,0.020516133806109428,-0.0015168891026638447,-0.0010463398483116179
1761508300173625300,1.433625244140625,0.0067477206945419305,-0.00034433819195255636,-0.0019739030220080164
1761508300183597000,1.44359716796875,0.012581249153614044,-0.0019176336569711565,-0.001477607405046001
1761508300193568300,1.453568359375,0.0179641112357378,0.001423073339369148,0.0021008173373062164
1761508300203539200,1.463539306640625,0.02424772154986858,-0.005452347121760249,0.0009837868729606271
1761508300213511200,1.47351123046875,0.018413024047017095,-0.005903506689053028,-0.006263928366126492
1761508300223482000,1.483482177734375,0.019459318229556082,0.007793777415063232,-0.002267479141103104
1761508300233454300,1.493454345703125,0.02080313405394554,0.001004099008627236,0.0006551485736388712
1761508300243425000,1.503425048828125,0.027983400946855544,0.008353402325510979,0.002431967254122719
1761508300253396200,1.513396240234375,0.021998481318354607,-0.0059859242754988365,-0.0038119869030546396
1761508300263368200,1.5233681640625,0.022600538864731786,-0.004189578910637646,0.00006050714873708784
1761508300273339400,1.53333935546875,0.010484569135308265,0.0076327051018364725,0.0050354368839412925
1761508300283311000,1.54331103515625,0.01407236449420452,0.004496580766886473,0.0061283558203373105
1761508300293282300,1.5532822265625,0.01720949347615242,0.00006583177782595157,-0.0032703269075602293
1761508300303253200,1.563253173828125,0.0151145670235157,0.0003409406584687531,0.0018605149085633456
1761508300313225200,1.57322509765625,0.020951018092036245,-0.005482303868606687,-0.005384250321611762
1761508300323196200,1.583196044921875,0.020053776991367338,-0.0003892550459131598,-0.0055775992029346525
1761508300333168400,1.59316845703125,0.016760580664873122,-0.006537566808890551,0.004693427646392956
1761508300343139000,1.60313916015625,0.014964344897866248,-0.0023055187297053633,0.005155282137636095
1761508300353110300,1.6131103515625,0.017809212934970856,0.0018105382869951425,0.0009172609753906727
1761508300363082200,1.623082275390625,0.014969605594873427,0.0025969211580231786,-0.00379383019185625
1761508300373053400,1.633053466796875,0.022602292430400846,-0.009129592596087603,-0.006024548385990783
1761508300383025200,1.643025146484375,0.01931260323524475,-0.004432265092711896,0.00001533456644974649
1761508300392996400,1.652996337890625,0.015722469788789748,-0.004467299873474985,-0.0013756996668409555
1761508300402967300,1.66296728515625,0.013325930041074753,-0.00006044321665540337,0.00019130305470898746
1761508300412939300,1.672939208984375,0.012421674677729606,0.0031750681058503685,0.0025245135089382526
1761508300422910200,1.68291015625,0.025586861199140547,-0.006537384145800024,-0.0015630754651036114
1761508300432881200,1.692881103515625,0.021402853512763977,-0.00252469617202878,-0.006349907882837578
1761508300442853000,1.70285302734375,0.014967852029204368,0.0006188625507056712,-0.00868703646035865
1761508300452824000,1.712823974609375,0.016613281148672103,0.0034412812939845026,0.0035107937330845743
1761508300462796300,1.72279638671875,0.01257481941282749,0.004696213258523494,0.0012644761110190302
1761508300472767200,1.732767333984375,0.013774258330464362,0.0014838818822056055,-0.0025237554571125656
1761508300482738200,1.74273828125,0.015571078619360922,-0.002460691025108099,0.004794778262171894
1761508300492710100,1.752710205078125,0.011831892091035842,0.0008490911100059748,-0.001568683221982792
1761508300502681300,1.762681396484375,0.021404022556543348,0.0033390812948346136,-0.007990195036306977
1761508300512653000,1.772653076171875,0.01466799229979515,0.0022259324211627244,-0.0015138751616701482
1761508300522624300,1.782624267578125,0.008831541231274604,-0.0011716741278767586,-0.0021196407687850295
1761508300532595200,1.79259521484375,0.02229717200398445,-0.011007223036233336,-0.004607722124317661
1761508300542567200,1.802567138671875,0.025285832425951955,-0.0007557868033647537,0.0026158724536653605
1761508300552538000,1.8125380859375,0.015707272219657897,-0.0014393486207351087,-0.003784934499347582
1761508300562510300,1.82251025390625,0.00762742613852024,-0.0057156742330640555,0.0032552754689007994
1761508300572481300,1.832481201171875,0.019746318477392194,0.00006387728275731206,-0.0020102621101774276
1761508300582452200,1.8424521484375,0.022291326785087585,0.0014328458147123454,-0.00967820292217657
1761508300592424200,1.852424072265625,0.020194646766781805,-0.00039590398240834474,-0.006367489205300807
1761508300602395400,1.8623955078125,0.02602992879152298,-0.0092905735777691,0.002829012880846858
1761508300612367000,1.8723671875,0.018844401201605795,-0.0002990925444290042,0.0011525767017621547
1761508300622338300,1.88233837890625,0.01525485227704048,-0.0031441980435512958,-0.008231081986939535
1761508300632309200,1.892309326171875,0.014207389050722122,-0.0035042817939072847,-0.001728997483383864
1761508300642281200,1.90228125,0.016753566402196884,-0.0002798215883783996,-0.0013165259586647151
1761508300652252200,1.912252197265625,0.01630932976603508,-0.0024042846627533435,0.0020374423780478534
1761508300662224400,1.922224365234375,0.014816460859775542,0.0007349997436627746,0.001118162975506857
1761508300672195000,1.932195068359375,0.021702128720283508,0.0037755730159580703,0.008157404829375445
1761508300682166000,1.942166015625,0.0181079036206007,-0.0017624430952593684,0.009022661622893065
1761508300692138200,1.95213818359375,0.02274550029337406,0.0003821859843097627,0.00005416873949579894
1761508300702109200,1.962109130859375,0.015861585998535155,0.00031165976505726574,-0.0009262388662900776
1761508300712081200,1.9720810546875,0.01571545552611351,-0.003366681687813252,0.005835373356286436
1761508300722052000,1.982052001953125,0.020054946035146713,-0.004503321034926921,-0.002110589812649414
1761508300732023300,1.992023193359375,0.015563479834794997,0.004773991202469915,-0.0016261033644899725
1761508300741995000,2.0019951171875,0.02050210528075695,0.0010610716265626252,0.003969195891916751
1761508300751966200,2.01196630859375,0.011976853519678116,-0.0010016878558322788,-0.001844760217005387
1761508300761938200,2.021938232421875,0.011524433577060698,0.0017906097438186407,-0.0005452584583777934
1761508300771909000,2.0319091796875,0.018706454035639763,0.00800000404426828,3.470598720014095e-7
1761508300781880000,2.041880126953125,0.020949849048256874,0.0012166823133826256,-0.005161282620159909
1761508300791852300,2.051852294921875,0.020059622210264205,0.004074683826696127,-0.0001792381575796753
1761508300801823200,2.0618232421875,0.008690671455860137,-0.0012184906779788434,-0.013729195346031337
1761508300811795200,2.071795166015625,0.0070411506831645964,0.0012210844938643276,0.00003101619277149439
1761508300821766100,2.08176611328125,0.01122983454465866,0.0005199687534943223,0.0026181557422969488
1761508300831737300,2.0917373046875,0.023051205241680143,-0.0033810024741105734,0.0012751162360422313
1761508300841709000,2.101708984375,0.019456980141997336,0.003391140275634825,-0.0016574209513608366
1761508300851680300,2.11168017578125,0.01990647747516632,-0.0005284443208947777,0.0016710932836867867
1761508300861652200,2.12165234375,0.019310265147686002,0.00213524019671604,0.0026452355454675853
1761508300871623200,2.131623046875,0.02365384730994701,0.0023706198551692067,0.0013276592740323393
1761508300881594000,2.141593994140625,0.019915829825401306,-0.0060561582338064905,0.007689339793054387
1761508300891566300,2.15156640625,0.012289572730660437,-0.0029191023170948025,-0.002006006060168147
1761508300901537300,2.161537353515625,0.02276595855951309,0.005705956556648016,-0.002076714942511171
1761508300911509200,2.17150927734375,0.02426350364089012,0.0006163052674382925,0.008306622308027
1761508300921480200,2.181480224609375,0.01902501846551895,-0.0011663768982514739,0.0002557831256650388
1761508300931451400,2.191451416015625,0.023513562056422233,0.003502254233602434,-0.0018371888319030404
1761508300941423000,2.201423095703125,0.02381517535150051,-0.0023450104898773134,0.009755040151206776
1761508300951394300,2.211394287109375,0.016482932767271995,0.0014493768244050443,0.0015577325697056948
1761508300961366300,2.2213662109375,0.015738836401700974,0.0034409707667306063,0.0044415809103287756
1761508300971337200,2.231337158203125,0.02995382423698902,0.0028233320587314663,0.004896549003059044
1761508300981308200,2.24130810546875,0.011996727263927458,-0.004839366322569549,0.004676796172000467
1761508300991280400,2.2512802734375,0.025316227564215657,-0.0037139242229051886,0.0033259660849347707
1761508301001251300,2.261251220703125,0.012595862200856208,-0.006407181894872337,0.0014529752872884272
1761508301011223300,2.271223388671875,0.01888297964632511,0.003397716146893799,-0.0032568281051702794
1761508301021194200,2.2811943359375,0.029053076004981995,0.003743077252153307,-0.0016782810762990266
1761508301031165200,2.291165283203125,0.01319090548455715,-0.0026680684317834675,-0.003177899383753538
1761508301041137200,2.30113720703125,0.018732757520675658,0.0008676131473854184,-0.00070718928813003
1761508301051108000,2.311108154296875,0.02472001523673534,-0.0018866905294358729,0.00046370852161198853
1761508301061080300,2.321080322265625,0.019781974312663077,0.005484641956165433,-0.004826333311060443
1761508301071051000,2.331051025390625,0.014693126741051672,0.002037424111738801,-0.0013056209721602498
1761508301081022200,2.341022216796875,0.026061492973566053,0.0050228879296220835,-0.00867498982953839
1761508301090994200,2.350994140625,0.029800094980001447,-0.0022828502401709555,-0.001235250016534701
1761508301100965400,2.36096533203125,0.019777298137545585,0.00018467238452285527,0.0012020601329859346
1761508301110936000,2.37093603515625,0.0157376673579216,0.003965104238688946,-0.006070250691240653
1761508301120908300,2.380908203125,0.021724925073981285,-0.0004698460014536977,-0.0042556024847086515
1761508301130879200,2.390879150390625,0.016936521753668783,-0.004594981373753399,0.00590405467832461
1761508301140851200,2.400851318359375,0.022619243565201758,0.001785440378356725,-0.00029651699485257264
1761508301150821600,2.410821533203125,0.02321779398024082,-0.0014184884957969188,-0.003783975518122315
1761508301160792600,2.42079248046875,0.021718495333194733,0.0026970570642501114,0.00200339397797361
1761508301170764800,2.430764892578125,0.018871873730421065,0.0005334858221933245,-0.0026574100404512134
1761508301180735500,2.440735595703125,0.019915245303511617,0.004063669242337346,0.006303073066426441
1761508301190707700,2.450707763671875,0.020965046617388725,0.0035155155739746984,0.0003302914002910256
1761508301200678700,2.4606787109375,0.01931786393225193,-0.0039386546231806275,0.005003900101361796
1761508301210649900,2.47064990234375,0.012882277926802634,0.0011776837435550987,0.00026209413544274864
1761508301220621600,2.48062158203125,0.008541033852100371,0.00275017549097538,-0.0019698113687802105
1761508301230592800,2.4905927734375,0.01587444548010826,-0.005418901509884745,0.0020497812698129564
1761508301240564500,2.500564453125,0.01767126576900482,0.005575443778466433,-0.002254802322620526
1761508301250535700,2.51053564453125,0.015427286234498024,0.006028356911428273,-0.005176361458282918
1761508301260506600,2.520506591796875,0.017670681247115134,-0.0017340755173005163,-0.0016541421488858758
1761508301270478800,2.530478759765625,0.01078676695227623,-0.0005179777258075773,-0.005401831644074991
1761508301280449500,2.540449462890625,0.01063596030473709,0.000007653583493083716,-0.0015188527308870106
1761508301290421800,2.550421875,0.01797054097652435,-0.0000583243248052895,-0.0005490943832788616
1761508301300392700,2.560392822265625,0.02679623698890209,0.007623133555892854,0.0015060845808591693
1761508301310363600,2.57036376953125,0.028290859460830688,-0.001724777965992689,-0.0011804784888401628
1761508301320335600,2.580335693359375,0.019169395372271535,0.003445592142920941,-0.0014530300862155854
1761508301330306600,2.590306640625,0.01602817473709583,0.0006987593865022063,0.0117102658722084
1761508301340278500,2.600278564453125,0.021564181554317472,-0.0007212817455641925,0.0014820552513003348
1761508301350249500,2.61024951171875,0.017824410504102706,-0.002317355297971517,-0.0007170987607911229
1761508301360220700,2.620220703125,0.015582184535264968,-0.001066295790951699,-0.0011802136273588984
1761508301370192600,2.630192626953125,0.020223872861266135,0.0002845525624230504,-0.004611850310163573
1761508301380163600,2.64016357421875,0.012144026780128478,-0.004166800823248922,-0.0043478108128067105
1761508301390135600,2.650135498046875,0.01633329516351223,-0.002128865254856646,0.00026550080208107826
1761508301400106800,2.660106689453125,0.021121698483824728,-0.005187175113242119,0.004836270183185115
1761508301410077700,2.67007763671875,0.016332710641622544,0.004662073526903987,0.00027501754909753796
1761508301420049700,2.680049560546875,0.010046762239933013,-0.008447747811768203,0.0022332024121657014
1761508301430020600,2.6900205078125,0.017826164069771767,-0.0036975393436849114,0.003546760095609352
1761508301439992600,2.69999267578125,0.020669863063097,0.007512110929470509,0.002002891654474661
1761508301449963500,2.709963623046875,0.019771452918648718,0.00011604586141183972,0.006295885273814201
1761508301459934700,2.719934814453125,0.02007248169183731,-0.005581946584489197,-0.00386194525831379
1761508301469906700,2.72990673828125,0.022462591698765754,0.0014393668870441615,-0.0027335531497374175
1761508301479877600,2.739877685546875,0.021566519641876218,0.005239325425587594,-0.0009342851754277944
1761508301489849600,2.749849609375,0.018721651604771614,-0.0012580189707688987,-0.006291620090650394
1761508301499820800,2.75982080078125,0.01677636275589466,-0.00025158187458291647,0.009012669951841235
1761508301509791500,2.76979150390625,0.013780688071250914,-0.0014152370927855372,0.0019851916010025887
1761508301519763700,2.779763671875,0.01677110205888748,-0.00253293427741155,-0.004685637065581977
1761508301529734700,2.789734619140625,0.017218261304497717,0.0015401421140879392,0.0056936998632736505
1761508301539706600,2.79970654296875,0.016022329518198965,0.000505209575779736,-0.00009067395813763141
1761508301549677600,2.809677490234375,0.017371406039595604,-0.0037058505143038926,0.012487369458237663
1761508301559648500,2.8196484375,0.01572539239823818,-0.0011452975776046514,-0.0008549271957483142
1761508301569620700,2.829620849609375,0.01916705728471279,-0.006395199196133762,0.0018611542293801903
1761508301579591400,2.83959130859375,0.018717559951543807,0.0016118921760469673,0.01046627542679198
1761508301589563600,2.849563720703125,0.022913842597603797,0.0016273089408874511,0.007694509158516302
1761508301599534600,2.85953466796875,0.023812837263941764,-0.008152874784730374,0.0028755371700040994
1761508301609505500,2.869505615234375,0.017528642427921293,-0.002783566303923726,0.0018508246316108852
1761508301619477500,2.8794775390625,0.012590601503849028,-0.006311795228999108,0.0032888398117851465
1761508301629448700,2.88944873046875,0.023964812955260276,-0.008703202143870294,-0.008035020558722317
1761508301639420400,2.89942041015625,0.019924597653746604,0.001779101969115436,0.004509294117987155
1761508301649391600,2.9093916015625,0.02396539747714996,-0.003925466348044574,0.003143330393871292
1761508301659362600,2.919362548828125,0.01214227321445942,0.0009303031200543046,0.004240925505384802
1761508301669334500,2.92933447265625,0.017380758389830588,-0.0003422375664114952,0.00004332768507301807
1761508301679305500,2.939305419921875,0.014237784188985823,0.0005777450890280306,-0.0017133980554528533
1761508301689277700,2.949277587890625,0.02411445055902004,0.0021046075964346526,-0.0015282142142765223
1761508301699248600,2.95924853515625,0.016332710641622544,0.004813629093114286,-0.0055505102666094895
1761508301709219600,2.969219482421875,0.01214227321445942,-0.0050586168301291765,-0.0019060984828043728
1761508301719191600,2.979191650390625,0.01648234824538231,-0.0001417100256308913,0.0007581705566961318
1761508301729162800,2.989162841796875,0.017227613654732705,-0.00020671981954947113,0.003842601237026974
1761508301739134500,2.999134521484375,0.030693244427442548,-0.002928345069475472,0.00005122786373831332
1761508301749105700,3.009105712890625,0.015429039800167082,0.003840180951077491,-0.001400715377088636
1761508301759076600,3.01907666015625,0.02320902615189552,0.0034807547878473997,-0.0042995877569075676
1761508301769048600,3.029048583984375,0.018270985227823257,0.000752535400353372,0.002725050182873383
1761508301779019500,3.03901953125,0.010039747977256774,0.0033671931444667277,-0.0003115501672029495
1761508301788991700,3.04899169921875,0.024550503888726233,-0.006704995797667652,0.001337742276629433
1761508301798962700,3.058962646484375,0.023648586612939834,-0.000009991671051830053,0.00295935212909244
1761508301808933600,3.06893359375,0.01541734936237335,-0.0038919842035509645,0.0066108329745009535
1761508301818905600,3.078905517578125,0.017965280279517173,-0.0025591281645931303,-0.0013695804533082991
1761508301828876800,3.088876708984375,0.01422317114174366,-0.002677658244036138,-0.00714476632126607
1761508301838848500,3.0988486328125,0.020206921726465224,-0.00387251231810078,-0.0050899800827726716
1761508301848819700,3.10881982421875,0.02036006646156311,0.004205927257239818,-0.0025825090401805934
1761508301858790700,3.118790771484375,0.016921908706426618,-0.0021908611077815295,-0.003723176108440384
1761508301868762600,3.1287626953125,0.016024083083868025,0.00029043431393802163,-0.00026477014971897
1761508301878733600,3.138733642578125,0.010040332499146461,0.0010121909835375845,-0.002554077530140057
1761508301888704500,3.14870458984375,0.018570260435342788,-0.003964830244053155,-0.000023280410887673495
1761508301898676700,3.1586767578125,0.010939327165484427,-0.0024644904173910616,0.0030827227804344146
1761508301908647400,3.1686474609375,0.015578092882037162,-0.0049577868041582405,0.003886047653108835
1761508301918619600,3.17861962890625,0.01617898138463497,-0.0018744886349886655,-0.0015506269754841924
1761508301928590600,3.188590576171875,0.012736731976270675,-0.0019915026107802988,0.0005174114702269435
1761508301938561800,3.198561767578125,0.015128595548868178,-0.002021167096681893,-0.004250232189847156
1761508301948533500,3.208533447265625,0.018569675913453102,-0.00006181318983435631,0.004139565756451339
1761508301958504700,3.218504638671875,0.018719898039102553,-0.003200841867923736,0.0008069690013304353
1761508301968476400,3.228476318359375,0.02141103681921959,0.0027687523272819817,-0.003790304794209078
1761508301978447600,3.238447509765625,0.016022329518198965,0.0014648301218636334,0.0034400117855053394
1761508301988418600,3.24841845703125,0.014227847316861152,-0.0015648564302362502,0.00430784412859939
1761508301998390800,3.258390869140625,0.020514380240440368,0.0013709778259508312,0.0000734031629282981
1761508302008361500,3.268361572265625,0.014081716844439505,0.00037707141777500506,0.004741212310874834
1761508302018333700,3.278333740234375,0.011834814700484276,0.0020163813237100837,-0.0018143194129690526
1761508302028304600,3.2883046875,0.018271569749712942,0.006854395939409732,0.00892818827247247
1761508302038275800,3.29827587890625,0.015130933636426924,-0.0046953364756889635,0.0013684205426834524
1761508302048247600,3.30824755859375,0.019917583391070366,-0.00200582339707762,-0.0013709412933327256
1761508302058218800,3.31821875,0.015876783567667006,0.0019294336926192043,0.002650103516830131
1761508302068190500,3.3281904296875,0.01408113232254982,0.0013233940908685326,-0.00182672223681584
1761508302078161700,3.33816162109375,0.02096446209549904,0.005097633666265756,0.002915047196485102
1761508302088132600,3.348132568359375,0.01976560769975185,-0.00015838716579601167,-0.002219091688422486
1761508302098104800,3.358104736328125,0.02275952881872654,-0.008117693873494864,-0.0006292926131747662
1761508302108075500,3.368075439453125,0.02350713231563568,-0.011550006409734487,-0.0005835629084613174
1761508302118047700,3.3780478515625,0.023954876083135603,0.0009242935043759644,0.0011990553251467644
1761508302128018700,3.388018798828125,0.026944121026992795,-0.006300506650004535,-0.0021662563894875348
1761508302137989600,3.39798974609375,0.015419687449932098,-0.007975600255373866,-0.005446337506081909
1761508302147961300,3.40796142578125,0.01766132889688015,-0.0007586911465041339,-0.0033597130909096447
1761508302157932300,3.417932373046875,0.013019640570878982,-0.0024963651266880333,-0.004873569986270741
1761508302167904300,3.427904296875,0.008826865056157112,-0.0012689422235824168,0.0019553718514740467
1761508302177875200,3.437875244140625,0.009120879566669463,0.0008385697159916162,-0.0007893602794036269
1761508302187846400,3.447846435546875,0.014355857610702514,0.001397555305622518,-0.003445491678221151
1761508302197818400,3.457818359375,0.016750059270858764,0.005427157881576568,-0.001810757482703775
1761508302207789300,3.467789306640625,0.017647884893417357,-0.004511065949965268,-0.0067108684160280966
1761508302217761300,3.47776123046875,0.0228875391125679,-0.0009370068554766475,0.002888643246749416
1761508302227732500,3.487732421875,0.016150339812040327,-0.0011644041368737816,0.00016226875646971166
1761508302237703400,3.497703369140625,0.020485738667845727,-0.0005620543295517563,0.008149312854465096
1761508302247675400,3.50767529296875,0.02138356429040432,-0.001985328598320484,0.0022324534934945405
1761508302257646300,3.517646240234375,0.015552958440780638,0.0006998553650453686,-0.002717314400989562
1761508302267618300,3.527618408203125,0.014954408025741576,0.004984017223957925,0.002168256550328806
1761508302277589200,3.53758935546875,0.013007365611195563,0.0041030148720368744,0.00014819456534460187
1761508302287560200,3.547560302734375,0.017945991057157516,0.0016636223632842302,-0.002933660565409809
1761508302297532400,3.557532470703125,0.017200141125917435,-0.0006795249630697071,0.004894777171080932
1761508302307503000,3.567503173828125,0.01570493413209915,0.0005274396738968789,0.007634075075015425
1761508302317475300,3.577475341796875,0.023485505005717278,-0.004382854726724326,-0.003149440474249422
1761508302327446300,3.5874462890625,0.018996376892924306,-0.004061367687396705,0.0005734342400915921
1761508302337417500,3.59741748046875,0.02019406224489212,0.002882971557788551,0.000045958033576607704
1761508302347389200,3.60738916015625,0.0200467627286911,0.005000036776997148,-0.0014654237769078462
1761508302357360400,3.6173603515625,0.01601122360229492,0.004603456941153854,-0.0011980780776124447
1761508302367332000,3.62733203125,0.019753332740068436,0.004639989559259265,0.0033674397396389394
1761508302377303300,3.63730322265625,0.02154898398518562,-0.0011994754502549767,0.0005198682887945324
1761508302387274200,3.647274169921875,0.01661035853922367,0.004982647250778973,0.0007883556324057281
1761508302397246500,3.65724658203125,0.020500936236977577,-0.00016465250980108977,-0.0022681823940016326
1761508302407217200,3.667217041015625,0.017656652721762655,-0.0009953494465909899,0.004024351012101397
1761508302417189400,3.677189453125,0.019897125124931334,-0.0024702625710517167,-0.0020933464169036594
1761508302427160300,3.687160400390625,0.0206435595780611,-0.00023439327776432036,0.00500716977068223
1761508302437131500,3.697131591796875,0.024086393508315086,0.003407853948418051,0.00410440311152488
1761508302447103200,3.707103271484375,0.022293080350756642,0.008814699694328009,-0.0042481406974606215
1761508302457074400,3.717074462890625,0.018103227445483205,-0.0008393734335899353,0.005873860469460487
1761508302467046100,3.727046142578125,0.019895371559262274,-0.004729695403017103,0.005967201308719814
1761508302477017300,3.737017333984375,0.020046178206801414,0.0058094169311225415,0.0013794807928148656
1761508302486988300,3.74698828125,0.022741408640146253,-0.0022530578901059925,0.001085448015993461
1761508302496960500,3.75696044921875,0.018254034093022346,0.00535054898140952,-0.0009485511627979576
1761508302506931200,3.76693115234375,0.015111059892177581,0.00024829393895342946,0.003464415574399754
1761508302516903400,3.7769033203125,0.016010639080405235,0.0022850787298753857,0.006125305346725508
1761508302526874400,3.786874267578125,0.02977905219197273,0.00011482201870530843,-0.007809075448894873
1761508302536845600,3.796845458984375,0.020951018092036245,-0.0001758862898685038,0.000049647828005254266
1761508302546817300,3.8068173828125,0.012122983992099762,0.0014069807210937142,0.0022014190344139934
1761508302556788500,3.81678857421875,0.01855798547565937,0.004204648615606129,-0.004514984073257074
1761508302566760200,3.82676025390625,0.015413842231035231,0.003506784278247505,0.00035249409894458946
1761508302576731400,3.8367314453125,0.026035774010419843,0.00506606948422268,0.001914802379067987
1761508302586702300,3.846702392578125,0.018849077376723287,-0.003782112354598939,-0.00516513681137003
1761508302596674600,3.856674560546875,0.009420739296078682,0.005616287245508283,0.0037582565549761056
1761508302606645200,3.866645263671875,0.02288929267823696,0.000020421733520925044,-0.0005514781366102397
1761508302616617500,3.876617431640625,0.011664134308695792,0.0038450580555945634,-0.005303485836135223
1761508302626588400,3.88658837890625,0.009572130465507507,-0.0016363872964866458,0.008260061486251651
1761508302636559400,3.896559326171875,0.01585749434530735,-0.002361468434333801,0.003398044940456748
1761508302646531300,3.90653125,0.015406243446469306,0.003373202760145068,0.0006299228008370846
1761508302656502300,3.916502197265625,0.017799276062846182,-0.005703289675526321,0.007065061281714588
1761508302666473500,3.926473388671875,0.024382161584496496,0.000187047004699707,-0.0030896365784108637
1761508302676445200,3.936445068359375,0.017049334478378295,0.0028750987785868343,0.0038244901916012165
1761508302686416400,3.94641650390625,0.025278233641386032,-0.00435101655004546,-0.004265767685696482
1761508302696388400,3.956388427734375,0.02273030272424221,0.00596157528553158,0.002868933899281546
1761508302706359300,3.966359375,0.016743045008182526,0.005039382406696677,0.00203812736463733
1761508302716330200,3.976330322265625,0.019883096599578855,0.0068010400506667784,0.004756382480543106
1761508302726302500,3.986302490234375,0.027962942680716512,-0.003557528084795922,-0.0030843028161674736
1761508302736273400,3.9962734375,0.018083938223123548,0.0023002215000800788,0.002894497598800808
1761508302746244400,4.006244384765625,0.004019757035374641,-0.000012969079427421092,-0.00010150587940588593
1761508302756216300,4.01621630859375,0.00177636202275753,-0.004150817802827805,-0.00017973134792409836
1761508302766187500,4.0261875,0.025268881291151044,0.006393354298919439,0.0021923863445874304
1761508302776158200,4.036158203125,0.01718728164434433,0.00420587245831266,0.004003152960445732
1761508302786130400,4.04613037109375,0.01733575020432472,0.001590940719563514,0.006491627041622996
1761508302796101400,4.056101318359375,0.021674071669578552,0.008344086507894099,0.003273331715399399
1761508302806073300,4.0660732421875,0.01867956602871418,-0.00013210194706916807,0.0028577001192141324
1761508302816044300,4.076044189453125,0.011650105783343315,-0.0014762282987125217,0.0028277616386767476
1761508302826015200,4.08601513671875,0.024070611417293546,0.000908054755628109,0.005218227838631719
1761508302835987500,4.095987548828125,0.01583820512294769,-0.0014190547513775527,-0.002809942854195833
1761508302845958100,4.105958251953125,0.017333412116765975,0.0008500226917676628,0.003802196161402389
1761508302855930400,4.115930419921875,0.012995090651512145,0.002035067757871002,0.008859817477688194
1761508302865901300,4.1259013671875,0.01344458798468113,-0.0011246018494479358,-0.0017765264195390045
1761508302875872300,4.135872314453125,0.014041969355940818,-0.000050981268566101784,0.0024335290235467256
1761508302885844200,4.14584423828125,0.013741525104641914,-0.006501673511601984,-0.0030497155599761754
1761508302895815400,4.1558154296875,0.00760521430671215,-0.0014721914444118737,-0.003950290262047201
1761508302905787100,4.165787109375,0.013140636602044104,0.004134085863735527,0.0021885321533773095
1761508302915758300,4.17575830078125,0.017629764714837074,-0.0005597527746111154,-0.001769731352571398
1761508302925729300,4.185729248046875,0.021520926934480666,0.00003280629105865955,-0.00765527312667109
1761508302935701200,4.195701171875,0.01732932046353817,0.000584923748485744,-0.0010944167737383394
1761508302945672200,4.205672119140625,0.01508709449470043,-0.0007418861421756446,0.008938499603932722
1761508302955644400,4.21564453125,0.02062660844326019,-0.002162018605787307,0.010048442740365862
1761508302965615400,4.225615478515625,0.017787585625052452,0.006673888273350894,0.002024089706130326
1761508302975586300,4.23558642578125,0.01225157880783081,0.004737732579000294,0.004397166379867121
1761508302985558300,4.245558349609375,0.014494973820447921,0.0041626361047849055,0.0048847855000291015
1761508302995529500,4.255529541015625,0.019429507613182066,0.0007312368839979171,0.002201409901259467
1761508303005501200,4.265501220703125,0.01733575020432472,-0.006977693525515497,0.008062502220692113
1761508303015472400,4.275472412109375,0.022725626549124717,0.0035102914095856246,-0.002420605609891936
1761508303025443300,4.285443359375,0.017044073781371117,-0.0005629128460772335,-0.002481295421719551
1761508303035415300,4.295415283203125,0.016891513568162916,0.000246522106975317,0.005426354163978249
1761508303045386200,4.30538623046875,0.021526772153377532,0.0051609812260605395,0.0005263162958901376
1761508303055358500,4.3153583984375,0.021077859342098236,-0.002277607809472829,0.004517450024979189
1761508303065329400,4.325329345703125,0.02003273420333862,0.006105623398721218,-0.004405623680958524
1761508303075300000,4.335300048828125,0.02631692903935909,0.004150799536518752,0.0037240894238930195
1761508303085272300,4.345272216796875,0.00476443792283535,-0.002396302285697311,0.0016895331226754933
1761508303095243300,4.3552431640625,0.015240823751688002,0.0010205021541565655,0.004432000231230631
1761508303105215200,4.36521533203125,0.01135316866338253,0.004400773975905031,-0.002263067827466875
1761508303115187500,4.3751875,0.01883212624192238,0.005582786834705621,-0.0009087671416811644
1761508303125158400,4.385158447265625,0.018082769179344177,-0.0006353022288531064,-0.0009333079278934746
1761508303135130400,4.39513037109375,0.022719196808338164,0.0014582177179865538,0.00187998679401353
1761508303145101300,4.405101318359375,0.014636428117752074,0.008984978227317333,0.000912429536646232
1761508303155072800,4.41507275390625,0.023314240092039105,-0.005780336967110633,0.0004882675741333514
1761508303165044500,4.42504443359375,0.0185217451184988,0.0016298114252276718,0.007254583371290937
1761508303175015700,4.435015625,0.021959902873635292,-0.0011171857279725372,-0.005986033873353153
1761508303184987600,4.444987548828125,0.023601824861764906,-0.0012237513749860226,0.0018085929250810295
1761508303194958600,4.45495849609375,0.014178162956237791,0.0012290303383022546,0.012458490423625334
1761508303204929500,4.464929443359375,0.013728081101179122,0.003385057594720274,-0.010873924645921214
1761508303214901800,4.47490185546875,0.015076573100686072,0.0037416159474290907,-0.005168132486054674
1761508303224872700,4.484872802734375,0.025102292552590368,-0.0022395773540250957,-0.0018810553730931132
1761508303234844700,4.4948447265625,0.02794306893646717,-0.0012537263881415128,-0.008154966277116909
1761508303244815600,4.504815673828125,0.017319383591413495,0.005718268048949539,0.0026225761890877036
1761508303254786600,4.51478662109375,0.01836450873017311,-0.008570406077057122,0.00204298620284535
1761508303264758500,4.524758544921875,0.021953473132848737,-0.002372775279637426,-0.005183412253577262
1761508303274729500,4.5347294921875,0.01641571274995804,0.00037926337486132977,-0.003842509905481711
1761508303284701700,4.54470166015625,0.014918752190470695,-0.0037080790040083227,-0.0010380378108471632
1761508303294672400,4.55467236328125,0.0218026664853096,0.009225362854450941,0.012797257391316815
1761508303304643600,4.5646435546875,0.024047230541706082,0.007369980778731406,-0.00134481133823283
1761508303314615600,4.574615478515625,0.011025251883268356,-0.00018277268838137387,-0.003584598754812032
1761508303324586800,4.584586669921875,0.014912906971573828,0.0029045440687797963,-0.0023302604453172534
1761508303334558500,4.594558349609375,0.013562076884508133,-0.0021608678283169865,-0.0005277228016871959
1761508303344529700,4.60452978515625,0.014010405173897742,0.00158281221203506,0.005968397751962766
1761508303354500600,4.61450048828125,0.0166962832570076,0.00897118716398254,-0.0035448421331588176
1761508303364472600,4.62447265625,0.016546645653247833,0.0022045608395710584,-0.003924945758236572
1761508303374443500,4.634443603515625,0.022830255967378615,-0.0026737675202079115,-0.005127480815257877
1761508303384415700,4.644415771484375,0.02238251219987869,0.0030471856761723755,0.004507750614872202
1761508303394386400,4.654386474609375,0.027471359771490095,0.003190868463180959,-0.004069340931298211
1761508303404357600,4.664357666015625,0.012657821521162986,-0.005042560744471848,-0.004274754709750413
1761508303414329600,4.67432958984375,0.013704115703701973,-0.011774809875246137,-0.004248314227396622
1761508303424300500,4.684300537109375,0.014152443993091582,-0.0037491964656859635,0.0010854662823025136
1761508303434272500,4.6942724609375,0.017588848182559014,0.0037234409699216484,0.003933613121882081
1761508303444243700,4.70424365234375,0.02103051306903362,0.011030695243366062,-0.0010815207595471293
1761508303454214700,4.714214599609375,0.015793196937441824,0.0007907667852006852,0.00019235336747951804
1761508303464186600,4.7241865234375,0.013843816435337065,-0.008548523038811982,-0.000868407731829211
1761508303474157600,4.734157470703125,0.017284896799921987,-0.0010883797585964203,-0.0009165942551102489
1761508303484129800,4.7441298828125,0.01787818651795387,0.006660882661305367,-0.00045400911150500175
1761508303494100500,4.7541005859375,0.014285130462050438,0.004956398564670235,-0.0025494652871042487
1761508303504071400,4.764071533203125,0.014733458751440047,-0.0021516616085544226,-0.0029265458380337804
1761508303514043600,4.774043701171875,0.01607844361960888,-0.0017958887071348726,0.003729487118218094
1761508303524014600,4.7840146484375,0.016227496701478956,0.0008874320927076041,0.00227737948060967
1761508303533986600,4.793986572265625,0.010089432337880134,0.007143624676950276,0.0032689204017631707
1761508303543957500,4.80395751953125,0.015173603734374045,0.0026232977082952854,0.00229523479770869
1761508303553928700,4.8139287109375,0.02429974399805069,0.0026320472703315317,0.003881234480673447
1761508303563900400,4.823900390625,0.022354455149173735,0.0047262978695333,0.0012020144672133027
1761508303573871600,4.83387158203125,0.021754735690355298,0.006409538248740136,-0.002654167770594358
1761508303583843600,4.843843505859375,0.01771276682317257,0.0011017506968230009,0.0013848693539854138
1761508303593814500,4.853814453125,0.023850246664881704,0.003542677575536072,0.0031626926814671604
1761508303603785500,4.863785400390625,0.021305822879076,0.006300177856441587,-0.0005563735074363648
1761508303613757700,4.8737578125,0.021155016231536865,0.003949870136938989,0.005883541613258421
1761508303623728600,4.883728759765625,0.019803017100691794,-0.00039199499227106566,0.00032442791508510704
1761508303633700600,4.89370068359375,0.014265841239690779,-0.0012839205970056355,0.0009691829588729888
1761508303643671600,4.903671630859375,0.02115092457830906,0.0004458440713584423,0.0054206824750173835
1761508303653642800,4.913642822265625,0.03372048329412937,0.008356306668650358,0.0036863238299265503
1761508303663614500,4.923614501953125,0.023691256710886954,-0.0032526085877791046,0.00216396396770142
1761508303673585700,4.933585693359375,0.016354922473430632,-0.0037299437759444115,0.0026795122744049877
1761508303683557600,4.9435576171875,0.03027005057930946,0.0026648535613901913,0.005409613091731443
1761508303693528600,4.953528564453125,0.02877133645415306,0.008186302130296827,-0.004625422177789732
1761508303703499500,4.96349951171875,0.017098434317111968,0.007203757366351783,0.0016244959292933344
1761508303713471700,4.9734716796875,0.017845453292131424,-0.003333163010701537,0.007494712270097807
1761508303723442400,4.9834423828125,0.01215747078359127,0.0037694903350435193,0.006601891616219655
1761508303733414700,4.99341455078125,0.010362404060363768,0.0036521475656889377,-0.0008089052300900221
1761508303743385600,5.003385498046875,0.013205518531799316,0.0011034859961830078,0.0031051081421785056
1761508303753356800,5.013356689453125,0.019041969600319862,0.007589943672344088,-0.0008375924684572965
1761508303763328500,5.02332861328125,0.026077275064587593,0.006534571134205907,0.00011968999006785452
1761508303773299700,5.0332998046875,0.026076106020808218,-0.0022405089357867836,0.0035736755019985136
1761508303783271400,5.043271484375,0.012163900524377822,0.0032282778641209006,-0.00288657915382646
1761508303793242600,5.05324267578125,0.010814824002981185,0.0033786826528608795,0.004353080642968416
1761508303803213600,5.063213623046875,0.019044892209768294,0.0013559994525276123,0.0006927954365964978
1761508303813185800,5.073185791015625,0.024727029499411583,-0.0013342077458277344,0.001468291587429121
1761508303823156500,5.083156494140625,0.016050386568903924,0.002199884664453566,0.0022956092570442705
1761508303833128700,5.093128662109375,0.015453589719533919,0.00038098040791228414,0.000881294612865895
1761508303843099600,5.103099609375,0.02502981183826923,-0.001454728852957487,-0.0011469050128012895
1761508303853070600,5.113070556640625,0.022336334970593452,-0.0010957593474537133,-0.0009118176152929663
1761508303863042600,5.12304248046875,0.019944471397995947,-0.005034194774925708,0.003913876374950632
1761508303873013500,5.133013427734375,0.020692659416794774,0.0007333740421570837,0.0035199360207654536
1761508303882985500,5.1429853515625,0.02278992395699024,0.0045709977099671955,-0.00016988580734468995
1761508303892956400,5.152956298828125,0.024736966371536252,0.0037356428643688555,-0.00316356946430169
1761508303902927600,5.162927734375,0.011717325800657272,0.009879771642573178,-0.0008196640861220658
1761508303912899600,5.172899658203125,0.021144494837522506,0.0017877419332973658,0.002318816602695733
1761508303922870500,5.18287060546875,0.021292963397502897,-0.0005966507188975811,0.0023935623393394052
1761508303932842500,5.192842529296875,0.01890051530301571,0.003872749780118465,0.001557111515197903
1761508303942813700,5.202813720703125,0.020995441755652426,0.004308090723771601,-0.001887804774288088
1761508303952784600,5.21278466796875,0.0046831893801689145,0.00522734272684902,-0.007223192719183862
1761508303962756600,5.222756591796875,0.019201544076204297,-0.00018799685277044772,0.006040522273257375
1761508303972727600,5.2327275390625,0.032521628898382185,0.0004964782800525426,0.006729335654480383
1761508303982699500,5.242699462890625,0.025934651723504065,-0.0008022928262129426,0.010001900184899567
1761508303992670500,5.25267041015625,0.016805004328489304,0.005787734822276979,0.004556850453605875
1761508304002641700,5.2626416015625,0.01590542514026165,0.0018123649179004131,-0.004559763929899782
1761508304012613600,5.272613525390625,0.0160556472659111,0.009859496039524674,0.007279489483684301
1761508304022584600,5.28258447265625,0.02114332579374313,0.0014929967704229055,0.013761252718418836
1761508304032556500,5.292556640625,0.025482231780886648,0.002056914263498038,0.007862129943538456
1761508304042527700,5.30252783203125,0.018600071051716804,0.005202427481301128,0.006737729023490101
1761508304052498700,5.312498779296875,0.009772621473670005,0.0065131264873780305,-0.0016661431139335036
1761508304062470700,5.322470703125,0.014408464580774306,0.0027189583688043057,0.015756417724164203
1761508304072441600,5.332441650390625,0.0173977095246315,-0.0004908339905552566,0.0008943002249114215
1761508304082412500,5.34241259765625,0.007816811230778693,0.004188208937458694,-0.004313872010586783
1761508304092384500,5.352384521484375,0.01320318044424057,0.006237871476262808,0.0019143913871143012
1761508304102355500,5.36235546875,0.010958031865954398,0.0020541560508310795,-0.00013432130361907182
1761508304112327700,5.37232763671875,0.012156301739811897,-0.001419164349231869,0.0025031327941920606
1761508304122298400,5.38229833984375,0.02517594231069088,-0.001732102755922824,0.00663703599483706
1761508304132270600,5.3922705078125,0.028022563913464544,0.00567216388490051,-0.0033444515896961092
1761508304142241500,5.402241455078125,0.017099603360891343,0.005147665086761117,0.011603435363713652
1761508304152213000,5.412212890625,0.019794249272346496,0.0005345635344274342,0.009400655489275232
1761508304162185000,5.42218505859375,0.017098434317111968,0.001851308688800782,0.0020300993218086657
1761508304172156200,5.43215625,0.011710311537981032,0.000019544950686395168,0.00030450850506313145
1761508304182127900,5.4421279296875,0.013655600386857985,-0.0010427322522737084,-0.001625263114273548
1761508304192099000,5.45209912109375,0.024130232650041578,0.007932217771373689,0.0036447223110590127
1761508304202070000,5.462070068359375,0.010959200909733771,0.008659326469525695,0.006032713426137343
1761508304212042000,5.4720419921875,0.007968786922097206,0.0031080307516269385,-0.005323825371265411
1761508304222013000,5.482012939453125,0.012169161221385002,0.00375646645668894,-0.004105590421613305
1761508304231985200,5.491985107421875,0.0207002582013607,0.00278413255950436,-0.0027824155264534055
1761508304241956000,5.5019560546875,0.030574586483836173,0.00035728900507092475,-0.0015641623104922472
1761508304251926800,5.5119267578125,0.018753800308704376,0.0026998883421532806,-0.005865585831459612
1761508304261899000,5.52189892578125,0.01516425138413906,0.0003932371012866497,0.006682930096331983
1761508304271870000,5.531869873046875,0.009777882170677184,0.001203494038246572,0.004350486827082931
1761508304281842000,5.541842041015625,0.010824760875105857,0.00025209333123639226,0.007608529641805216
1761508304291812900,5.551812744140625,0.017553776869177817,-0.005125179260317236,-0.003976940806955099
1761508304301784000,5.5617841796875,0.01845160249173641,0.0034390345379710194,-0.005936322113266214
1761508304311755800,5.571755859375,0.011268412989377976,0.009505147910211235,0.008803401982178912
1761508304321727000,5.58172705078125,0.019048399341106415,-0.004788512918166816,0.005766144044976681
1761508304331698000,5.591697998046875,0.026831308302283287,-0.0018595102615654468,0.008746420231088995
1761508304341670100,5.601670166015625,0.018300795844197273,0.0026683789590373633,0.0035233335542492568
1761508304351640800,5.611640869140625,0.01366319917142391,-0.0013934271197766064,0.000465197225799784
1761508304361613000,5.621613037109375,0.012167407655715941,0.003685026921983808,0.002246162358438596
1761508304371584000,5.631583984375,0.017407061874866486,-0.00033281215094029903,-0.0017879702621605247
1761508304381556000,5.641555908203125,0.024888357540965078,0.004551069166790694,0.0038714437390211967
1761508304391527000,5.65152685546875,0.013368600139021873,0.0015897899420931935,0.0027177162597887216
1761508304401498000,5.661498046875,0.022350363495945928,-0.0033927111782133578,0.006167336123855784
1761508304411469800,5.6714697265625,0.024298574954271315,0.00508382433662191,-0.0018644695644732564
1761508304421441000,5.68144091796875,0.01247545069158077,0.00033858430460095406,0.00535180022357963
1761508304431412000,5.691411865234375,0.013374445357918738,0.0005498524351045489,0.0040849403592292215
1761508304441384200,5.70138427734375,0.019061843344569205,0.0004512326325289905,0.007374885282712057
1761508304451355000,5.71135498046875,0.021754151168465612,0.003561290944460779,0.0014336129996925591
1761508304461327000,5.7213271484375,0.01950900259017944,0.00831696103895083,-0.004166353298677131
1761508304471298000,5.731298095703125,0.02100479410588741,0.004759396421536803,0.0030164160785730925
1761508304481269000,5.74126904296875,0.02070610342025757,-0.003757598967850208,0.002349019944714382
1761508304491241000,5.751240966796875,0.026990298256278036,0.00462287402767688,0.0013299151632003485
1761508304501212000,5.7612119140625,0.01905950525701046,0.0032807204374112188,0.005815600076736882
1761508304511184000,5.771183837890625,0.014423662149906157,-0.005309321921877563,-0.0008072795285843312
1761508304521154800,5.78115478515625,0.013970657685399054,0.004093516391329467,-0.007153735079010948
1761508304531126000,5.7911259765625,0.016364859345555306,0.0036328948759473856,0.0018562405922450125
1761508304541098000,5.801097900390625,0.030580431702733037,0.0030517705197446046,0.010367701289989054
1761508304551069000,5.81106884765625,0.01381575938463211,-0.005946816107816994,0.00036674182000569997
1761508304561041000,5.821041015625,0.018155834415555,0.005760682418569922,0.0021069913497660307
1761508304571012000,5.83101220703125,0.020256021565198897,0.003749360862467438,0.0008016991711687296
1761508304580983000,5.840983154296875,0.01621346817612648,0.0036786885127425193,0.0010056881775148212
1761508304590955000,5.850955078125,0.023095628905296324,-0.000020622662920504806,-0.0006973072149325162
1761508304600926000,5.860926025390625,0.02354337267279625,-0.0028110753653571006,0.008132060325564816
1761508304610898000,5.87089794921875,0.019501988327503203,0.006823343214020132,-0.0003983882004395127
1761508304620868900,5.880868896484375,0.023844985967874526,0.002405983429495245,-0.0020309121725615113
1761508304630840000,5.890840087890625,0.012620412120223044,0.0021156769797205923,0.004143639143370092
1761508304640812000,5.90081201171875,0.022346271842718122,0.0009661416184157133,0.005170214845286682
1761508304650783000,5.910782958984375,0.017557868522405623,0.0016095906211063265,0.0014262882097624242
1761508304660755000,5.9207548828125,0.006938274830579757,0.005260660474561155,0.006396349973604083
1761508304670726100,5.93072607421875,0.012476035213470458,0.0020881861845962702,0.001572053356003016
1761508304680697000,5.940697021484375,0.015169512081146239,0.005055931682698429,0.0011563212951179592
1761508304690669000,5.9506689453125,0.025046178451180456,0.004012066919263452,0.005367353985738009
1761508304700640000,5.960639892578125,0.01906125882267952,0.004463062089774757,0.013172940569603815
1761508304710612000,5.970612060546875,0.02220306397974491,0.0007764277325943112,0.007582061759987845
1761508304720583000,5.9805830078125,0.010078910943865775,0.001945033120550215,0.0048181317382957785
1761508304730554000,5.99055419921875,0.01995265470445156,0.0012054485333152115,0.00032823644052259624
1761508304740526000,6.000526123046875,0.02833352955877781,0.00004248743485659361,-0.0008009593856520951
1761508304750497000,6.0104970703125,0.022649054181575774,-0.00025311624454334375,0.00012600099984556436
1761508304760469000,6.020468994140625,0.021903204250335692,0.007727288050111383,0.005959483793145045
1761508304770440200,6.030440185546875,0.015618424892425537,0.005764591408707201,0.006129470065189525
1761508304780411000,6.040410888671875,0.01741758326888084,0.005331351090595126,0.00266508189025335
1761508304790383000,6.050383056640625,0.02085807911157608,0.002924600476119667,0.008291123344795778
1761508304800354000,6.06035400390625,0.016368950998783112,0.0018497195199131964,0.006360210081143305
1761508304810326000,6.070325927734375,0.022059856116771696,0.006654580784682184,0.002656825518561527
1761508304820297000,6.080296875,0.019516016852855683,-0.0005188545086421072,-0.0014133373966440557
1761508304830268000,6.090267822265625,0.026101824983954428,0.0016030512824654578,0.0024116916510742155
1761508304840240000,6.100240234375,0.01323708271384239,0.002658515152148902,0.0011415803837124257
1761508304850210800,6.1102109375,0.017579495832324026,0.0048432570463977755,0.0006958276438992471
1761508304860183000,6.12018310546875,0.020427286478877066,0.0008608363467268645,0.009515048249717802
1761508304870154000,6.130154052734375,0.020277064353227615,-0.002734155937936157,0.005350357185164466
1761508304880125000,6.140125,0.026711481314897537,-0.0012877199892885982,0.0050813583848997946
1761508304890097000,6.150096923828125,0.020275310787558554,0.006415401733946054,0.0049291452315635975
1761508304900068000,6.160068115234375,0.019975451058149338,-0.00029653526116162537,0.010784529329417272
1761508304910039800,6.170039794921875,0.02910685201883316,-0.004143639143370092,0.003202102243248373
1761508304920011000,6.180010986328125,0.021923662516474724,-0.0006897175635211169,0.006209832691866904
1761508304929982000,6.18998193359375,0.0184825821518898,0.005885770102962851,0.004711675689136609
1761508304939954000,6.199953857421875,0.02013034935891628,0.0011021525556221604,-0.001365360935917124
1761508304949924900,6.2099248046875,0.016238602617383004,0.002990158259309828,-0.0015450740175321697
1761508304959897000,6.21989697265625,0.015339607951045036,-0.000025846827309578655,0.0027511801379732784
1761508304969868000,6.229867919921875,0.01983107415139675,-0.0012106544313952327,-0.0016942823630291968
1761508304979839000,6.2398388671875,0.0174368724912405,0.009453655184991657,0.003641078182402998
1761508304989811000,6.24981103515625,0.021472996139526367,-0.003358169587794691,0.0035179267267696555
1761508304999782100,6.2597822265625,0.021174889975786208,-0.0004265365826897323,0.0030824031200259922
1761508305009753900,6.26975390625,0.01504091726541519,-0.003332414092030376,0.0013107538050040602
1761508305019725000,6.27972509765625,0.01324760410785675,0.0009757131643593311,-0.004583254403341562
1761508305029696000,6.289696044921875,0.017591770792007445,0.0064425272028893225,-0.001905870153941214
1761508305039668000,6.29966796875,0.01025952820777893,0.0031744105187244713,0.007054001031583174
1761508305049639000,6.309638916015625,0.008165770798921584,-0.0016933233818039297,0.012176111551979556
1761508305059611100,6.319611083984375,0.014005144476890562,0.0026988471625372765,0.009830260811885818
1761508305069582000,6.32958203125,0.015652327162027357,0.003914122970122844,0.001926575015252456
1761508305079552800,6.339552734375,0.010262450817227363,0.0022490941010415554,0.002109813494514674
1761508305089525000,6.34952490234375,0.02193476843237877,-0.006214782861620188,-0.0018402119060512631
1761508305099496000,6.359495849609375,0.020289339312911034,0.0005708769568242133,0.0022741189444437622
1761508305109468000,6.369468017578125,0.022237550771236417,0.0050601694663986565,0.0012431593283545226
1761508305119438800,6.37943896484375,0.012065700846910476,-0.00045011838767677545,0.0023789492920972405
1761508305129410000,6.38941015625,0.011622048732638359,0.00014550941791385412,0.0037182898707687853
1761508305139381800,6.3993818359375,0.028984102421998975,-0.006143471191078424,0.0021795542624779046
1761508305149352700,6.409352783203125,0.019259996265172958,0.003998056660220027,-0.0016518588602542877
1761508305159324700,6.41932470703125,0.009233692291378975,0.0033325236898846923,0.005420910803880542
1761508305169296000,6.4292958984375,0.015370003089308738,0.00381857190746814,0.0015750581638421862
1761508305179266800,6.439266845703125,0.017915011397004126,0.004068308884836733,-0.007140455472329631
1761508305189238800,6.44923876953125,0.0215063138872385,0.0018572635055519638,-0.00792089265976101
1761508305199209700,6.459209716796875,0.018813421541452408,0.00265431390106678,0.007374118097731843
1761508305209181700,6.469181640625,0.020610241830348968,0.002326397120952606,0.010916074154060334
1761508305219152600,6.479152587890625,0.015521394258737563,-0.001176423368230462,0.004465354511560872
1761508305229123600,6.48912353515625,0.02853811222016811,-0.0008649827988818288,0.003947605114616453
1761508305239095800,6.499095703125,0.011778116077184677,0.004137556462455541,0.004217681627115235
1761508305249066500,6.50906640625,0.02000701524019241,0.00016881722826510667,-0.004352824914641678
1761508305259038700,6.519038818359375,0.016264321580529213,-0.003513762008305639,-0.0031223424047697335
1761508305269009700,6.529009765625,0.012371990317106247,0.0029319435323588547,0.0019229582860600203
1761508305278980600,6.538980712890625,0.027038229051232335,-0.0028393333454616366,0.0023612127060070633
1761508305288952600,6.54895263671875,0.02868424269258976,-0.002866933738440275,0.013496701764408498
1761508305298923800,6.558923828125,0.01836100159883499,-0.00322537352098152,0.002983783317450434
1761508305308895500,6.5688955078125,0.02674129193127155,0.004631386127695441,-0.0010048844599165022
1761508305318866700,6.57886669921875,0.01551847164928913,0.0011788162547163666,0.004573975118342787
1761508305328837600,6.588837646484375,0.013128361642360687,-0.0021907880425453183,0.006944750237138942
1761508305338809900,6.598809814453125,0.01731879906952381,0.002952858456224203,-0.003447820632625371
1761508305348780500,6.608780517578125,0.017916764962673186,0.001279481883905828,-0.001123935129167512
1761508305358752800,6.618752685546875,0.017919687572121618,-0.0009906732714734972,0.011956404386693611
1761508305368723700,6.6287236328125,0.013732172754406928,-0.003264682618062943,0.006421100822370499
1761508305378694700,6.638694580078125,0.02001753663420677,0.0026458931325934825,0.00853190069757402
1761508305388666600,6.64866650390625,0.019116203880310056,0.0026367965106852353,0.0009519943620543926
1761508305398637800,6.658637939453125,0.03228431301116943,-0.0010368139681406318,0.007345019867410883
1761508305408609500,6.668609619140625,0.01612228276133537,-0.002980239653494209,-0.00006775887343101203
1761508305418580700,6.678580810546875,0.01837152299284935,0.0031429011356085535,0.004799737565079704
1761508305428551700,6.6885517578125,0.012385434320569037,-0.0035445042064413427,0.004763323677983135
1761508305438523600,6.698523681640625,0.01492985810637474,0.0003632072892040014,0.0026095157781150192
1761508305448494600,6.70849462890625,0.018218962779641152,0.0028141441052779554,-0.003398282402474433
1761508305458466800,6.718466796875,0.014328385081887244,-0.0038149734445847567,0.0024716234110761432
1761508305468437800,6.728437744140625,0.018819266760349274,-0.0009014423517510295,-0.004908275973470881
1761508305478408700,6.73840869140625,0.025551205363869664,-0.006371726989001035,0.007219795185700059
1761508305488380700,6.748380615234375,0.01672317126393318,0.0067206865571439265,0.007286467213742435
1761508305498351900,6.758351806640625,0.007146364623308182,0.0001293437344022095,0.0010155245849397033
1761508305508323600,6.768323486328125,0.011935352465510368,0.004154580662492662,-0.003045231181103736
1761508305518294800,6.778294677734375,0.02196516357064247,0.002273826683498919,0.0013763663871213794
1761508305528265700,6.788265625,0.018522914162278175,-0.0010116795268841087,0.0046945692907087505
1761508305538237700,6.79823779296875,0.01492985810637474,0.006350026613846421,0.002355458818655461
1761508305548208600,6.808208740234375,0.026008301481604573,0.003928918680455536,-0.001489206511294469
1761508305558180900,6.818180908203125,0.012093757897615432,0.004056435783952475,0.0044007191769778724
1761508305568151800,6.82815185546875,0.023323592442274093,-0.0010958506789989768,0.008444880001246928
1761508305578122500,6.83812255859375,0.021377719071507453,-0.0007049151326529681,-0.002517088254308328
1761508305588094700,6.8480947265625,0.01792962444424629,-0.002508548754826188,0.0006932338280137628
1761508305598065700,6.858065673828125,0.014040215790271758,0.005186444460880011,0.0029826690725982185
1761508305608037600,6.86803759765625,0.02151858884692192,-0.00010766162555664777,0.0010077614035923033
1761508305618008600,6.878008544921875,0.015829437294602393,-0.0025053704170510172,0.0020470961223822085
1761508305627979800,6.887979736328125,0.011939444118738174,0.00009299377938732505,0.0064806033241096885
1761508305637951500,6.897951416015625,0.020470541098713872,0.007835515931248664,0.011525337759358809
1761508305647922700,6.907922607421875,0.02331540913581848,0.00434162766719237,0.004413998783659189
1761508305657894700,6.917894775390625,0.023013211318850518,0.00278791368547827,-0.0037294049198273566
1761508305667865900,6.927865966796875,0.025404490369558334,-0.005144340618513524,-0.0030886958634946493
1761508305677836500,6.93783642578125,0.023310732960700988,-0.0021888152811676263,0.000949080885760486
1761508305687808800,6.947808837890625,0.013590133935213088,0.0013586480673402547,0.004094950296590105
1761508305697779700,6.95777978515625,0.006409867042303085,-0.003517360471189022,0.0012303181130904704
1761508305707751700,6.967751708984375,0.01957739165127277,-0.0009974135395139456,0.005469033395079896
1761508305717722600,6.97772265625,0.02271978133022785,0.0011566044229082762,-0.0023245156911201772
1761508305727693800,6.98769384765625,0.023769582644104958,-0.0050709283224307,0.0030552959173917767
1761508305737665500,6.99766552734375,0.017189619731903076,-0.001088087497651577,0.004553516852203756
1761508305747636700,7.00763671875,0.01344751059412956,-0.005721245457325131,0.001787951995851472
1761508305757607700,7.017607666015625,0.023176292926073074,-0.00371251771710813,0.014622627921262754
1761508305767580000,7.027579833984375,0.020783260309696197,-0.0026991576897911727,0.006639374082395806
1761508305777550600,7.037550537109375,0.015994856989383698,-0.0038654615228064355,0.010200783757865428
1761508305787522800,7.047522705078125,0.022284897044301033,-0.008274071745295077,0.003579475055122748
1761508305797493800,7.05749365234375,0.02453063014447689,0.00034709640461951495,0.014194885762175544
1761508305807464700,7.067464599609375,0.023185645276308058,-0.002717076938971877,-0.003486380811035633
1761508305817436700,7.077436767578125,0.024233693024516105,0.0003252133663743734,-0.003292730535613373
1761508305827407600,7.08740771484375,0.023187398841977118,0.0010757394727319478,0.002434323607990518
1761508305837379600,7.097379638671875,0.01570668769776821,0.0002833287197165191,0.002726374490279704
1761508305847350500,7.1073505859375,0.02348492048382759,0.004167787203937769,0.00003800305598415434
1761508305857322800,7.11732275390625,0.024682021313905716,0.00744589555915445,0.004407221983000636
1761508305867293700,7.127293701171875,0.029320202508568764,0.0026260376546531914,0.01106125477841124
1761508305877264600,7.1372646484375,0.02273322533369064,-0.003394044618774205,0.000029317426029592752
1761508305887236600,7.147236572265625,0.019590251132845876,-0.004631386127695441,0.004749039424303918
1761508305897207800,7.157207763671875,0.01151040505170822,-0.007223192719183862,0.005706084420811384
1761508305907178800,7.1671787109375,0.012857728007435797,0.00702281130887568,0.0031995723594445734
1761508305917150700,7.177150634765625,0.023035423150658606,-0.005305011072941124,0.0029886878214310853
1761508305927121700,7.18712158203125,0.027376082703471184,-0.004719192275311797,0.006832768629491329
1761508305937093600,7.19709375,0.015856325301527977,-0.0038377332656644282,0.0031437322526704516
1761508305947064600,7.207064697265625,0.01436345639526844,-0.00740457716807723,0.006668143519153818
1761508305957036800,7.217036865234375,0.023343466186523436,0.0052017698941752314,0.003741168422857299
1761508305967007700,7.2270078125,0.027827333602309226,0.0036999504964798685,0.007302678563026711
1761508305976978700,7.236978759765625,0.0185480486035347,0.000993906408175826,0.0072918375086039305
1761508305986950700,7.24695068359375,0.02991933744549751,-0.006030859395768493,0.002004800483770668
1761508305996921900,7.256921875,0.018398410999774933,-0.003460113858617842,0.0022185619654599576
1761508306006892800,7.266892822265625,0.030220950740575788,-0.002442881373781711,0.005191458562714979
1761508306016864800,7.27686474609375,0.025429624810814858,0.002306413778848946,0.008077836787141858
1761508306026835700,7.286835693359375,0.023483751440048217,-0.0025439671280793846,0.01357219641972333
1761508306036807700,7.2968076171875,0.020191724157333373,-0.005114438670594245,0.002092423968296498
1761508306046778600,7.306778564453125,0.021987959924340248,-0.003240589356422424,0.0028461649450473485
1761508306056750800,7.316750732421875,0.015256021320819853,-0.006890033508371561,0.007008727984596044
1761508306066721800,7.3267216796875,0.014803601378202438,-0.006066716160438954,0.0017634568754117935
1761508306076692700,7.336692626953125,0.013006781089305877,-0.0014035283886827527,0.006873411167133599
1761508306086664700,7.346664794921875,0.014203881919384001,-0.006370667543075978,0.002717798458179459
1761508306096636000,7.356635986328125,0.021835984233021737,-0.00790792358033359,0.0018509616289287805
1761508306106606800,7.36660693359375,0.012708090403676032,-0.003540686547849327,0.0011997129122726618
1761508306116578800,7.376578857421875,0.018092706051468847,-0.00838474731184542,0.0054151934491470455
1761508306126549800,7.3865498046875,0.01869301003217697,-0.00501064950255677,0.005248321582796052
1761508306136521700,7.396521728515625,0.024678514182567595,-0.005466631375439465,0.004237409240892157
1761508306146492700,7.40649267578125,0.020040917509794233,-0.007796243366785347,0.00787073337510228
1761508306156463600,7.416463623046875,0.029769699841737746,-0.004884721567947417,0.0006080488957464694
1761508306166435800,7.426435791015625,0.019593758264183997,-0.002492017745133489,0.005304819276696071
1761508306176406500,7.436406494140625,0.009119126001000405,-0.001324855395592749,0.004314118605758995
1761508306186378800,7.446378662109375,0.017949498188495634,-0.0031799269440583883,0.0039649489750619975
1761508306196349700,7.456349609375,0.020495675539970396,-0.003583027852233499,0.001405994340404868
1761508306206320600,7.466320556640625,0.02588029118776321,-0.00933857743795961,0.004316575424326584
1761508306216292600,7.476292724609375,0.03231237006187439,-0.007459047301672399,0.0026852752949111163
1761508306226263800,7.486263916015625,0.023937340426445006,-0.0017555566967464983,0.012001814430998637
1761508306236235500,7.496235595703125,0.018998130458593367,-0.0006220226221717894,0.006419657783955335
1761508306246206700,7.506206787109375,0.012563713496923446,-0.0029049093949608503,-0.004140223343577235
1761508306256177700,7.516177734375,0.012411153283715247,-0.0013639452969655393,0.0013704207035247235
1761508306266149600,7.526149658203125,0.012860066094994545,0.004812295652553439,-0.003193891537329182
1761508306276120600,7.53612060546875,0.010316811352968216,0.004208466274198144,0.0012857289616018534
1761508306286092800,7.5460927734375,0.02169160732626915,-0.002003905434627086,0.0028690891629084944
1761508306296063700,7.556063720703125,0.013912205496430395,-0.0038026254196651278,0.002046630331501365
1761508306306034700,7.56603466796875,0.008972995528578758,0.0001317914198152721,0.003722892980650067
1761508306316006700,7.576006591796875,0.014063012143969536,-0.0067869567263871425,0.004958800584310665
1761508306325977900,7.585977783203125,0.028279169023036954,-0.008073087546788156,-0.0018194613789673895
1761508306335949600,7.595949462890625,0.009423077383637428,-0.004181176408473402,-0.0003669884151779115
1761508306345920800,7.605920654296875,0.014210311660170553,-0.005025207750871777,0.00577345970175229
1761508306355891700,7.6158916015625,0.017352701339125632,-0.007274393183458596,0.000835564908152446
1761508306365863700,7.62586376953125,0.025732407149672506,-0.0045643305071629585,0.007267260189773515
1761508306375834600,7.635834716796875,0.025136779344081876,-0.0006193922736681997,0.005677333250362426
1761508306385806800,7.645806884765625,0.021844167539477346,0.0010207030835561453,0.004548064358951524
1761508306395777800,7.65577783203125,0.020647066709399222,-0.003318823958095163,0.004377447899244725
1761508306405748500,7.66574853515625,0.00613689531981945,-0.006410341966338455,0.002121540464926511
1761508306415720700,7.675720703125,0.014211480703949928,0.0029032106282189485,-0.002394822714664042
1761508306425691600,7.685691650390625,0.0164566292822361,-0.0002494081838056445,0.0010285941290669144
1761508306435663600,7.69566357421875,0.01914659901857376,-0.001967391082830727,0.012222444044891744
1761508306445634600,7.705634521484375,0.020047347250580785,0.0023389278089627624,-0.004659315314237028
1761508306455605800,7.715605712890625,0.01421089618206024,-0.008783610436320304,0.008696836335165426
1761508306465577700,7.72557763671875,0.01929506757855415,0.0022470482744276522,0.004883013668050989
1761508306475548700,7.735548583984375,0.013008534654974936,-0.003711403472255915,-0.0013006160034798086
1761508306485520600,7.745520751953125,0.01689443617761135,-0.007890826315060257,0.00010553360055200755
1761508306495491800,7.755491943359375,0.025424364113807676,-0.0017359752134419976,0.008452926310384646
1761508306505462500,7.765462646484375,0.020485738667845727,0.00372959671607241,0.004634354402916506
1761508306515434800,7.775434814453125,0.014646364989876747,0.004807290683872998,0.008188914212491363
1761508306525405700,7.78540576171875,0.019431845700740812,-0.004204064093716442,0.003608783347997814
1761508306535377700,7.795377685546875,0.014641104292869567,-0.00211255344087258,0.003993079091003164
1761508306545348600,7.8053486328125,0.0207744924813509,-0.0002995857347734272,-0.0038274128010496494
1761508306555319800,7.81531982421875,0.017625088539719582,0.004017528545670211,-0.0018010854720603674
1761508306565291500,7.82529150390625,0.0031067338436841963,-0.0005767039094120264,0.009663471143925562
1761508306575262700,7.8352626953125,0.01597322967946529,-0.00020326748713850974,0.009727028766274452
1761508306585234700,7.845234619140625,0.02180383552908897,0.003039641690533608,0.0046628133124206215
1761508306595206000,7.855205810546875,0.018510639202594756,-0.00728893316546455,0.002439629970770329
1761508306605176600,7.865176513671875,0.017760113096237182,-0.006032338966801762,-0.0017379845074377953
1761508306615148800,7.875148681640625,0.023144728744029997,-0.000996390626206994,0.005620945154316723
1761508306625119700,7.88511962890625,0.02434182957410812,0.0018285488677211104,0.0038314953211229293
1761508306635091700,7.895091796875,0.019104513442516326,-0.005369089285098016,0.00459512750422582
1761508306645062700,7.905062744140625,0.02763619494438171,-0.0021392039857804773,0.015304591436590999
1761508306655033600,7.91503369140625,0.015816577813029288,0.004047467026207596,0.006963747198553755
1761508306665005600,7.925005615234375,0.018811667975783347,-0.001145936898421496,0.004381064628437161
