time,seconds_elapsed,z,y,x
1761508298847430000,0.107429931640625,0.0004385290667414665,-0.0006071742391213775,-0.00010298914276063442
1761508298857400800,0.11740087890625,-0.0012326044961810112,0.0004050931893289089,0.000841101398691535
1761508298867373000,0.127373046875,0.0004340019077062607,0.002512719016522169,0.002299714833498001
1761508298877344000,0.137343994140625,-0.0000024689361453056335,-0.00029527395963668823,0.0029651387594640255
1761508298887316000,0.14731591796875,-0.0024230163544416428,0.0008040788816288114,0.0011251609539613128
1761508298897287000,0.157286865234375,0.0005204137414693832,-0.0021222280338406563,0.002364460611715913
1761508298907258000,0.167258056640625,-0.0016860151663422585,-0.0015483169117942452,-0.0005378522328101099
1761508298917229800,0.177229736328125,-0.0006981608457863331,0.00021968060173094273,-0.00205535558052361
1761508298927201000,0.187200927734375,-0.0004520849324762821,-0.0011667609214782715,-0.0010737143456935883
1761508298937172000,0.197171875,0.0003052167594432831,-0.001679436070844531,0.0018205809174105525
1761508298947144000,0.20714404296875,0.000005611218512058258,0.0007885152590461075,0.0035463091917335987
1761508298957115000,0.217114990234375,-0.0002815821208059788,0.0013310274807736278,0.001979174092411995
1761508298967087000,0.227087158203125,0.0005258885212242603,-0.0012735440395772457,0.0013706418685615063
1761508298977058000,0.23705810546875,-0.0019400944001972675,0.0004170043393969536,-0.0009320624521933496
1761508298987029000,0.247029052734375,0.0003747250884771347,0.0004966327687725425,-0.0008638855069875717
1761508298997001000,0.2570009765625,-0.0031436672434210777,-0.0024170144461095333,0.0017022680258378386
1761508299006972200,0.26697216796875,-0.0015172753483057022,-0.00199144147336483,-0.001149977557361126
1761508299016943900,0.27694384765625,-0.0005464158020913601,-0.0011490160832181573,-0.00033600261667743325
1761508299026915000,0.2869150390625,-0.001303552184253931,-0.0003609866835176945,-0.002580781001597643
1761508299036886000,0.296885986328125,0.0003584800288081169,-0.000513770617544651,-0.0003933049738407135
1761508299046858000,0.30685791015625,-0.002532913815230131,-0.00018859852571040392,0.00044053071178495884
1761508299056829000,0.316828857421875,0.0007138936780393124,0.0010425163200125098,-0.00044543028343468904
1761508299066799900,0.3267998046875,-0.0011484548449516296,-0.002722926903516054,0.001136753591708839
1761508299076772000,0.336772216796875,0.000308942049741745,-0.0003904229961335659,-0.00037023844197392464
1761508299086742800,0.34674267578125,0.0012610224075615406,0.00007403234485536814,0.0019951811991631985
1761508299096715000,0.356715087890625,-0.002412134315818548,0.0023835489992052317,0.0025408125948160887
1761508299106686000,0.36668603515625,0.00016633840277791023,0.002693274524062872,-0.0012195707531645894
1761508299116657000,0.376656982421875,0.0016653314232826233,-0.0006455469410866499,0.000349269132129848
1761508299126628900,0.38662890625,0.0008322945795953274,0.0013124089455232024,-0.003944811876863241
1761508299136600000,0.39660009765625,0.00031358469277620316,0.0006278113578446209,0.0014802166260778904
1761508299146571500,0.406571533203125,0.00017589889466762543,-0.0007751418743282557,0.0008415908087044954
1761508299156542500,0.41654248046875,0.0004083053208887577,-0.00018392817582935095,0.00027262885123491287
1761508299166513400,0.426513427734375,0.0012975349090993404,-0.0011767545947805047,0.0011666519567370415
1761508299176485600,0.436485595703125,-0.00010465690866112709,-0.0007375676650553942,-0.00044263596646487713
1761508299186456300,0.446456298828125,0.000164056196808815,-0.0011583471205085516,-0.00003943336196243763
1761508299196427300,0.45642724609375,0.0007402305491268635,0.0006676288903690875,0.004124960862100124
1761508299206399500,0.4663994140625,-0.0013231863267719746,0.0003400600980967283,-0.0007161331595852971
1761508299216370400,0.476370361328125,-0.00003369152545928955,0.0014541902346536517,-0.0019462063210085034
1761508299226342400,0.48634228515625,0.00139269744977355,0.0021849616896361113,-0.003147558309137821
1761508299236313300,0.496313232421875,0.00021591875702142715,-0.0012038088170811534,-0.00022536865435540676
1761508299246284500,0.506284423828125,-0.0013774503022432327,0.0018202107166871428,0.0008231177926063538
1761508299256256300,0.51625634765625,-0.0003971122205257416,0.0017349043628200889,0.0008842295501381159
1761508299266227500,0.5262275390625,0.0022679129615426064,-0.0009911073138937354,-0.0006625343230552971
1761508299276199400,0.536199462890625,0.0005190283991396427,-0.00010871130507439375,0.0011418198700994253
1761508299286170400,0.54617041015625,-0.002467174082994461,-0.0002495924709364772,0.0017604720778763294
1761508299296141300,0.556141357421875,-0.0021125981584191322,-0.0012377381790429354,0.0018624584190547466
1761508299306113500,0.566113525390625,0.0013702837750315666,0.00011860975064337254,0.003318142145872116
1761508299316084500,0.57608447265625,-0.0027343900874257088,0.0008966152090579271,-0.0025948896072804928
1761508299326056400,0.586056396484375,0.00022651255130767822,-0.0031223611440509558,-0.00013119925279170275
1761508299336027400,0.59602734375,-0.00026495521888136864,-0.0008420041995123029,0.0029776841402053833
1761508299345998600,0.60599853515625,0.0011499817483127117,0.00035109196323901415,0.00040533673018217087
1761508299355970300,0.61597021484375,0.000382221769541502,0.0007599855889566243,0.000527556287124753
1761508299365941500,0.62594140625,0.0010115266777575016,-0.0005726601229980588,-0.004348691552877426
1761508299375913500,0.63591357421875,-0.0011753891594707966,-0.0004547636490315199,-0.001724098576232791
1761508299385884400,0.645884521484375,-0.00041771912947297096,-0.00006940425373613834,0.0016269569750875235
1761508299395855400,0.65585546875,0.0012660031206905842,-0.0008317650062963367,-0.0014288511592894793
1761508299405827600,0.66582763671875,-0.0007252423092722893,0.001496370299719274,0.001603424083441496
1761508299415798500,0.675798583984375,0.0006913216784596443,-0.0006624733796343207,0.000857864273712039
1761508299425769500,0.68576953125,-0.0012181643396615982,-0.001814290531910956,0.00013295188546180725
1761508299435741400,0.695741455078125,-0.0020367843098938465,0.000963437429163605,0.0018792712362483144
1761508299445712600,0.705712646484375,0.001256746705621481,0.0003008429193869233,-0.0011327640386298299
1761508299455684400,0.715684326171875,0.0001414567232131958,0.0009537742007523775,0.0015714524779468775
1761508299465655600,0.725655517578125,0.0007598423399031162,-0.0020004701800644398,0.0005330860149115324
1761508299475626500,0.73562646484375,-0.0003690687008202076,-0.0027524365577846766,-0.0008577322587370872
1761508299485598500,0.745598388671875,0.0006043165922164917,0.00017704046331346035,0.0023606978356838226
1761508299495569400,0.7555693359375,-0.0023938468657433987,0.002227345947176218,0.0001959491055458784
1761508299505541600,0.765541748046875,-0.0006334972567856312,0.00008802872616797686,-0.00122724415268749
1761508299515512600,0.7755126953125,-0.0003089122474193573,0.0007798233418725431,0.0024520033039152622
1761508299525483300,0.785483154296875,-0.0015973495319485664,0.0004205629229545593,0.00012653099838644266
1761508299535455500,0.79545556640625,-0.0008620675653219223,0.0013796022394672036,-0.002968803746625781
1761508299545426400,0.805426513671875,-0.001425592228770256,0.0027633807621896267,-0.00163855473510921
1761508299555398400,0.8153984375,-0.00011502858251333237,0.0005330720450729132,-0.0025508622638881207
1761508299565369300,0.825369384765625,0.004328189417719841,-0.0004269975470378995,0.0008153732633218169
1761508299575340500,0.835340576171875,0.00038779759779572487,0.0024183678906410933,-0.0004555571940727532
1761508299585312300,0.845312255859375,-0.001390662044286728,0.001477739424444735,0.0024888338521122932
1761508299595283500,0.855283447265625,0.00012742960825562477,-0.001820733887143433,0.0005863418336957693
1761508299605255400,0.86525537109375,-0.000716792419552803,-0.0019014276331290603,0.0011804931564256549
1761508299615226600,0.8752265625,-0.0009149415418505669,0.00010860827751457691,0.0005942235002294183
1761508299625197300,0.885197265625,0.001950086560100317,0.002566173207014799,0.00022191356401890516
1761508299635169500,0.89516943359375,-0.00025354139506816864,0.0005558087723329663,0.0003641756484284997
1761508299645140500,0.905140380859375,0.0005597881972789764,-0.0010639256797730923,0.0009743059054017067
1761508299655112400,0.915112548828125,0.0009770332835614681,0.0012095978017896414,-0.0017992575885728002
1761508299665083400,0.92508349609375,-0.0006538862362504005,0.00034034205600619316,-0.0023470697924494743
1761508299675054600,0.9350546875,-0.00011362647637724876,0.0004681631689891219,-0.002376360585913062
1761508299685026300,0.9450263671875,-0.0004702238366007805,-0.0019494545413181186,0.00043327431194484234
1761508299694997500,0.95499755859375,0.0013257716782391071,-0.0001996301580220461,-0.000013715471141040325
1761508299704969500,0.964969482421875,-0.0010638823732733727,0.002313861157745123,-0.0005580655997619033
1761508299714940700,0.974940673828125,-0.002144823782145977,-0.000362253631465137,-0.00042287789983674884
1761508299724911400,0.984911376953125,-0.000893937423825264,0.00043909146916121244,-0.0007837362354621291
1761508299734883600,0.994883544921875,-0.0007547847926616669,0.00021036830730736256,0.0018822657875716686
1761508299744854500,1.0048544921875,-0.0012163100764155388,-0.0015345349675044417,-0.001174776698462665
1761508299754826500,1.014826416015625,0.00042857974767684937,0.0017157879192382097,-0.0012035468826070428
1761508299764797400,1.02479736328125,-0.0019464269280433655,0.0007487940602004528,0.002047107554972172
1761508299774768400,1.034768310546875,-0.0018639406189322472,0.0010630490723997355,0.00021160859614610672
1761508299784740400,1.044740234375,0.0015893802046775818,-0.0016440541949123144,-0.0005324786179699004
1761508299794711300,1.054711181640625,-0.0005178507417440414,0.0015984501224011183,0.002551525831222534
1761508299804683500,1.06468359375,0.00003289105370640755,0.0010309304343536496,0.0014053013874217868
1761508299814654500,1.074654541015625,-0.0024819443933665752,-0.000036419834941625595,-0.0006143360515125096
1761508299824625400,1.08462548828125,0.002707491163164377,0.00011191819794476032,-0.0032463381066918373
1761508299834597400,1.094597412109375,0.0018793409690260887,-0.00016806053463369608,0.002430957043543458
1761508299844568600,1.104568603515625,-0.0023420359939336777,0.0010237040696665645,-0.0009315501665696502
1761508299854540300,1.114540283203125,0.0004969448782503605,0.0007060067146085203,0.0010716997785493731
1761508299864511500,1.124511474609375,-0.00022557098418474197,0.0005062696291133761,0.0022445558570325375
1761508299874482400,1.134482421875,0.0013985964469611645,-0.002041424857452512,0.00039433548226952553
1761508299884454400,1.144454345703125,0.00011814851313829422,0.0007322573219425976,0.0003381427377462387
1761508299894425300,1.15442529296875,0.000817401334643364,0.0007535124896094203,-0.0015589864924550056
1761508299904396500,1.164396484375,-0.002372799441218376,-0.00027047295588999987,-0.002646355191245675
1761508299914368500,1.174368408203125,-0.00043755071237683296,0.0007721288711763918,-0.00027648708783090115
1761508299924339500,1.18433935546875,0.0008895020000636578,-0.003008494386449456,0.0004718612181022763
1761508299934311400,1.1943115234375,0.00021080393344163895,0.0017632710514590144,0.001063159666955471
1761508299944282600,1.20428271484375,0.0008875131607055664,-0.0009747248841449618,-0.0012836179230362177
1761508299954253300,1.21425341796875,-0.0012702089734375477,0.00048510252963751554,-0.0008090789197012782
1761508299964225500,1.2242255859375,0.0005388767458498478,-0.0011990804923698306,0.001866332720965147
1761508299974196500,1.234196533203125,-0.0020229406654834747,0.0018310161540284753,-0.0012431208742782474
1761508299984168400,1.24416845703125,0.0005051987245678902,0.00031860696617513895,-0.0001882427604869008
1761508299994139400,1.254139404296875,0.0005025686696171761,0.0010133238974958658,0.0011612201342359185
1761508300004110300,1.2641103515625,0.0012522484175860882,0.0008689804817549884,-0.0008649128722026944
1761508300014082300,1.274082275390625,-0.00030017830431461334,-0.0027135363779962063,-0.0008879965171217918
1761508300024053200,1.28405322265625,-0.0015601199120283127,-0.0010922035435214639,0.0006744801066815853
1761508300034025500,1.294025390625,0.001888425089418888,-0.0006906774360686541,-0.0010129361180588603
1761508300043996400,1.303996337890625,-0.0005174744874238968,0.0007799200247973204,0.00034607492852956057
1761508300053967400,1.31396728515625,-0.0003869105130434036,-0.0012621994828805327,-0.001564130070619285
1761508300063939300,1.323939208984375,-0.00020368536934256554,0.0008587418706156313,-0.0004818213637918234
1761508300073910500,1.33391064453125,0.0016135028563439846,0.0030060249846428633,-0.0005075312219560146
1761508300083882500,1.343882568359375,-0.00034418748691678047,0.00007787940558046103,-0.0008990159258246422
1761508300093853400,1.353853515625,0.001366443932056427,-0.000012739677913486958,-0.00028006447246298194
1761508300103824400,1.363824462890625,0.0015810946933925152,-0.00032246531918644905,-0.0016558534698560834
1761508300113796400,1.37379638671875,0.00029298942536115646,-0.0006462106248363853,-0.0021136924624443054
1761508300123767300,1.383767333984375,0.00035717152059078217,0.00021532189566642046,0.00027276622131466866
1761508300133739500,1.393739501953125,0.00013234838843345642,0.0009515751153230667,0.0014441566308960319
1761508300143710500,1.40371044921875,0.00015605054795742035,-0.0006143635837361217,0.0007173798512667418
1761508300153682200,1.41368212890625,-0.0003231060691177845,-0.000016108620911836624,0.0008868416771292686
1761508300163654100,1.423654052734375,0.0009914305992424488,-0.0016928348923102021,0.0010743280872702599
1761508300173625300,1.433625244140625,0.002736103255301714,-0.00021370023023337126,0.0008786232210695744
1761508300183597000,1.44359716796875,0.0006071720272302628,0.0001815127907320857,-0.0003147392417304218
1761508300193568300,1.453568359375,-0.0006288066506385803,-0.0005035841604694724,0.0021396828815340996
1761508300203539200,1.463539306640625,-0.000021605752408504486,-0.0007872107671573758,0.00035296822898089886
1761508300213511200,1.47351123046875,-0.0017644278705120087,0.0019403062760829926,-0.0004345604102127254
1761508300223482000,1.483482177734375,0.00010031787678599358,-0.0005803756648674607,-0.0009562736377120018
1761508300233454300,1.493454345703125,-0.0001603192649781704,-0.0017523871501907706,-0.0026130995247513056
1761508300243425000,1.503425048828125,0.0020330604165792465,0.0006508493097499013,0.002992854453623295
1761508300253396200,1.513396240234375,-0.0019225822761654854,0.0013643003767356277,0.0007483476074412465
1761508300263368200,1.5233681640625,-0.0010820887982845306,0.00022153800819069147,-0.0015603468054905534
1761508300273339400,1.53333935546875,-0.0015009366907179356,-0.00010409264359623194,-0.0008902359986677766
1761508300283311000,1.54331103515625,-0.00021542934700846672,0.0007795441779308021,0.002452297369018197
1761508300293282300,1.5532822265625,-0.00023826956748962402,-0.0006020247237756848,0.0036320150829851627
1761508300303253200,1.563253173828125,-0.00030564796179533005,-0.0005082812858745456,-0.0017893817275762558
1761508300313225200,1.57322509765625,-0.0019250535406172276,0.0009120345348492265,-0.00007383653428405523
1761508300323196200,1.583196044921875,-0.00032955361530184746,-0.0020898806396871805,-0.00042936851968988776
1761508300333168400,1.59316845703125,-0.0003452422097325325,0.0003016026457771659,0.00003548385575413704
1761508300343139000,1.60313916015625,-0.0010682903230190277,0.0007476821774616838,-0.0016111485892906785
1761508300353110300,1.6131103515625,0.0015651751309633255,0.0030531371012330055,0.0013354243710637093
1761508300363082200,1.623082275390625,-0.0022593904286623,-0.0029586825985461473,-0.0022246893495321274
1761508300373053400,1.633053466796875,-0.002528849057853222,0.002516579581424594,0.000693019712343812
1761508300383025200,1.643025146484375,-0.0032052919268608093,0.0006105551728978753,0.00012283690739423037
1761508300392996400,1.652996337890625,-0.0003800690174102783,-0.00057898776140064,0.0019323338055983186
1761508300402967300,1.66296728515625,0.0008870633319020271,0.0009581886697560549,0.0012468361528590322
1761508300412939300,1.672939208984375,0.0002545607276260853,-0.002082992810755968,0.002285325201228261
1761508300422910200,1.68291015625,0.00032753171399235725,-0.0006893608951941133,0.0003888881765305996
1761508300432881200,1.692881103515625,-0.000027983449399471283,0.0005179410800337791,0.0007309474749490619
1761508300442853000,1.70285302734375,0.0004961267113685608,0.001969364006072283,-0.00140464142896235
1761508300452824000,1.712823974609375,-0.0005466872826218605,-0.0003190157003700733,-0.0015891988296061754
1761508300462796300,1.72279638671875,0.0005667805671691895,0.000937463715672493,-0.0006765334401279688
1761508300472767200,1.732767333984375,0.0014781933277845383,0.0006122436607256532,-0.00004957884084433317
1761508300482738200,1.74273828125,-0.0010443530045449734,-0.0016178875230252743,-0.003761759027838707
1761508300492710100,1.752710205078125,-0.00014172261580824852,-0.002184683922678232,-0.0017544872825965285
1761508300502681300,1.762681396484375,-0.0022472175769507885,-0.00044484075624495745,0.000695887254551053
1761508300512653000,1.772653076171875,-0.00014870893210172653,0.0012234309688210487,-0.0009100536699406803
1761508300522624300,1.782624267578125,0.0003474382683634758,0.001729964162223041,0.00017278757877647877
1761508300532595200,1.79259521484375,0.0000982857309281826,-0.003041117452085018,0.002558064414188266
1761508300542567200,1.802567138671875,-0.002074853051453829,0.00039808894507586956,-0.0003594285808503628
1761508300552538000,1.8125380859375,0.0011681197211146355,0.0005001529352739453,0.0008863339899107814
1761508300562510300,1.82251025390625,0.00312208104878664,0.002986480016261339,0.003062402829527855
1761508300572481300,1.832481201171875,0.0009645023383200169,-0.0010642874985933304,0.0005638855509459972
1761508300582452200,1.8424521484375,-0.00015695486217737198,-0.001291188644245267,-0.0014649105723947287
1761508300592424200,1.852424072265625,0.000354099553078413,-0.00032275100238621235,0.0001442180946469307
1761508300602395400,1.8623955078125,-0.0006858650594949722,0.0005518310936167836,0.0010118760401383042
1761508300612367000,1.8723671875,-0.000842004083096981,0.002954833209514618,-0.0013006310909986496
1761508300622338300,1.88233837890625,-0.00013946229591965675,0.0008951445342972875,0.0006464059697464108
1761508300632309200,1.892309326171875,-0.0018910644575953484,0.0009186746319755912,-0.0004827782977372408
1761508300642281200,1.90228125,-0.00037759076803922653,0.0002480907132849097,0.0006804905133321881
1761508300652252200,1.912252197265625,0.0008626533672213554,0.0006024210015311837,-0.0011719578178599477
1761508300662224400,1.922224365234375,-0.000060131773352622986,-0.00007535354234278202,-0.0007178888190537691
1761508300672195000,1.932195068359375,0.0023533147759735584,0.0003814653027802706,-0.0024328844156116247
1761508300682166000,1.942166015625,0.000620928592979908,-0.0008885961724445224,0.001880371244624257
1761508300692138200,1.95213818359375,0.0016323807649314404,0.0012830054620280862,0.003279489930719137
1761508300702109200,1.962109130859375,-0.0001522032544016838,0.0005056287627667189,-0.002119536744430661
1761508300712081200,1.9720810546875,-0.0003233705647289753,-0.00040102656930685043,-0.002345824846997857
1761508300722052000,1.982052001953125,-0.0004983399994671345,-0.00120343710295856,0.0008166789775714278
1761508300732023300,1.992023193359375,-0.002033090218901634,-0.002684256760403514,0.0011716642184183002
1761508300741995000,2.0019951171875,0.0010553780011832714,0.0012596185551956296,-0.0021892450749874115
1761508300751966200,2.01196630859375,-0.001458670012652874,-0.0017096735537052155,-0.002376839052885771
1761508300761938200,2.021938232421875,0.0016063619405031204,0.0003377646207809448,0.002793421968817711
1761508300771909000,2.0319091796875,-0.001391786616295576,0.00030787172727286816,-0.0005023271078243852
1761508300781880000,2.041880126953125,0.002740107476711273,0.0011156084947288036,-0.0013713166117668152
1761508300791852300,2.051852294921875,0.0005798330530524254,0.0005837249336764216,-0.003601374104619026
1761508300801823200,2.0618232421875,0.0012613357976078987,-0.0006389324553310871,0.0008860522648319602
1761508300811795200,2.071795166015625,-0.0029418463818728924,-0.0006928603397682309,-0.00042688241228461266
1761508300821766100,2.08176611328125,-0.000887750182300806,0.00027253548614680767,0.0003057532012462616
1761508300831737300,2.0917373046875,0.00249112443998456,0.0014118357794359326,0.0029953918419778347
1761508300841709000,2.101708984375,0.0009315772913396358,0.00011034891940653324,-0.00042250874685123563
1761508300851680300,2.11168017578125,-0.00002507958561182022,-0.0019223784329369664,-0.0017303719650954008
1761508300861652200,2.12165234375,-0.0014773011207580566,-0.000828884425573051,-0.0022922989446669817
1761508300871623200,2.131623046875,-0.0003696470521390438,0.00011963699944317341,-0.002018421422690153
1761508300881594000,2.141593994140625,-0.0001821611076593399,0.0010634614154696465,-0.0018639580812305212
1761508300891566300,2.15156640625,-0.0016853022389113903,0.0005822575185447931,-0.0015400925185531378
1761508300901537300,2.161537353515625,0.004036499187350273,-0.00012880645226687193,-0.0009731054888106883
1761508300911509200,2.17150927734375,-0.0013851248659193516,-0.0003475684206932783,-0.0002500554546713829
1761508300921480200,2.181480224609375,-0.002344129141420126,0.002875655423849821,0.0006974972784519196
1761508300931451400,2.191451416015625,-0.0013565318658947945,-0.0015681306831538677,-0.0018647664692252874
1761508300941423000,2.201423095703125,-0.0012968769297003746,0.0015200708294287324,-0.000551561766769737
1761508300951394300,2.211394287109375,-0.003479077946394682,-0.000518500804901123,-0.00015131523832678795
1761508300961366300,2.2213662109375,0.0006379028782248497,0.0012503708712756634,0.0025997301563620567
1761508300971337200,2.231337158203125,-0.0018504960462450981,0.001314037130214274,0.00046857271809130907
1761508300981308200,2.24130810546875,-0.0010938914492726326,0.0001971074379980564,0.0005790939321741462
1761508300991280400,2.2512802734375,0.0014591412618756294,-0.0010742160957306623,-0.000004595611244440079
1761508301001251300,2.261251220703125,-0.0001438152976334095,0.000354836112819612,-0.0003151201526634395
1761508301011223300,2.271223388671875,-0.0001812223345041275,-0.00038732809480279684,-0.0016375429695472121
1761508301021194200,2.2811943359375,-0.0012952229008078575,-0.0006371325580403209,0.0015947355423122644
1761508301031165200,2.291165283203125,0.001025876495987177,0.00037702557165175676,-0.0007072342559695244
1761508301041137200,2.30113720703125,-0.002656742464751005,0.0009277672506868839,-0.002386889886111021
1761508301051108000,2.311108154296875,0.00009852461516857147,-0.00017499993555247784,0.00025359459687024355
1761508301061080300,2.321080322265625,-0.000593631062656641,0.0002742753131315112,0.0009297712240368128
1761508301071051000,2.331051025390625,0.0004193456843495369,-0.002189924009144306,0.0006857862463220954
1761508301081022200,2.341022216796875,0.0002552950754761696,-0.0020935176871716976,0.0010660856496542692
1761508301090994200,2.350994140625,-0.00014634476974606514,0.0011593855451792479,-0.00018357246881350875
1761508301100965400,2.36096533203125,-0.001268068328499794,0.0018928201170638204,-0.0013343243626877666
1761508301110936000,2.37093603515625,-0.0007042852230370045,0.0016632545739412308,-0.00243631680496037
1761508301120908300,2.380908203125,-0.000471258070319891,-0.00012132967822253704,-0.0004469354753382504
1761508301130879200,2.390879150390625,0.0025768419727683067,-0.0035570585168898106,-0.0013378633884713054
1761508301140851200,2.400851318359375,-0.00004024617373943329,0.0012297072680667043,0.0014747008681297302
1761508301150821600,2.410821533203125,0.0006710058078169823,-0.0011903152335435152,-0.0005302211502566934
1761508301160792600,2.42079248046875,0.0007226713933050632,-0.0004797838628292084,0.0004242557333782315
1761508301170764800,2.430764892578125,0.0009399186819791794,-0.0006619287887588143,0.001396293519064784
1761508301180735500,2.440735595703125,-0.002193024381995201,-0.0010310428915545344,0.001863944809883833
1761508301190707700,2.450707763671875,0.003026831429451704,0.0015728800790384412,0.0023791808634996414
1761508301200678700,2.4606787109375,0.000923733226954937,0.0008745992090553045,-0.0005502962740138173
1761508301210649900,2.47064990234375,0.0012272358871996403,-0.0007827160879969597,0.0014820984797552228
1761508301220621600,2.48062158203125,-0.0009573549032211304,0.0010138523066416383,0.000700460746884346
1761508301230592800,2.4905927734375,-0.0002776533365249634,0.001005255151540041,-0.00042827375000342727
1761508301240564500,2.500564453125,0.0003545810468494892,-0.00048558239359408617,0.000607962254434824
1761508301250535700,2.51053564453125,-0.00111072463914752,0.002688516164198518,-0.0002742224605754018
1761508301260506600,2.520506591796875,-0.00028088362887501717,-0.0002026115544140339,0.0006142080528661609
1761508301270478800,2.530478759765625,-0.0006087217479944229,0.00042415945790708065,0.001432605553418398
1761508301280449500,2.540449462890625,0.0005513508804142475,0.0011908835731446743,0.00004057132173329592
1761508301290421800,2.550421875,-0.00013567181304097176,-0.0007175564533099532,0.00012833019718527794
1761508301300392700,2.560392822265625,-0.0011974740773439407,-0.00006401678547263145,0.00002207013312727213
1761508301310363600,2.57036376953125,-0.000006621703505516052,0.0013591377064585686,-0.0023940857499837875
1761508301320335600,2.580335693359375,0.0009611709974706173,0.0014744526706635952,-0.00029658013954758644
1761508301330306600,2.590306640625,0.0009822510182857513,-0.0008318916661664844,0.0005842718528583646
1761508301340278500,2.600278564453125,-0.0023096823133528233,0.001992656849324703,-0.002202459843829274
1761508301350249500,2.61024951171875,0.0004210304468870163,-0.0010840815957635641,-0.0037844600155949593
1761508301360220700,2.620220703125,0.002081244718283415,0.0004954392206855118,0.0012539745075628161
1761508301370192600,2.630192626953125,-0.0009299814701080322,0.0005379650974646211,-0.0022996808402240276
1761508301380163600,2.64016357421875,-0.0016679437831044197,-0.003647458739578724,-0.002695426344871521
1761508301390135600,2.650135498046875,0.001403937116265297,0.0006604687660001218,0.0006237135967239738
1761508301400106800,2.660106689453125,-0.00008956389501690865,0.0004455516464076936,0.00011425081174820662
1761508301410077700,2.67007763671875,0.0004252251237630844,-0.0011652727844193578,0.0003294418565928936
1761508301420049700,2.680049560546875,0.0009173774160444736,0.0003495332784950733,-0.0005715055158361793
1761508301430020600,2.6900205078125,0.00029889680445194244,0.0015434460947290063,0.0029306248761713505
1761508301439992600,2.69999267578125,-0.0013096523471176624,-0.0006275628693401814,-0.0016063365619629622
1761508301449963500,2.709963623046875,0.0008090129122138023,0.0006608883268199861,0.0010285809403285384
1761508301459934700,2.719934814453125,-0.00006716744974255562,0.0015370682813227177,-0.0001485362881794572
1761508301469906700,2.72990673828125,0.00046206172555685043,-0.0006864160532131791,-0.000830163829959929
1761508301479877600,2.739877685546875,-0.00029108021408319473,0.00016153452452272177,-0.0011167200282216072
1761508301489849600,2.749849609375,-0.00005236314609646797,-0.0023746187798678875,0.00027585565112531185
1761508301499820800,2.75982080078125,-0.00003691669553518295,-0.0010291897924616933,-0.0006802191492170095
1761508301509791500,2.76979150390625,0.0021193595603108406,-0.0010924069210886955,0.00018190836999565363
1761508301519763700,2.779763671875,-0.0002918667159974575,-0.0013989368453621864,0.0011872517643496394
1761508301529734700,2.789734619140625,0.0003418968990445137,0.0002981252036988735,0.00003871030639857054
1761508301539706600,2.79970654296875,0.002384807448834181,0.0012605915544554591,-0.000864367582835257
1761508301549677600,2.809677490234375,0.0014161020517349243,0.002330103889107704,0.0013025201624259353
1761508301559648500,2.8196484375,-0.0005069663748145103,-0.0006696807686239481,0.0013981276424601674
1761508301569620700,2.829620849609375,-0.0007560048252344131,0.00039665173972025514,-0.000002750428393483162
1761508301579591400,2.83959130859375,-0.0011187270283699036,0.0018438134575262666,0.001226298394612968
1761508301589563600,2.849563720703125,-0.0017913281917572021,0.002501698210835457,-0.002085854299366474
1761508301599534600,2.85953466796875,0.00004145875573158264,-0.0017561635468155146,-0.001009138417430222
1761508301609505500,2.869505615234375,0.00002140505239367485,-0.0013613187475129962,0.00009391398634761572
1761508301619477500,2.8794775390625,0.0008421912789344788,-0.0005839420482516289,-0.00039264559745788574
1761508301629448700,2.88944873046875,-0.001142603810876608,0.0005484519642777741,-0.00026809226255863905
1761508301639420400,2.89942041015625,0.0004651462659239769,0.0003961191396228969,-0.0019938205368816853
1761508301649391600,2.9093916015625,0.0004032012075185776,-0.002419030759483576,-0.0006118789897300303
1761508301659362600,2.919362548828125,0.0014101425185799599,0.0008444068371318281,0.0003242221428081393
1761508301669334500,2.92933447265625,0.0012635146267712116,0.00038476346526294947,-0.0006527844234369695
1761508301679305500,2.939305419921875,-0.0022872784174978733,-0.00026984151918441057,-0.001591548672877252
1761508301689277700,2.949277587890625,0.0006868261843919754,0.0003751745098270476,0.0001628774916753173
1761508301699248600,2.95924853515625,0.0015347767621278763,-0.0016797204734757543,-0.0000472458777949214
1761508301709219600,2.969219482421875,-0.00035947980359196663,0.0006559698958881199,-0.0014436966739594936
1761508301719191600,2.979191650390625,-0.00017412425950169563,-0.002964864019304514,-0.00015046563930809498
1761508301729162800,2.989162841796875,-0.00032136915251612663,0.0009490838856436312,0.0030593923293054104
1761508301739134500,2.999134521484375,0.00292315986007452,-0.0005923537537455559,0.0008724045474082232
1761508301749105700,3.009105712890625,-0.001973765902221203,0.0016241318080574274,0.0005963281728327274
1761508301759076600,3.01907666015625,0.004231399390846491,0.0017319899052381516,0.002022717148065567
1761508301769048600,3.029048583984375,0.0016127284616231918,0.002425852231681347,0.00005721335764974356
1761508301779019500,3.03901953125,-0.0005699982866644859,-0.0007590219611302018,0.00229586660861969
1761508301788991700,3.04899169921875,-0.0008428329601883888,-0.000484445714391768,0.0014490997418761253
1761508301798962700,3.058962646484375,0.0013481499627232552,-0.0019262810237705708,0.0019279362168163061
1761508301808933600,3.06893359375,0.0014272434636950493,-0.0007941541261970997,-0.004473808687180281
1761508301818905600,3.078905517578125,0.00007222732529044151,-0.0009598028846085072,-0.0008037063525989652
1761508301828876800,3.088876708984375,0.0022764992900192738,0.00044377491576597095,0.00001405447255820036
1761508301838848500,3.0988486328125,0.0005299984477460384,-0.0008641034364700317,0.001325395074672997
1761508301848819700,3.10881982421875,0.0005426346324384212,0.001172772841528058,-0.001020947122015059
1761508301858790700,3.118790771484375,-0.000755922868847847,0.0012444118037819862,0.0022728503681719303
1761508301868762600,3.1287626953125,-0.0011757868342101574,-0.0004132039612159133,0.0026438815984874964
1761508301878733600,3.138733642578125,-0.0012732590548694134,0.0014864287804812193,-0.0013660400873050094
1761508301888704500,3.14870458984375,-0.0009912787936627865,-0.0012347567826509476,-0.0005328949191607535
1761508301898676700,3.1586767578125,0.0005546864122152328,0.001976482803002,-0.0001842870842665434
1761508301908647400,3.1686474609375,-0.001814517192542553,-0.0009320529643446207,-0.0006157493917271495
1761508301918619600,3.17861962890625,0.0012819399125874043,0.00253857858479023,0.0003927897196263075
1761508301928590600,3.188590576171875,-0.00043387291952967644,-0.00007168075535446405,0.0007508534472435713
1761508301938561800,3.198561767578125,0.002185612916946411,0.0003680072259157896,0.0007407334633171558
1761508301948533500,3.208533447265625,0.0035330932587385178,0.0014484073035418987,-0.0002115367096848786
1761508301958504700,3.218504638671875,-0.0007798955775797367,-0.00037159700877964497,0.0010065932292491198
1761508301968476400,3.228476318359375,-0.0007799412123858929,-0.0013365333434194326,-0.0011110131163150072
1761508301978447600,3.238447509765625,-0.0024566673673689365,-0.0004742018645629287,-0.0034143810626119375
1761508301988418600,3.24841845703125,0.0024814317002892494,0.0008950757328420877,0.00019588263239711523
1761508301998390800,3.258390869140625,-0.001465373206883669,0.0011030687019228935,0.0003186543472111225
1761508302008361500,3.268361572265625,-0.0002285572700202465,-0.0017622351879253983,-0.001699224580079317
1761508302018333700,3.278333740234375,-0.0010805022902786732,0.00039758841739967465,-0.0010752460220828652
1761508302028304600,3.2883046875,-0.0014877519570291042,0.001413990743458271,-0.0009087073267437518
1761508302038275800,3.29827587890625,-0.0006717597134411335,0.0006587182870134711,0.00001168111339211464
1761508302048247600,3.30824755859375,0.0004351227544248104,0.00025931571144610643,-0.0003728288575075567
1761508302058218800,3.31821875,0.0015302146784961224,-0.001262148143723607,0.002906321082264185
1761508302068190500,3.3281904296875,-0.0009763534180819988,0.0025361415464431047,0.0010501279029995203
1761508302078161700,3.33816162109375,-0.0008200253359973431,-0.0004135756753385067,-0.00019117153715342283
1761508302088132600,3.348132568359375,-0.0008546402677893639,0.0005648562801070511,0.0014367864932864904
1761508302098104800,3.358104736328125,0.00026122434064745903,0.0006807037862017751,-0.00010331952944397926
1761508302108075500,3.368075439453125,-0.0020591183565557003,-0.0012735952623188496,0.0014675912680104375
1761508302118047700,3.3780478515625,-0.0002505662851035595,-0.0012014235835522413,-0.0002171244123019278
1761508302128018700,3.388018798828125,0.00047726230695843697,0.0006364522851072252,0.0016629324527457356
1761508302137989600,3.39798974609375,-0.00005750078707933426,0.0003219329519197345,-0.0008926370064727962
1761508302147961300,3.40796142578125,-0.0016922848299145699,-0.0017333334544673562,-0.0015133804408833385
1761508302157932300,3.417932373046875,-0.000260302796959877,-0.0002944275038316846,0.0015396674862131476
1761508302167904300,3.427904296875,0.0005380883812904358,0.001565570943057537,0.0037191056180745363
1761508302177875200,3.437875244140625,0.0004619220271706581,-0.0010872037382796407,-0.0001185097498819232
1761508302187846400,3.447846435546875,0.0009757289662957191,0.001642413786612451,0.00019725982565432787
1761508302197818400,3.457818359375,-0.0012392215430736542,0.0017116559902206063,0.0018295113695785403
1761508302207789300,3.467789306640625,0.000575436744838953,0.0007952539599500597,0.0005472587654367089
1761508302217761300,3.47776123046875,0.0015538819134235382,-0.0015286204870790243,-0.0003076159628108144
1761508302227732500,3.487732421875,-0.0015709097497165203,0.00042226980440318584,0.0011361088836565614
1761508302237703400,3.497703369140625,0.0014733499847352505,-0.0005167607450857759,-0.00041678029811009765
1761508302247675400,3.50767529296875,-0.0008169426582753658,0.0013170648599043489,0.0022861165925860405
1761508302257646300,3.517646240234375,0.0008826865814626217,0.0007940200157463551,0.0022909101098775864
1761508302267618300,3.527618408203125,-0.0015373937785625458,-0.0017889240989461541,-0.0014456157805398107
1761508302277589200,3.53758935546875,-0.0002393685281276703,-0.0015218091430142522,0.0005743918009102345
1761508302287560200,3.547560302734375,-0.0022037988528609276,-0.00023130187764763832,0.0008202214958146214
1761508302297532400,3.557532470703125,-0.0019625164568424225,0.002320006489753723,0.0011584429303184152
1761508302307503000,3.567503173828125,0.0014385455287992954,0.00006161897908896208,-0.0010262191062793136
1761508302317475300,3.577475341796875,0.000482204370200634,0.0001945106778293848,0.0014955280348658562
1761508302327446300,3.5874462890625,0.0013179364614188671,-0.0005843399558216333,0.0018760825041681528
1761508302337417500,3.59741748046875,0.001054815948009491,0.0017387354746460915,-0.0029442389495670795
1761508302347389200,3.60738916015625,0.0006190361455082893,0.002105054911226034,-0.00004095432814210653
1761508302357360400,3.6173603515625,0.001000134740024805,0.0018248902633786201,-0.003321436233818531
1761508302367332000,3.62733203125,-0.0004447251558303833,-0.00048319133929908276,0.00027734111063182354
1761508302377303300,3.63730322265625,0.0011097616516053677,-0.0005854567280039191,0.0023956194054335356
1761508302387274200,3.647274169921875,0.0016460828483104706,-0.0004935285542160273,0.001130181597545743
1761508302397246500,3.65724658203125,0.0012066611088812351,-0.0018054016400128603,-0.0018847829196602106
1761508302407217200,3.667217041015625,0.001108589582145214,0.0007314837421290576,0.0009222510270774364
1761508302417189400,3.677189453125,0.0012297634966671467,0.001220706501044333,0.0006580653134733438
1761508302427160300,3.687160400390625,-0.0009546997025609016,0.003912707325071096,0.0028268517926335335
1761508302437131500,3.697131591796875,0.0014480040408670902,0.00016697123646736145,-0.0009335316717624664
1761508302447103200,3.707103271484375,-0.0015047281049191952,0.001702723791822791,-0.00036121357697993517
1761508302457074400,3.717074462890625,-0.00018566427752375603,-0.003475260455161333,0.0002206871286034584
1761508302467046100,3.727046142578125,0.002666743937879801,-0.0029538110829889774,0.0016765278996899724
1761508302477017300,3.737017333984375,-0.0016196141950786114,0.0004984449478797615,-0.002176799811422825
1761508302486988300,3.74698828125,0.0005470039322972298,-0.00020754232537001371,0.0022459104657173157
1761508302496960500,3.75696044921875,-0.000257270410656929,-0.0007809209637343884,-0.000014048069715499878
1761508302506931200,3.76693115234375,0.0018180431798100471,-0.00004743528552353382,-0.002137204632163048
1761508302516903400,3.7769033203125,-0.00022939499467611313,0.0007062392542138696,-0.0007654102519154549
1761508302526874400,3.786874267578125,0.00008677132427692413,-0.0005953832296654582,0.002357455436140299
1761508302536845600,3.796845458984375,-0.0022088736295700073,0.0004043674562126398,-0.0008652359247207642
1761508302546817300,3.8068173828125,-0.0009767310693860054,-0.0005289074033498764,-0.0008705246727913618
1761508302556788500,3.81678857421875,0.0003093089908361435,-0.0008692593546584249,0.002274136058986187
1761508302566760200,3.82676025390625,-0.0005568778142333031,-0.0005758330225944519,0.0015416834503412247
1761508302576731400,3.8367314453125,0.0013640597462654114,-0.0004480013158172369,0.00038001255597919226
1761508302586702300,3.846702392578125,-0.0017237309366464615,-0.0038224412128329277,-0.00001982087269425392
1761508302596674600,3.856674560546875,0.0005548694171011448,-0.00012490840163081884,-0.0016555343754589558
1761508302606645200,3.866645263671875,0.00027937814593315125,-0.000580676831305027,0.0011309917317703366
1761508302616617500,3.876617431640625,0.0006953636184334755,0.0006824604934081435,-0.0005939377006143332
1761508302626588400,3.88658837890625,-0.00023010792210698128,0.002124784979969263,-0.000027501024305820465
1761508302636559400,3.896559326171875,-0.0012413100339472294,0.00016389938537031412,0.0005714439321309328
1761508302646531300,3.90653125,-0.0005194745026528835,0.001009036204777658,0.0022013913840055466
1761508302656502300,3.916502197265625,0.00043633440509438515,0.000202630995772779,0.001498316996730864
1761508302666473500,3.926473388671875,-0.00046161049976944923,-0.0006024562753736973,-0.00031020469032227993
1761508302676445200,3.936445068359375,-0.00024296483024954796,0.0001285815378651023,0.0009108546655625105
1761508302686416400,3.94641650390625,-0.0005399235524237156,-0.0012913290411233902,0.0005686284275725484
1761508302696388400,3.956388427734375,-0.003271527122706175,-0.000784263014793396,0.002959614619612694
1761508302706359300,3.966359375,-0.0009966455399990082,-0.0008436426287516952,0.0025752955116331577
1761508302716330200,3.976330322265625,0.000231071375310421,0.0007976636406965554,-0.002555284183472395
1761508302726302500,3.986302490234375,-0.00011386582627892494,-0.0010430293623358011,0.002164394361898303
1761508302736273400,3.9962734375,0.0023450306616723537,-0.0013048180844634771,-0.002072428585961461
1761508302746244400,4.006244384765625,0.0001679612323641777,-0.0013340170262381434,-0.0033116028644144535
1761508302756216300,4.01621630859375,-0.0008722697384655476,0.0008170182700268924,-0.0006479091243818402
1761508302766187500,4.0261875,-0.00012118928134441376,-0.001653123996220529,0.0007199893007054925
1761508302776158200,4.036158203125,0.0017004129476845264,0.002476640045642853,0.0011511550983414054
1761508302786130400,4.04613037109375,0.0014877840876579285,-0.00040951569098979235,0.001066670287400484
1761508302796101400,4.056101318359375,-0.0014094691723585129,-0.00019140285439789295,0.0003952874103561044
1761508302806073300,4.0660732421875,-0.0010483567602932453,0.00005493720527738333,-0.00022171187447384
1761508302816044300,4.076044189453125,-0.0011833789758384228,0.0009385740850120783,-0.002280069049447775
1761508302826015200,4.08601513671875,0.0028290236368775368,0.0006312832701951265,0.0025179781951010227
1761508302835987500,4.095987548828125,0.00001113303005695343,-0.0005623454926535487,-0.002312995959073305
1761508302845958100,4.105958251953125,0.001728569157421589,-0.0013155279448255897,0.0007038814947009087
1761508302855930400,4.115930419921875,-0.0008158148266375065,-0.0010968822753056884,-0.00028015649877488613
1761508302865901300,4.1259013671875,-0.001077813096344471,-0.0005233935080468655,-0.0006392922368831933
1761508302875872300,4.135872314453125,0.0006359312683343887,0.0009682429954409599,-0.00004087993875145912
1761508302885844200,4.14584423828125,-0.0014589764177799225,0.0015970066888257861,0.0018381738336756825
1761508302895815400,4.1558154296875,0.000359164085239172,-0.0016845404170453548,-0.0012468318454921246
1761508302905787100,4.165787109375,-0.0006928350776433945,0.0006093204137869179,0.0004964624531567097
1761508302915758300,4.17575830078125,0.0012129228562116623,0.000024490291252732277,-0.0013773376122117043
1761508302925729300,4.185729248046875,-0.00014055194333195686,-0.0006886365590617061,0.001730503747239709
1761508302935701200,4.195701171875,-0.0024814698845148087,-0.0006468250649049878,-0.0026115139480680227
1761508302945672200,4.205672119140625,0.002644812222570181,0.00020176719408482313,-0.0019882414489984512
1761508302955644400,4.21564453125,-0.0020074639469385147,-0.00006188580300658941,-0.0034969220869243145
1761508302965615400,4.225615478515625,0.0017093326896429062,0.0010522650554776192,-0.0023922654800117016
1761508302975586300,4.23558642578125,-0.0014377241022884846,0.0013486748794093728,-0.00046706642024219036
1761508302985558300,4.245558349609375,0.0016964040696620941,-0.0013066894607618451,0.000634565600194037
1761508302995529500,4.255529541015625,0.0005507124587893486,-0.0006736560026183724,0.0012193958973512053
1761508303005501200,4.265501220703125,-0.000650464091449976,0.0002284660004079342,-0.0012185543309897184
1761508303015472400,4.275472412109375,-0.0012067980132997036,0.003911351319402456,-0.0018457287224009633
1761508303025443300,4.285443359375,-0.0015236749313771725,-0.0005342266522347927,0.0007877548923715949
1761508303035415300,4.295415283203125,0.00210141995921731,-0.00061571947298944,0.002358753699809313
1761508303045386200,4.30538623046875,0.0009614042937755585,0.0026272935792803764,0.00018434529192745686
1761508303055358500,4.3153583984375,0.0027481187134981155,-0.0019275107188150287,0.0009625209495425224
1761508303065329400,4.325329345703125,0.0018687951378524303,-0.0003256837371736765,-0.0016419765306636691
1761508303075300000,4.335300048828125,0.0003635762259364128,-0.001368843950331211,0.0008046695729717612
1761508303085272300,4.345272216796875,-0.0005561509169638157,-0.0012626333627849817,-0.001353031606413424
1761508303095243300,4.3552431640625,0.00043720798566937447,0.002117184456437826,0.0012563335476443172
1761508303105215200,4.36521533203125,0.0027187694795429707,-0.0001308014616370201,-0.0015530285891145468
1761508303115187500,4.3751875,-0.001369981560856104,0.0011171557707712054,-0.00026858592173084617
1761508303125158400,4.385158447265625,0.0015861173160374165,-0.00025758857373148203,0.00186453596688807
1761508303135130400,4.39513037109375,0.002526745665818453,-0.0012184570077806711,0.002522603143006563
1761508303145101300,4.405101318359375,0.00158783420920372,-0.0011305292136967182,-0.0005380656803026795
1761508303155072800,4.41507275390625,-0.0020348639227449894,-0.0017156258691102266,0.000858762301504612
1761508303165044500,4.42504443359375,-0.00027159787714481354,-0.0015957682626321912,0.0005927823949605227
1761508303175015700,4.435015625,0.0010554548352956772,-0.0011504875728860497,0.0007677520625293255
1761508303184987600,4.444987548828125,0.001219848170876503,-0.0012359628453850746,0.0003964847419410944
1761508303194958600,4.45495849609375,0.00035485345870256424,0.001285784412175417,0.001760555780492723
1761508303204929500,4.464929443359375,0.0004432583227753639,-0.0008840765804052353,-0.0015998505987226963
1761508303214901800,4.47490185546875,0.003102690912783146,-0.001252391841262579,-0.0008626875933259726
1761508303224872700,4.484872802734375,-0.0006401981227099895,0.00030393607448786497,0.0025641166139394045
1761508303234844700,4.4948447265625,0.0014977878890931606,0.0013164699776098132,-0.00043114053551107645
1761508303244815600,4.504815673828125,-0.0005498346872627735,0.0010324511677026749,-0.0002232172410003841
1761508303254786600,4.51478662109375,0.00022887345403432846,-0.0010887566022574902,0.000982129480689764
1761508303264758500,4.524758544921875,0.0006834869273006916,-0.000990784727036953,-0.0008197593269869685
1761508303274729500,4.5347294921875,-0.00023130886256694794,-0.0011479111853986979,0.0001629471080377698
1761508303284701700,4.54470166015625,-0.0002251099795103073,-0.0010974621400237083,0.0004976633936166763
1761508303294672400,4.55467236328125,0.00014240574091672897,0.00017712684348225594,-0.0014658852014690638
1761508303304643600,4.5646435546875,0.00012327823787927628,-0.0021730035077780485,-0.0006242992822080851
1761508303314615600,4.574615478515625,-0.0018775546923279762,-0.0008171882946044207,-0.00026583782164379954
1761508303324586800,4.584586669921875,0.0003351345658302307,-0.00009616080205887556,0.001735967700369656
1761508303334558500,4.594558349609375,0.0007647024467587471,-0.000564344460144639,0.0005777588812634349
1761508303344529700,4.60452978515625,0.0017485297285020351,-0.0017400962533429265,0.0010414407588541508
1761508303354500600,4.61450048828125,0.0003144177608191967,-0.0019366374472156167,-0.001626247656531632
1761508303364472600,4.62447265625,-0.0010184035636484623,0.001108902390114963,0.0036133774556219578
1761508303374443500,4.634443603515625,-0.0011704699136316776,-0.0019385528285056353,-0.001540372148156166
1761508303384415700,4.644415771484375,-0.0034755701199173927,0.00004033069126307964,-0.000559659325517714
1761508303394386400,4.654386474609375,0.0008086571469902992,0.0017900274833664298,-0.00003554916474968195
1761508303404357600,4.664357666015625,0.00036974018439650536,0.00025376712437719107,0.0023431258741766214
1761508303414329600,4.67432958984375,0.0010158233344554901,-0.0002144165337085724,0.00023363600485026836
1761508303424300500,4.684300537109375,0.0017132405191659927,-0.0023459182120859623,0.000951167312450707
1761508303434272500,4.6942724609375,0.0001672757789492607,0.00023814686574041843,0.0024952678941190243
1761508303444243700,4.70424365234375,0.00030784402042627335,-0.00217600935138762,-0.0025350102223455906
1761508303454214700,4.714214599609375,0.0003592432476580143,-0.0009488246869295835,0.0022906376980245113
1761508303464186600,4.7241865234375,0.0005058837123215199,0.0015786251751706004,0.0005833888426423073
1761508303474157600,4.734157470703125,-0.001865927129983902,-0.002323438413441181,-0.0010858805617317557
1761508303484129800,4.7441298828125,0.0005001788958907127,-0.0032143937423825264,0.0026820232160389423
1761508303494100500,4.7541005859375,-0.0011706878431141376,0.0005539790727198124,0.0021001221612095833
1761508303504071400,4.764071533203125,0.0006326488219201565,-0.0010882348287850618,-0.00007438717875629663
1761508303514043600,4.774043701171875,0.00038817059248685837,-0.0023428502026945353,0.001146938418969512
1761508303524014600,4.7840146484375,-0.0001242184080183506,-0.00033713935408741236,0.0018053939566016197
1761508303533986600,4.793986572265625,0.0022204285487532616,-0.0017882956890389323,0.00006448558997362852
1761508303543957500,4.80395751953125,-0.0000186762772500515,-0.0005503302672877908,0.0007293431553989649
1761508303553928700,4.8139287109375,0.0016705668531358242,-0.0022667376324534416,0.0014731640694662929
1761508303563900400,4.823900390625,-0.00010273605585098267,0.001546302461065352,0.0009709883015602827
1761508303573871600,4.83387158203125,0.002127128653228283,-0.00036158610600978136,-0.0011512849014252424
1761508303583843600,4.843843505859375,0.0004207352176308632,0.00035901961382478476,-0.0008974287193268538
1761508303593814500,4.853814453125,-0.0005164309404790401,-0.001133682206273079,-0.0006287157884798944
1761508303603785500,4.863785400390625,-0.00028337910771369934,-0.0020284228958189487,-0.0008535775705240667
1761508303613757700,4.8737578125,-0.0017941901460289955,-0.0009642236400395632,0.00012966152280569077
1761508303623728600,4.883728759765625,0.00274282181635499,-0.0019197545479983091,0.0022402124013751745
1761508303633700600,4.89370068359375,-0.0018045254983007908,0.0010984059190377593,0.0001269940985366702
1761508303643671600,4.903671630859375,-0.00039748987182974815,-0.000006283051334321499,-0.0029848949052393436
1761508303653642800,4.913642822265625,-0.00004701782017946243,-0.002272100420668721,-0.00025994848692789674
1761508303663614500,4.923614501953125,0.0003860956057906151,-0.001001730328425765,0.0029281009919941425
1761508303673585700,4.933585693359375,-0.0008157887496054173,0.0014094957150518894,0.0012447170447558165
1761508303683557600,4.9435576171875,0.0012071765959262848,-0.00036795123014599085,0.0029604495503008366
1761508303693528600,4.953528564453125,0.0005935844965279102,-0.0007045748643577099,0.002067225519567728
1761508303703499500,4.96349951171875,0.0004063793458044529,-0.001052715233527124,-0.0020329044200479984
1761508303713471700,4.9734716796875,0.00020451191812753677,-0.0027976185083389282,-0.001207857159897685
1761508303723442400,4.9834423828125,-0.0009204177185893059,0.0011011199094355106,0.0013930489076301455
1761508303733414700,4.99341455078125,0.00047161662951111794,0.0017485343851149082,-0.0009667780250310898
1761508303743385600,5.003385498046875,-0.0024913963861763477,-0.0022097083274275064,-0.0015002540312707424
1761508303753356800,5.013356689453125,0.0025259987451136112,0.0018382964190095663,-0.000001427019014954567
1761508303763328500,5.02332861328125,0.0021193544380366802,-0.000032737269066274166,-0.0003055158304050565
1761508303773299700,5.0332998046875,0.00008816132321953773,0.0005235970602370799,0.0010798604926094413
1761508303783271400,5.043271484375,-0.0007851799018681049,0.0006808479083701968,0.0012680221116170287
1761508303793242600,5.05324267578125,-0.0019622971303761005,0.0010289230849593878,-0.00014478492084890604
1761508303803213600,5.063213623046875,0.0011313515715301037,-0.0009061255259439349,0.001219940255396068
1761508303813185800,5.073185791015625,-0.0001933048479259014,0.0015096280258148909,0.00035201595164835453
1761508303823156500,5.083156494140625,0.0024599465541541576,0.0007619623793289065,0.0003746428992599249
1761508303833128700,5.093128662109375,-0.0012857895344495773,0.0009473183890804648,0.00042977032717317343
1761508303843099600,5.103099609375,-0.00009602541103959084,-0.0005125610623508692,-0.002286548726260662
1761508303853070600,5.113070556640625,-0.0003546178340911865,0.0019103828817605972,0.0014570567291229963
1761508303863042600,5.12304248046875,0.0005342746153473854,0.000998550676740706,-0.0016533301677554846
1761508303873013500,5.133013427734375,-0.0007712063379585743,0.0014763217186555266,0.001079339417628944
1761508303882985500,5.1429853515625,-0.000686274841427803,0.001325081568211317,-0.0026769698597490788
1761508303892956400,5.152956298828125,0.00231191236525774,-0.0019372907700017095,0.0018594586290419102
1761508303902927600,5.162927734375,-0.003399841021746397,-0.0007726046023890376,-0.0007934599998407066
1761508303912899600,5.172899658203125,-0.0003081769682466984,0.0002116997493430972,0.0013037794269621372
1761508303922870500,5.18287060546875,0.0005402369424700737,0.002457222668454051,-0.0018642018549144268
1761508303932842500,5.192842529296875,0.0005133389495313168,0.0016790470108389854,0.001994718797504902
1761508303942813700,5.202813720703125,-0.00015722820535302162,0.0006492349202744663,-0.00037681974936276674
1761508303952784600,5.21278466796875,-0.0015157065354287624,0.00037492928095161915,0.0025811530649662018
1761508303962756600,5.222756591796875,0.0014725681394338608,0.0012312150793150067,-0.00033231463748961687
1761508303972727600,5.2327275390625,0.000634471420198679,-0.00288949441164732,-0.0009983711643144488
1761508303982699500,5.242699462890625,-0.0004788050428032875,-0.0010658763349056244,0.0020234230905771255
1761508303992670500,5.25267041015625,-0.0012982599437236786,0.0007083214586600661,-0.001214980729855597
1761508304002641700,5.2626416015625,-0.0012183617800474167,0.0004763002507388592,-0.0011246649082750082
1761508304012613600,5.272613525390625,0.0004636910744011402,-0.001297098700888455,-0.0005693957791663706
1761508304022584600,5.28258447265625,0.000484970398247242,-0.002590473275631666,-0.0001903583761304617
1761508304032556500,5.292556640625,-0.0009898883290588856,0.000212237355299294,0.0008168491767719388
1761508304042527700,5.30252783203125,-0.0008792346343398094,0.0008571725338697433,0.0002703175414353609
1761508304052498700,5.312498779296875,-0.001224379986524582,0.0003176160389557481,0.00006312364712357521
1761508304062470700,5.322470703125,-0.000280898530036211,-0.0009190373821184039,0.0023990345653146505
1761508304072441600,5.332441650390625,-0.000034024007618427277,0.0005499623366631567,-0.0003562719211913645
1761508304082412500,5.34241259765625,-0.0015202369540929794,0.0007626270526088774,0.0010429478716105223
1761508304092384500,5.352384521484375,-0.0000027674250304698944,-0.002416122006252408,0.00185680971480906
1761508304102355500,5.36235546875,0.0010630455799400806,0.000058770645409822464,-0.0008845594711601734
1761508304112327700,5.37232763671875,0.00172031344845891,0.0006726292194798589,0.0007082771044224501
1761508304122298400,5.38229833984375,-0.0002772090956568718,-0.000032259151339530945,0.0009127666708081961
1761508304132270600,5.3922705078125,-0.00015044258907437325,0.001428484683856368,0.0012219597119838
1761508304142241500,5.402241455078125,-0.0011084158904850483,0.0029350505210459232,-0.0004061999497935176
1761508304152213000,5.412212890625,-0.0008250563405454159,0.0013773677637800574,0.0010825070785358548
1761508304162185000,5.42218505859375,-0.0005840007215738297,-0.0004858910106122494,0.001917523448355496
1761508304172156200,5.43215625,0.00020722392946481705,0.0004062679363414645,0.00006343075074255466
1761508304182127900,5.4421279296875,-0.0014629899524152279,-0.001955164596438408,-0.000329421425703913
1761508304192099000,5.45209912109375,0.0022017857991158962,0.0015114721609279513,0.0004005510127171874
1761508304202070000,5.462070068359375,0.0007026437669992447,0.00016935216262936592,0.00002431892789900303
1761508304212042000,5.4720419921875,-0.0017163055017590523,0.0018079951405525208,-0.002009803429245949
1761508304222013000,5.482012939453125,-0.0024189893156290054,0.0017060881946235895,-0.0019971553701907396
1761508304231985200,5.491985107421875,0.0022958707995712757,-0.003583748359233141,-0.00031563546508550644
1761508304241956000,5.5019560546875,-0.0007822047919034958,-0.002086781430989504,-0.0003003375604748726
1761508304251926800,5.5119267578125,0.00047667138278484344,-0.0015634703449904919,-0.0007293728413060308
1761508304261899000,5.52189892578125,0.000622833613306284,0.0008722301572561264,-0.002012639306485653
1761508304271870000,5.531869873046875,-0.0013226051814854145,-0.0008854561019688845,-0.0011457803193479776
1761508304281842000,5.541842041015625,0.0009282897226512432,-0.002548384713009,0.0031512510031461716
1761508304291812900,5.551812744140625,-0.0002408376894891262,-0.0009102742187678814,0.0008577366825193167
1761508304301784000,5.5617841796875,0.0011509801261126995,0.00017321459017693996,0.0006622128421440721
1761508304311755800,5.571755859375,0.002335021272301674,0.001562852063216269,0.001198040903545916
1761508304321727000,5.58172705078125,0.0005043456330895424,0.0016992788296192884,-0.0006896288832649589
1761508304331698000,5.591697998046875,0.0008220607414841652,-0.00037905212957412004,-0.0000938797602429986
1761508304341670100,5.601670166015625,-0.002239143941551447,0.0014070617035031319,-0.0008326271781697869
1761508304351640800,5.611640869140625,0.00021229544654488564,-0.00035435298923403025,0.0024981885217130184
1761508304361613000,5.621613037109375,-0.0018127551302313805,-0.0012633547885343432,-0.0027348706498742104
1761508304371584000,5.631583984375,0.0041087837889790535,0.00014092994388192892,-0.0011625404004007578
1761508304381556000,5.641555908203125,-0.000793019775301218,-0.0018425832968205214,-0.002781056798994541
1761508304391527000,5.65152685546875,-0.001100348774343729,-0.00041752588003873825,-0.0017645283369347453
1761508304401498000,5.661498046875,0.0014719977043569088,0.000807788863312453,-0.0015013125957921147
1761508304411469800,5.6714697265625,0.0002991417422890663,0.0008815584005787969,0.0024324427358806133
1761508304421441000,5.68144091796875,0.0010990770533680916,-0.0022214925847947598,0.0005324878729879856
1761508304431412000,5.691411865234375,-0.001055153552442789,-0.00017378793563693762,0.00036337715573608875
1761508304441384200,5.70138427734375,0.0015383707359433174,0.00401459913700819,0.0002652035327628255
1761508304451355000,5.71135498046875,-0.001992714125663042,0.0015517076244577765,-0.0005286848172545433
1761508304461327000,5.7213271484375,-0.0010904613882303238,0.0005058945389464498,0.000020658946596086025
1761508304471298000,5.731298095703125,0.0025950875133275986,-0.0002722811186686158,0.00042918778490275145
1761508304481269000,5.74126904296875,0.0014484468847513199,-0.0002096882089972496,0.001305202255025506
1761508304491241000,5.751240966796875,0.001971757970750332,0.0027112667448818684,-0.0017483781557530165
1761508304501212000,5.7612119140625,-0.0024257758632302284,0.0009750331519171596,-0.0022246099542826414
1761508304511184000,5.771183837890625,0.0016275555826723576,-0.001960302935913205,0.00292061734944582
1761508304521154800,5.78115478515625,-0.0007111062295734882,-0.000694174668751657,0.0001598546514287591
1761508304531126000,5.7911259765625,-0.0001353309489786625,-0.0005988335469737649,0.0011018147924914956
1761508304541098000,5.801097900390625,-0.00014341017231345177,-0.002403038088232279,0.00009759468957781792
1761508304551069000,5.81106884765625,0.00027017854154109955,-0.002030727919191122,-0.0005250523099675775
1761508304561041000,5.821041015625,0.0016039391048252583,0.00018352584447711706,-0.001209792448207736
1761508304571012000,5.83101220703125,-0.001207826193422079,0.0027880973648279905,-0.0005831507151015103
1761508304580983000,5.840983154296875,0.0031653475016355515,-0.002784708747640252,0.000411435728892684
1761508304590955000,5.850955078125,-0.001014484092593193,-0.0005183587782084942,-0.0013984485995024443
1761508304600926000,5.860926025390625,0.004762774333357811,-0.0015704238321632147,-0.00040888250805437565
1761508304610898000,5.87089794921875,0.00006948551163077354,0.00046822591684758663,0.001020968658849597
1761508304620868900,5.880868896484375,0.0015549971722066402,0.0005751294083893299,0.0021719862706959248
1761508304630840000,5.890840087890625,0.00047268858179450035,0.0007551591261290014,0.0008824836695566773
1761508304640812000,5.90081201171875,0.0006792512722313404,-0.0005007133586332202,-0.0016487722750753164
1761508304650783000,5.910782958984375,-0.002366872038692236,-0.0003406573086977005,-0.0009949661325663328
1761508304660755000,5.9207548828125,0.00046132272109389305,0.000005843350663781166,-0.001266027451492846
1761508304670726100,5.93072607421875,-0.0014998288825154305,0.0001901340438053012,-0.0011547072790563107
1761508304680697000,5.940697021484375,0.0007286979816854,-0.0031226889695972204,0.0016869890969246626
1761508304690669000,5.9506689453125,0.0014608013443648815,-0.0008901611436158419,-0.0016278474358841777
1761508304700640000,5.960639892578125,0.000253219623118639,-0.00123489648103714,-0.0007820816244930029
1761508304710612000,5.970612060546875,0.002433549612760544,-0.0007547286804765463,0.0007636169902980328
1761508304720583000,5.9805830078125,-0.0011160844005644321,-0.0006888103671371937,0.0007103367242962122
1761508304730554000,5.99055419921875,0.00010044733062386513,-0.0009226358961313963,-0.0012966215144842863
1761508304740526000,6.000526123046875,-0.000587068498134613,-0.0006253216415643692,-0.0011211985256522894
1761508304750497000,6.0104970703125,-0.0011263592168688774,0.0005789598799310625,0.001221850630827248
1761508304760469000,6.020468994140625,0.0003858804702758789,-0.00007372151594609022,0.0003813072107732296
1761508304770440200,6.030440185546875,-0.0010911086574196815,0.0013675813097506762,-0.005074444692581892
1761508304780411000,6.040410888671875,0.0019223857671022415,-0.0002524027368053794,0.0005770515417680144
1761508304790383000,6.050383056640625,-0.0004398380406200886,-0.0020966418087482452,0.0012388471513986588
1761508304800354000,6.06035400390625,-0.0014069792814552784,-0.0006046455819159746,-0.0017628532368689775
1761508304810326000,6.070325927734375,0.002533167600631714,0.0014220200246199965,0.001672091893851757
1761508304820297000,6.080296875,0.0000624246895313263,-0.0009555406868457794,-0.0007448060787282884
1761508304830268000,6.090267822265625,-0.0008885902352631092,0.0014847138663753867,-0.0017853031167760491
1761508304840240000,6.100240234375,-0.0008530882187187672,0.0012492049718275666,-0.0014677377184852958
1761508304850210800,6.1102109375,0.0018300460651516914,0.001981840468943119,-0.00037291215267032385
1761508304860183000,6.12018310546875,0.0004050903953611851,0.0007667377940379083,-0.0003148262621834874
1761508304870154000,6.130154052734375,0.0015936591662466526,-0.002125455066561699,-0.0003710188902914524
1761508304880125000,6.140125,0.00014216965064406395,0.0005475932266563177,-0.00029185356106609106
1761508304890097000,6.150096923828125,-0.00024585286155343056,0.0005294837174005806,0.0026647881604731083
1761508304900068000,6.160068115234375,-0.0017998614348471165,-0.0014531599590554833,-0.0014985266607254744
1761508304910039800,6.170039794921875,-0.000414219219237566,-0.000497617875225842,0.0005555694224312901
1761508304920011000,6.180010986328125,0.0009153694845736027,-0.000024662469513714314,-0.0013638328528031707
1761508304929982000,6.18998193359375,0.0001254761591553688,-0.00016075000166893005,-0.0021491991356015205
1761508304939954000,6.199953857421875,0.002146067563444376,-0.0042405640706419945,0.00013527413830161095
1761508304949924900,6.2099248046875,-0.0007554460316896439,0.001863933983258903,0.0012434155214577913
1761508304959897000,6.21989697265625,0.0012934394180774689,-0.001532929134555161,-0.0016959232743829489
1761508304969868000,6.229867919921875,0.0000015399418771266937,-0.00032678362913429737,0.0020333011634647846
1761508304979839000,6.2398388671875,0.00044872984290122986,-0.0033365492708981037,0.000014526420272886753
1761508304989811000,6.24981103515625,-0.00044103246182203293,0.00038708269130438566,0.0017983115976676345
1761508304999782100,6.2597822265625,0.0001781648024916649,-0.0022260132245719433,-0.0008982705767266452
1761508305009753900,6.26975390625,0.001526789739727974,-0.00020281004253774881,-0.0008894820930436254
1761508305019725000,6.27972509765625,-0.0011573946103453636,-0.0019779950380325317,-0.004956718068569899
1761508305029696000,6.289696044921875,-0.0011629872024059296,-0.0006062007742002606,-0.0014027295401319861
1761508305039668000,6.29966796875,-0.0003649285063147545,0.00009047018829733133,0.0023228987120091915
1761508305049639000,6.309638916015625,-0.0006171306595206261,-0.0002711870474740863,-0.0014103202847763896
1761508305059611100,6.319611083984375,0.002676309086382389,0.0024929693900048733,-0.000085697160102427
1761508305069582000,6.32958203125,-0.0009895325638353825,-0.0006849805358797312,-0.0003549427492544055
1761508305079552800,6.339552734375,0.0014949897304177284,-0.0012110440293326974,0.001560788950882852
1761508305089525000,6.34952490234375,-0.0007724249735474586,-0.0016222359845414758,-0.0011180847650393844
1761508305099496000,6.359495849609375,0.0024555507116019726,-0.0016874283319339156,-0.0016238659154623747
1761508305109468000,6.369468017578125,0.0003580451011657715,0.00046813435619696975,-0.001955429557710886
1761508305119438800,6.37943896484375,-0.0007941429503262043,0.001592061948031187,-0.0014392948942258954
1761508305129410000,6.38941015625,-0.001543289516121149,0.0005089543992653489,-0.001580708776600659
1761508305139381800,6.3993818359375,-0.0013403389602899551,0.0005337766488082707,-0.0013475039741024375
1761508305149352700,6.409352783203125,-0.0014985306188464165,0.0010722677689045668,0.0007478711195290089
1761508305159324700,6.41932470703125,-0.0015020067803561687,0.0013590005692094564,0.00006408896297216415
1761508305169296000,6.4292958984375,0.0003403676673769951,0.0017166631296277046,-0.0017844111425802112
1761508305179266800,6.439266845703125,-0.0009111934341490269,0.0006826890166848898,-0.0005768248229287565
1761508305189238800,6.44923876953125,0.002763968426734209,-0.0005911010084673762,0.0015803356654942036
1761508305199209700,6.459209716796875,0.0001637614332139492,0.0000026891939342021942,-0.001798044890165329
1761508305209181700,6.469181640625,0.00017654476687312126,0.001183002139441669,-0.0007189320167526603
1761508305219152600,6.479152587890625,-0.0006651915609836578,-0.0019988720305263996,0.0023834577295929193
1761508305229123600,6.48912353515625,-0.0013496242463588715,0.0010874650906771421,-0.0012509581865742803
1761508305239095800,6.499095703125,0.0009470363147556782,-0.0018852849025279284,0.0025255894288420677
1761508305249066500,6.50906640625,-0.0016101310029625893,0.0006090316455811262,0.002151148859411478
1761508305259038700,6.519038818359375,0.001208791509270668,0.0012435499811545014,0.00003967946395277977
1761508305269009700,6.529009765625,-0.0006032236851751804,-0.0006688660942018032,-0.00010865856893360615
1761508305278980600,6.538980712890625,0.00013969698920845985,-0.0008529725018888712,-0.0006542530027218163
1761508305288952600,6.54895263671875,0.000390833243727684,-0.0012194234877824783,0.0007755982223898172
1761508305298923800,6.558923828125,-0.00039552152156829834,0.00023660401348024607,-0.005371544044464827
1761508305308895500,6.5688955078125,-0.0024496177211403847,-0.0012262704549357295,-0.00040821084985509515
1761508305318866700,6.57886669921875,-0.0003499411977827549,-0.0002554687671363354,0.0015451957006007433
1761508305328837600,6.588837646484375,0.0015603438951075077,0.001851624227128923,-0.0027622010093182325
1761508305338809900,6.598809814453125,-0.0018006432801485062,-0.0012264163233339787,0.00027637567836791277
1761508305348780500,6.608780517578125,0.0014081988483667374,-0.002506065182387829,-0.0003782293642871082
1761508305358752800,6.618752685546875,0.0005996758118271828,0.0006432923255488276,-0.0022059299517422915
1761508305368723700,6.6287236328125,0.0000715707428753376,0.0025589042343199253,0.0011957257520407438
1761508305378694700,6.638694580078125,0.0012965109199285507,0.0010482380166649818,0.0019169189035892487
1761508305388666600,6.64866650390625,-0.00017035799100995064,-0.001581633579917252,0.002355275209993124
1761508305398637800,6.658637939453125,-0.003622873220592737,-0.002252988750115037,-0.00021204364020377398
1761508305408609500,6.668609619140625,-0.0022998149506747723,0.002712208777666092,-0.00027089950162917376
1761508305418580700,6.678580810546875,-0.00024461233988404274,0.0006228111451491714,0.0007437616586685181
1761508305428551700,6.6885517578125,0.0005071978084743023,0.0014680984895676374,-0.00024267332628369331
1761508305438523600,6.698523681640625,0.0019820546731352806,-0.0005635365378111601,-0.0009129823301918805
1761508305448494600,6.70849462890625,0.0001583215780556202,-0.0013036287855356932,0.00025721057318150997
1761508305458466800,6.718466796875,0.0014656735584139824,0.002105072606354952,-0.0007327455095946789
1761508305468437800,6.728437744140625,0.0013253246434032917,-0.0006893823156133294,0.002393539296463132
1761508305478408700,6.73840869140625,0.0015564830973744392,0.001424103043973446,-0.0012905523180961609
1761508305488380700,6.748380615234375,-0.00021691573783755302,-0.0011005738051608205,-0.00035738071892410517
1761508305498351900,6.758351806640625,-0.0005790544673800468,0.0017095363000407815,-0.000463366974145174
1761508305508323600,6.768323486328125,0.0032500382512807846,0.0008575910469517112,-0.003632795065641403
1761508305518294800,6.778294677734375,-0.0010693976655602455,-0.00013295002281665802,-0.0004823699709959328
1761508305528265700,6.788265625,0.0027338629588484764,-0.0002088501350954175,0.0009461496956646442
1761508305538237700,6.79823779296875,-0.004319700878113508,-0.00016381125897169113,-0.0027552165556699038
1761508305548208600,6.808208740234375,-0.0000866069458425045,0.0031225294806063175,0.00024483446031808853
1761508305558180900,6.818180908203125,0.00021506566554307938,0.00045893946662545204,-0.0011403791140764952
1761508305568151800,6.82815185546875,0.0011607538908720016,0.0003726530121639371,-0.0036365599371492863
1761508305578122500,6.83812255859375,0.0016354997642338276,-0.0029644579626619816,0.0026067369617521763
1761508305588094700,6.8480947265625,-0.0013142172247171402,0.00013386341743171215,0.0013220281107351184
1761508305598065700,6.858065673828125,0.0011790050193667412,-0.002066181506961584,-0.0022095274180173874
1761508305608037600,6.86803759765625,-0.003354494459927082,-0.0011151666985824704,0.0017455331981182098
1761508305618008600,6.878008544921875,-0.00009591830894351006,-0.001553250476717949,0.0019778432324528694
1761508305627979800,6.887979736328125,0.00015362026169896126,-0.0013231534976512194,-0.0018986540380865335
1761508305637951500,6.897951416015625,0.0010569775477051735,0.0011982332216575742,0.0004777245922014117
1761508305647922700,6.907922607421875,0.001451125368475914,0.0015500368317589164,0.00032352760899811983
1761508305657894700,6.917894775390625,0.000497408676892519,-0.0014509835746139288,0.0013048032997176051
1761508305667865900,6.927865966796875,-0.0012264549732208252,0.00004970759619027376,0.0017873680917546153
1761508305677836500,6.93783642578125,-0.001385012175887823,0.0007214568322524428,-0.0010532450396567583
1761508305687808800,6.947808837890625,-0.0013338797725737095,0.0012429037597030401,-0.0013832106487825513
1761508305697779700,6.95777978515625,0.00029723113402724266,-0.0018832709174603224,0.0005373975727707148
1761508305707751700,6.967751708984375,0.0016498509794473648,-0.0005972303915768862,0.0008545799646526575
1761508305717722600,6.97772265625,-0.00021186703816056252,-0.001926799421198666,-0.0009689636062830687
1761508305727693800,6.98769384765625,-0.0004976242780685425,0.00043648964492604136,-0.0015074547845870256
1761508305737665500,6.99766552734375,0.0017606955952942371,0.0004598486702889204,-0.003705903422087431
1761508305747636700,7.00763671875,-0.0012651882134377956,0.0006859510322101414,0.0008832558523863554
1761508305757607700,7.017607666015625,0.0011359737254679203,-0.0003876386908814311,-0.0019501508213579655
1761508305767580000,7.027579833984375,0.00007789954543113708,0.0012837612302973866,0.0001185927540063858
1761508305777550600,7.037550537109375,0.004244198556989431,-0.0010561957024037838,-0.002428857609629631
1761508305787522800,7.047522705078125,-0.0010190070606768131,-0.00008946831803768873,-0.0015273777535185218
1761508305797493800,7.05749365234375,-0.00014691613614559174,0.0004893472651019692,-0.0008927581366151571
1761508305807464700,7.067464599609375,0.0005060909315943718,-0.0003676579799503088,-0.003891477594152093
1761508305817436700,7.077436767578125,-0.0005672494880855083,0.002824136521667242,0.0003659100038930774
1761508305827407600,7.08740771484375,0.0015473002567887306,0.0006632475415244699,-0.00011931790504604578
1761508305837379600,7.097379638671875,0.00041382014751434326,0.00009097089059650898,0.00010979513172060251
1761508305847350500,7.1073505859375,0.0029930919408798218,-0.0001593662891536951,0.00014761206693947315
1761508305857322800,7.11732275390625,-0.0017884895205497742,0.00048174167750403285,-0.00018672295846045017
1761508305867293700,7.127293701171875,0.0015239506028592587,0.001213578274473548,-0.0007529109716415405
1761508305877264600,7.1372646484375,-0.001364261843264103,0.0007570075104013085,-0.000002009095624089241
1761508305887236600,7.147236572265625,0.00022005243226885796,0.0005287746316753328,-0.0020824705716222525
1761508305897207800,7.157207763671875,-0.0007036356255412102,0.00046421424485743046,0.002133807400241494
1761508305907178800,7.1671787109375,-0.0011033760383725166,0.0014469206798821688,-0.001219112309627235
1761508305917150700,7.177150634765625,0.0003991294652223587,0.0001344052143394947,0.0017987916944548488
1761508305927121700,7.18712158203125,-0.0007617427036166191,-0.00218813749961555,-0.0013234984362497926
1761508305937093600,7.19709375,0.001752790529280901,-0.0008691143011674285,-0.002748668659478426
1761508305947064600,7.207064697265625,0.00020070048049092293,-0.00005072483327239752,-0.0010210759937763214
1761508305957036800,7.217036865234375,0.0013886718079447746,-0.0003524298081174493,-0.000383240170776844
1761508305967007700,7.2270078125,-0.0008041751570999622,-0.00289388420060277,0.00007615506183356047
1761508305976978700,7.236978759765625,-0.00006607780233025551,-0.00006363831926137209,-0.0002736153546720743
1761508305986950700,7.24695068359375,0.0025033396668732166,0.0004189264727756381,-0.0013450050028041005
1761508305996921900,7.256921875,-0.002282906323671341,-0.0009200749918818474,0.0003941846080124378
1761508306006892800,7.266892822265625,0.0008761351928114891,0.0003193601733073592,0.0003829993074759841
1761508306016864800,7.27686474609375,-0.001139648724347353,0.0005731060518883169,0.00003440934233367443
1761508306026835700,7.286835693359375,0.00288012670353055,-0.0010463622165843844,-0.0019206171855330467
1761508306036807700,7.2968076171875,-0.00001133279874920845,-0.0007088209968060255,0.0002948192413896322
1761508306046778600,7.306778564453125,0.0005929381586611271,0.0007822828483767807,-0.0007949462742544711
1761508306056750800,7.316750732421875,-0.0011188359931111336,-0.0018764659762382507,0.001191664719954133
1761508306066721800,7.3267216796875,-0.0003180233761668205,-0.00033822422847151756,0.0009644969832152128
1761508306076692700,7.336692626953125,0.00048562558367848396,-0.00041200965642929077,-0.0024562703911215067
1761508306086664700,7.346664794921875,-0.0015024240128695965,-0.0001739230938255787,-0.0005150923389010131
1761508306096636000,7.356635986328125,0.0027211615815758705,0.00029163702856749296,0.0009442594600841403
1761508306106606800,7.36660693359375,0.0005839746445417404,-0.0007635074434801936,0.0021296325139701366
1761508306116578800,7.376578857421875,0.001396229024976492,0.0006417804979719222,-0.00021391757763922215
1761508306126549800,7.3865498046875,-0.00002909451723098755,-0.0018874236848205328,0.00001857639290392399
1761508306136521700,7.396521728515625,0.0015562716871500015,-0.0012650502612814307,-0.0007022328791208565
1761508306146492700,7.40649267578125,0.0007733022794127464,0.0011371211148798466,-0.0011786724207922816
1761508306156463600,7.416463623046875,0.0016395668499171734,0.002438910072669387,-0.0007357891881838441
1761508306166435800,7.426435791015625,0.0012084012851119041,-0.0032828913535922766,-0.0011080991243943572
1761508306176406500,7.436406494140625,-0.00015649711713194847,-0.0005718665197491646,0.0004933212185278535
1761508306186378800,7.446378662109375,0.000021135900169610977,-0.000929795322008431,0.00013832177501171827
1761508306196349700,7.456349609375,-0.000948361586779356,0.0005369819118641317,-0.00004707684274762869
1761508306206320600,7.466320556640625,-0.00006312737241387367,-0.0010044556111097336,-0.0004864984657615423
1761508306216292600,7.476292724609375,0.0016010142862796783,-0.0007727761985734105,-0.0006522691110149026
1761508306226263800,7.486263916015625,-0.0003881007432937622,0.0012717325007542968,0.0003328341990709305
1761508306236235500,7.496235595703125,0.0004376135766506195,0.0002891757758334279,-0.0001945768017321825
1761508306246206700,7.506206787109375,0.00003813905641436577,-0.0021542746108025312,0.0007987823337316513
1761508306256177700,7.516177734375,-0.0032470817677676678,-0.002325397450476885,0.001341019058600068
1761508306266149600,7.526149658203125,0.000010762829333543777,0.0014243333134800196,-0.0011477050138637424
1761508306276120600,7.53612060546875,-0.0012732576578855515,-0.000847300048917532,-0.0014032172039151192
1761508306286092800,7.5460927734375,0.00198432058095932,-0.0009170749690383673,-0.0016413037665188313
1761508306296063700,7.556063720703125,0.0011624796316027641,-0.0034060790203511715,-0.0004551151068881154
1761508306306034700,7.56603466796875,-0.0013305051252245903,0.0019490052945911884,-0.002204279415309429
1761508306316006700,7.576006591796875,-0.0019173524342477322,-0.001286133425310254,-0.001046536723151803
1761508306325977900,7.585977783203125,-0.0008733938448131084,-0.0005463073030114174,-0.00005397666245698929
1761508306335949600,7.595949462890625,-0.0021926425397396088,-0.002349561545997858,0.0012326986761763692
1761508306345920800,7.605920654296875,0.000510465819388628,0.001365547883324325,-0.0017055668868124485
1761508306355891700,7.6158916015625,-0.0003320099785923958,-0.001602435251697898,-0.00015118648298084736
1761508306365863700,7.62586376953125,0.0004917057231068611,0.002533187624067068,-0.0013557341881096363
1761508306375834600,7.635834716796875,-0.0013817017897963524,-0.000006780610419809818,-0.0003253682516515255
1761508306385806800,7.645806884765625,0.0003062095493078232,0.0005026821163482964,-0.00014906702563166618
1761508306395777800,7.65577783203125,-0.0005737775936722755,0.0016405608039349318,-0.001367401098832488
1761508306405748500,7.66574853515625,-0.0009181248024106026,-0.0002457561204209924,-0.00027603766648098826
1761508306415720700,7.675720703125,0.0023780101910233498,-0.0009480963926762342,0.0013044399674981833
1761508306425691600,7.685691650390625,-0.0021600164473056793,-0.0016035002190619707,-0.00013579754158854485
1761508306435663600,7.69566357421875,0.0006706863641738892,-0.00012912380043417215,-0.0024774358607828617
1761508306445634600,7.705634521484375,-0.000018806196749210358,0.0011744934599846601,0.0006861331639811397
1761508306455605800,7.715605712890625,0.0003062109462916851,-0.00026878993958234787,0.004410110879689455
1761508306465577700,7.72557763671875,-0.0024016909301280975,-0.0008821159135550261,-0.000536710605956614
1761508306475548700,7.735548583984375,0.0012817238457500935,-0.000685113831423223,0.0013186000287532806
1761508306485520600,7.745520751953125,0.00008143717423081398,0.00021423574071377516,0.000947355292737484
1761508306495491800,7.755491943359375,0.00026531051844358444,0.0009044427424669266,0.0004053144948557019
1761508306505462500,7.765462646484375,0.00027436530217528343,0.0003337273374199867,0.0008796235779300332
1761508306515434800,7.775434814453125,0.00020897481590509415,0.0012005458120256662,0.002243237104266882
1761508306525405700,7.78540576171875,0.00011123670265078545,-0.0005432921461760998,0.0036192922852933407
1761508306535377700,7.795377685546875,-0.0023481850512325764,0.0013577846111729741,0.0011191271478310227
1761508306545348600,7.8053486328125,-0.0006735888309776783,-0.002371173584833741,0.002425141166895628
1761508306555319800,7.81531982421875,0.0014109625481069088,0.0016043137293308973,0.0032513956539332867
1761508306565291500,7.82529150390625,-0.002393629401922226,-0.0017273006960749626,0.0013717362890020013
1761508306575262700,7.8352626953125,-0.0007373858243227005,-0.001323626609519124,-0.0012413648655638099
1761508306585234700,7.845234619140625,-0.0019422005861997604,-0.00009484414476901293,0.004081228747963905
1761508306595206000,7.855205810546875,0.00011217920109629631,0.0016258900286629796,0.002821517875418067
1761508306605176600,7.865176513671875,-0.0012380434200167656,0.00009909970685839653,0.0006664878455922008
1761508306615148800,7.875148681640625,0.0006668595597147942,0.0014828532002866268,-0.00157287553884089
1761508306625119700,7.88511962890625,0.0006847027689218521,0.002316422527655959,-0.00005806959234178066
1761508306635091700,7.895091796875,0.00036162184551358223,0.0018448417540639639,0.0004915863974019885
1761508306645062700,7.905062744140625,0.00314515782520175,0.00225044135004282,0.000965895364060998
1761508306655033600,7.91503369140625,0.00020778225734829903,-0.0015829458134248853,0.000474238651804626
1761508306665005600,7.925005615234375,0.00032123271375894547,0.0015561222098767757,-0.002571885008364916
