time,seconds_elapsed,z,y,x
1761508123469864700,0.07686474609375,-0.009217910200357437,-0.2709948694527149,-0.3552662670716643
1761508123479835400,0.08683544921875,0.030355098514258858,-0.18729834911227225,-0.2716051103055477
1761508123489807600,0.0968076171875,0.04239245004951954,-0.10969313138425349,-0.19190028994977473
1761508123499778600,0.106778564453125,-0.011784253557026385,-0.07643617394864559,-0.14067396058142184
1761508123509749800,0.116749755859375,-0.07660159364342689,-0.0779652832120657,-0.08335632860064505
1761508123519721500,0.126721435546875,-0.04540741395652294,-0.1019984852284193,-0.06347557008862495
1761508123529692700,0.136692626953125,0.02772825714200735,-0.14171090241372583,-0.031555706475675106
1761508123539664400,0.146664306640625,0.05968816050440073,-0.193444012260437,0.04383183520287275
1761508123549635600,0.156635498046875,0.04403291073292494,-0.2251543247759342,0.1159364096879959
1761508123559606500,0.1666064453125,-0.01557780062109232,-0.21266133842766283,0.14143763843029736
1761508123569578800,0.176578857421875,-0.11227964074611663,-0.159127901160717,0.12219079390764236
1761508123579549400,0.186549560546875,-0.2031780552893877,-0.06392799003124237,0.07131517767310142
1761508123589521700,0.196521728515625,-0.34480011037588115,-0.03780512225925922,0.042014848908782
1761508123599492600,0.20649267578125,-0.45955695489048953,-0.05638707313239574,0.06196282743811607
1761508123609463800,0.2164638671875,-0.5170324077814817,-0.09832476515173912,0.10728168632835149
1761508123619435500,0.226435546875,-0.5016670808672905,-0.16105448530912397,0.20565145966559648
1761508123629406700,0.23640673828125,-0.524518087361753,-0.22011925321817397,0.30451281591206786
1761508123639378400,0.24637841796875,-0.5531830408319831,-0.2919184150159359,0.3367161726415157
1761508123649349600,0.256349609375,-0.5675421133130788,-0.3325041079044342,0.2710799173876643
1761508123659321600,0.266321533203125,-0.5707832871913909,-0.33757366625368596,0.18800065216273068
1761508123669292800,0.276292724609375,-0.5588222157627344,-0.32322423838376996,0.14803192212879657
1761508123679263500,0.286263427734375,-0.522231437729299,-0.29244273115098474,0.1705889141127467
1761508123689235700,0.296235595703125,-0.46647243336737154,-0.20777356638610361,0.25167817456424235
1761508123699206700,0.30620654296875,-0.40670507014691826,-0.15057342330515383,0.3253057208329439
1761508123709178600,0.3161787109375,-0.37539281703829763,-0.1643342376321554,0.3128442986667156
1761508123719149600,0.326149658203125,-0.37362405380010605,-0.20426409696042536,0.25057255140990015
1761508123729120500,0.33612060546875,-0.3722650404065847,-0.27212591930925845,0.19702157848626375
1761508123739092500,0.346092529296875,-0.3443924063578248,-0.3265788095086813,0.17534166159778833
1761508123749063400,0.3560634765625,-0.351154447838664,-0.33536826516389845,0.1944701404377818
1761508123759035600,0.36603564453125,-0.3587532324045896,-0.3201251033246517,0.24314415497481823
1761508123769006600,0.376006591796875,-0.3433312068670988,-0.3081353903234005,0.28025311166346073
1761508123778977500,0.3859775390625,-0.2946282584965229,-0.31910277453958985,0.29313480506837364
1761508123788949500,0.395949462890625,-0.22098989857286214,-0.3377373323827982,0.33613574240505695
1761508123798920700,0.405920654296875,-0.11797639108300208,-0.37215105863809583,0.3888847512960434
1761508123808892400,0.415892333984375,-0.003070493486523628,-0.42223055605888365,0.45466655250042676
1761508123818863600,0.425863525390625,0.10872574765682219,-0.5185749610483646,0.4878726565316319
1761508123828835600,0.435835693359375,0.20388035833984613,-0.6629828474611044,0.46394554523825643
1761508123838806500,0.445806640625,0.3955307651817798,-0.8809159888118505,0.35936493456214663
1761508123848777500,0.455777587890625,0.6592398615404963,-1.230913083308935,0.34237726714313027
1761508123858749700,0.465749755859375,0.8338935408741235,-1.6990771230250596,0.4448138515278697
1761508123868720600,0.475720703125,0.8920978925615548,-2.1914035440951585,0.5791282139495015
1761508123878692600,0.485692626953125,0.9107295277953147,-2.6699925317138433,0.7498527371406555
1761508123888663600,0.49566357421875,0.9919707639381289,-3.0971283954709765,0.9796142634510994
1761508123898634800,0.505634765625,1.024393900898099,-3.4838521693408486,1.2425468224793672
1761508123908606500,0.5156064453125,1.040518521746993,-3.7651860619783397,1.4341104278206824
1761508123918577700,0.52557763671875,1.0882394733428955,-3.92688176780045,1.574859499464929
1761508123928549600,0.535549560546875,1.1984475685119629,-3.957324252337217,1.6352043703123926
1761508123938520600,0.5455205078125,1.3917244075119495,-3.7447476695835586,1.5937904099062083
1761508123948491500,0.555491455078125,1.5333903017401693,-3.583711888974905,1.4931225887596606
1761508123958463700,0.565463623046875,1.670536380456388,-3.324406872794032,1.4005387053474783
1761508123968434700,0.5754345703125,1.7200249262467027,-2.7104315096080303,1.1779270507916808
1761508123978406000,0.585406005859375,1.523695129416883,-2.119271789342165,1.0303343968629837
1761508123988376800,0.595376953125,1.0705085863411425,-1.3602379668802023,1.088456623224914
1761508123998349000,0.60534912109375,0.13421090204715727,-0.3263034996986389,1.2170555306091904
1761508124008319700,0.61531982421875,-0.8336936343878507,0.35653555635511874,1.339747552037239
1761508124018291000,0.625291015625,-1.6341951932698486,0.9741267719507217,1.188784544892609
1761508124028263000,0.635262939453125,-1.9602391652494668,1.6958955703794956,0.5637286925047635
1761508124038234000,0.645234130859375,-1.9810382076501845,1.9270038351237773,-0.09369681309014559
1761508124048205800,0.655205810546875,-1.771280189448595,1.9542068993479011,-0.7436535902395844
1761508124058177000,0.665177001953125,-1.4863719454556703,1.8702660488575695,-1.3125360122457146
1761508124068148000,0.67514794921875,-1.328251467771828,1.9966151314884424,-1.6750012509107588
1761508124078120000,0.685119873046875,-1.2610299891531467,2.3366543110728264,-1.9575711150839923
1761508124088091000,0.6950908203125,-1.3023571480587124,2.8535516942977903,-2.331988657349348
1761508124098063000,0.70506298828125,-1.1722937210798263,3.6110903097659346,-2.87059810616672
1761508124108033800,0.71503369140625,-1.006995314590633,4.613173010134696,-3.3708073894411323
1761508124118005000,0.7250048828125,-1.1677461407780647,5.838263086378574,-3.6133775439202784
1761508124127977000,0.73497705078125,-1.58113346516788,7.111899459126591,-3.750513685764372
1761508124137948200,0.7449482421875,-1.9998007757872343,8.295312540113926,-3.8771734417796133
1761508124147920000,0.754919921875,-2.6148376307249066,9.381571068772674,-3.929708807919919
1761508124157891000,0.76489111328125,-3.354185340464115,10.5375081138134,-3.8498713010951873
1761508124167862000,0.774862060546875,-4.1133451273933055,11.717611047339439,-3.6807977599814534
1761508124177834000,0.784833984375,-4.873481358139217,12.631514528995751,-3.384679847449064
1761508124187805000,0.794804931640625,-5.369897386610508,13.012750226843357,-3.050827247545123
1761508124197777200,0.804777099609375,-5.365221211493015,12.684655752074718,-2.7428897178813814
1761508124207747800,0.814747802734375,-4.792248013041913,11.608639800488948,-2.3284815260112284
1761508124217720000,0.824719970703125,-3.9611151690527793,9.925240139067173,-1.7154367216736077
1761508124227691000,0.83469091796875,-3.1021772032931447,7.9235145326972,-1.0845695526584982
1761508124237662000,0.844661865234375,-2.486073303645849,5.805069841828942,-0.41430706958323715
1761508124247634000,0.854634033203125,-2.049994254976511,3.712223118075728,0.2582078685939312
1761508124257605000,0.864605224609375,-1.4785074956908821,1.7103700859338045,0.7155328266486525
1761508124267576800,0.874576904296875,-0.5485311233729123,-0.17155249844789505,0.8985138970836997
1761508124277548000,0.884548095703125,0.7194815642744302,-1.9233423900067805,0.9062196491554378
1761508124287519000,0.89451904296875,2.2871862235486504,-3.7753567428588863,0.8128861164197325
1761508124297491200,0.9044912109375,3.7822359809786077,-5.790700540214777,0.7240478492766619
1761508124307462000,0.9144619140625,4.84688882702887,-7.91825675829947,0.6533870438590645
1761508124317434000,0.92443408203125,5.3879526832610365,-10.06478538787961,1.05664694198817
1761508124327405000,0.934405029296875,5.481361619320512,-11.84737724493742,1.6809090136498213
1761508124337376000,0.9443759765625,5.0338908235430715,-13.127061665678024,2.2912021811917422
1761508124347348000,0.954347900390625,4.366465025198459,-13.583867860555648,2.6221605209589005
1761508124357319000,0.96431884765625,3.4142671764612196,-13.339345987486839,2.911030069798231
1761508124367291000,0.974290771484375,2.4373902290195226,-12.382644982111453,2.9545939017146825
1761508124377261800,0.98426171875,1.8815213101044297,-11.157941859358548,2.7698089967280626
1761508124387234000,0.994234130859375,1.7500868870332835,-9.862684606432914,2.389071019269526
1761508124397205000,1.004205078125,1.796187543950975,-8.538475984311104,1.9590610613808035
1761508124407176000,1.014176025390625,1.7491864310622214,-7.586821740931272,1.9540125458195805
1761508124417148000,1.02414794921875,1.5976842024743556,-6.999880515143275,2.2079195023491978
1761508124427119000,1.034119140625,1.257679801942408,-6.543906679436564,2.649218039232492
1761508124437090800,1.0440908203125,0.7671095768898725,-6.1459156616210935,3.2308667115703225
1761508124447062000,1.05406201171875,0.3272065860182047,-5.904526241359115,3.8249852816417813
1761508124457033000,1.064032958984375,-0.07980272777229547,-5.822954458087683,4.292594610084593
1761508124467005000,1.0740048828125,-0.13341945940852165,-5.865888759928941,4.615204223701357
1761508124476975900,1.083975830078125,0.2886439233899116,-6.216759714651108,4.801962474587559
1761508124486948000,1.093947998046875,0.7938540836915373,-6.602154285743832,4.754031971894205
1761508124496919000,1.1039189453125,1.2158166364639997,-6.798529675281047,4.306443687216937
1761508124506890000,1.113889892578125,1.7268077182546258,-6.741177556508779,3.5323327071323987
1761508124516862000,1.123862060546875,2.2313842568278313,-6.402579807904362,2.4876795697987077
1761508124526833200,1.133833251953125,2.7582389704436063,-5.598685099452734,1.1686471812710166
1761508124536804900,1.143804931640625,3.170299430143833,-4.109309296005964,-0.3433502038285136
1761508124546776000,1.153776123046875,3.1719501199603077,-2.066799259305,-1.7667860928997396
1761508124556747000,1.1637470703125,2.6798355880752203,0.26118659214377404,-2.960603079001605
1761508124566719000,1.173718994140625,2.0421341891258953,2.940799185118079,-4.09306397138685
1761508124576690000,1.18368994140625,1.1067086114913225,6.024333939522505,-4.644064699743688
1761508124586662100,1.193662109375,-0.6203907831862568,8.792548945057392,-4.2366827532485125
1761508124596632800,1.2036328125,-2.732072848051786,10.69683475241661,-3.349766939499974
1761508124606605000,1.21360498046875,-3.947123176318407,12.42265316737294,-3.0378295265451074
1761508124616576000,1.223575927734375,-4.173352436849474,13.876575380122661,-3.69626479370445
1761508124626547000,1.233546875,-3.5216052691519257,14.996061055600642,-4.560015128181875
1761508124636519000,1.243518798828125,-2.8178350687503815,15.21954949299097,-5.025858323734998
1761508124646489900,1.25348974609375,-2.54607827501446,13.87879773234725,-4.365931941235065
1761508124656462000,1.263462158203125,-2.600428289361298,10.93591005051732,-3.374720178970694
1761508124666432800,1.273432861328125,-2.839737980739772,7.731513704982399,-3.0428260196581483
1761508124676404000,1.283404052734375,-2.776576298905909,5.373216301900148,-3.112586953626573
1761508124686376000,1.2933759765625,-2.356992457963526,3.7781414051413535,-3.3571719550594685
1761508124696347000,1.303346923828125,-1.7097957931771874,2.7569255497574803,-3.5491949946060775
1761508124706318800,1.31331884765625,-1.0038178535982967,2.0980390316992996,-3.592499591064453
1761508124716290000,1.3232900390625,-0.4627618884116411,1.326498194363713,-3.2381790804103017
1761508124726261000,1.333260986328125,-0.22978110779374836,0.43595396098494527,-2.5070433186993
1761508124736233000,1.34323291015625,-0.26029841113239527,-0.4631634549498558,-1.5914222194701433
1761508124746204000,1.353203857421875,-0.3659945818349719,-1.1741004782408475,-0.6128609722033143
1761508124756176000,1.36317578125,-0.45810617156028743,-1.9055764316916464,0.2776780004784465
1761508124766146800,1.373146728515625,-0.42389059822559355,-2.7075901487022636,0.980083050006628
1761508124776118000,1.383117919921875,-0.4599550142973661,-3.5302427491158244,1.5059545978039501
1761508124786090000,1.393090087890625,-0.3757975984469056,-4.273814214029908,1.7501929777562617
1761508124796061000,1.40306103515625,-0.13012772438675163,-4.930884038054943,1.7148931163161991
1761508124806033000,1.413032958984375,0.23830372920632362,-5.507078828901052,1.645780124862492
1761508124816004000,1.423004150390625,0.7159817394599318,-5.889172604882717,1.5802005682319402
1761508124825975800,1.432975830078125,1.2005848728016018,-6.126148884877562,1.5479554181873798
1761508124835947000,1.442947021484375,1.6994266671150922,-6.1433764985322945,1.7447794282749294
1761508124845918000,1.45291796875,2.1649206108391286,-5.903336154791712,1.976650786346197
1761508124855890000,1.462889892578125,2.456352119120955,-5.491704734158516,2.0518506964981555
1761508124865860900,1.47286083984375,2.823812389594316,-4.7710915355056525,1.974804281696677
1761508124875833000,1.4828330078125,3.1687802577525375,-4.010477750375867,1.8066382108166812
1761508124885804000,1.492803955078125,3.33891090670377,-3.203084093892574,1.595266327677667
1761508124895774700,1.502774658203125,3.3771164264574645,-2.076151025018096,1.315619657474756
1761508124905747000,1.512746826171875,3.19167831825912,-0.73143679048419,1.101567449210584
1761508124915718100,1.52271826171875,2.7098528329372407,0.4227385055810213,1.2050237320318817
1761508124925689900,1.53268994140625,2.004329066866636,1.3133861993342637,1.507706409907341
1761508124935661000,1.5426611328125,1.2430980266213416,1.7999550797909498,1.7170020712941885
1761508124945632000,1.552632080078125,0.5078139130592346,1.730654749071598,1.8834949482649563
1761508124955604000,1.56260400390625,-0.08687865750789642,1.0765046118855475,2.167401321738958
1761508124965575000,1.572574951171875,-0.26395751816183327,0.2766448580384254,2.472204937291145
1761508124975548000,1.5825478515625,-0.11213146444708108,-0.8825421287089585,2.614855750903487
1761508124985518800,1.592518798828125,0.2469523150861263,-2.0884049419134856,2.549760178397596
1761508124995490800,1.60249072265625,0.6978843572333455,-3.1081676758795975,2.3238895220458504
1761508125005462000,1.6124619140625,1.2174041979163885,-4.228363545453548,2.023212046512961
1761508125015433000,1.622432861328125,1.7957634733200072,-4.907420160359144,1.3528203841000794
1761508125025405000,1.632405029296875,2.169320307102799,-5.128963308900595,0.5898723108038306
1761508125035375900,1.6423759765625,2.227838547044992,-4.923519646766781,0.005623392839729785
1761508125045347800,1.652347900390625,1.9371926361829042,-4.201298428395391,-0.5800786465421318
1761508125055318800,1.66231884765625,1.4557523507863281,-3.0195611716657873,-1.009678854586184
1761508125065289700,1.672289794921875,0.948491687695682,-1.6535288392931222,-1.1158952497705816
1761508125075262000,1.682261962890625,0.684294807820022,-0.059519525939226145,-1.343287124340236
1761508125085232600,1.692232666015625,0.7330603000327944,1.9939228236645459,-2.074577199830115
1761508125095204900,1.702204833984375,0.68870940939188,4.6715351827323435,-2.9592800137042996
1761508125105175800,1.71217578125,0.1231868192076683,7.470647430834174,-3.839178057645261
1761508125115146800,1.722146728515625,-0.8744327642723917,10.314010324072838,-4.632401442217827
1761508125125118700,1.73211865234375,-2.205004199424386,13.392717512190341,-5.396191519296169
1761508125135090000,1.74208984375,-3.726967975004017,16.142393821471927,-5.553892602524161
1761508125145061600,1.7520615234375,-5.085855988579988,17.847349481141567,-5.131568522962928
1761508125155032800,1.76203271484375,-5.677904182118177,18.343776907789707,-4.668942828151583
1761508125165003800,1.772003662109375,-5.281912813687324,17.748848190379142,-4.33833900091052
1761508125174976000,1.78197607421875,-4.714878357635438,16.350207719868422,-4.151978224909305
1761508125184946700,1.79194677734375,-4.324748866975307,14.828381599193811,-4.248253071793914
1761508125194919000,1.8019189453125,-4.396339646719396,12.989376365518568,-4.389532304792106
1761508125204889900,1.811889892578125,-4.71733685670346,10.775720657604932,-4.049687186475098
1761508125214860800,1.82186083984375,-4.779314589449763,8.203745432528853,-3.348951823724806
1761508125224832800,1.831832763671875,-4.733252510976791,5.418858693656325,-2.7857076998665926
1761508125234804000,1.841803955078125,-4.435760387481749,2.5755519145190715,-2.0986174161091444
1761508125244775700,1.851775634765625,-3.899432619860768,-0.026887422403693198,-1.301123222349584
1761508125254747000,1.861746826171875,-2.935284221088886,-2.1679455116182567,-0.32702070805728434
1761508125264717800,1.8717177734375,-1.5192238292217253,-4.085644342780113,0.7564759546726941
1761508125274689800,1.881689697265625,0.03136807494908571,-6.001956688019633,1.743610969017446
1761508125284660700,1.89166064453125,1.682057891424,-7.8613593975573774,2.6135364849984644
1761508125294633000,1.901633056640625,3.249873317596316,-9.715888363578914,3.324011151474714
1761508125304604000,1.91160400390625,4.364443748503923,-11.376720219361781,3.6812621626228093
1761508125314574600,1.92157470703125,5.03118916336894,-12.501290066236256,3.524017006468773
1761508125324546800,1.931546875,5.044780466347932,-13.048388526457547,2.9075656085580586
1761508125334517800,1.941517822265625,4.723253679531813,-12.89897888623476,2.2167340924456713
1761508125344489700,1.95148974609375,4.1708989062175155,-12.544052518641948,1.512676599535346
1761508125354460700,1.961460693359375,3.3025647510811686,-11.9511064994812,0.4927729957938194
1761508125364433000,1.971432861328125,2.416747253963351,-10.67471410602331,0.05054565362781286
1761508125374403800,1.98140380859375,1.6185498803704976,-9.002413346242903,0.7526303851604461
1761508125384374800,1.991374755859375,0.8753264982417225,-7.793191870260238,1.7956413082450626
1761508125394347000,2.001346923828125,0.42769612798839807,-6.964979882153869,2.909802281568944
1761508125404318000,2.01131787109375,0.48308249964565037,-6.37093613088429,4.14026762111038
1761508125414290000,2.0212900390625,0.6658057959273457,-6.206240074202418,5.2066030134201045
1761508125424260900,2.0312607421875,0.8867053858682513,-6.272247208595275,5.8880573371171945
1761508125434231800,2.041231689453125,1.2430159012958406,-6.498070810934901,6.236146552166343
1761508125444203800,2.051203857421875,1.6757646364986896,-6.696910544759035,5.925474921363592
1761508125454174700,2.0611748046875,2.4658871324464675,-6.6761646938502786,4.840841363558173
1761508125464147000,2.07114697265625,3.3564486092209815,-7.215217210260033,4.171425560440123
1761508125474117600,2.08111767578125,4.072124643732607,-7.753550180223583,3.6138106746405363
1761508125484088800,2.0910888671875,4.413291366042197,-7.8804522205621,3.098930768717825
1761508125494060800,2.101060791015625,4.370446788311004,-7.8062021584808825,2.6453958505958317
1761508125504032000,2.111031982421875,4.130824377721548,-7.101525949150323,1.573072908309102
1761508125514003700,2.121003662109375,3.869819571885466,-5.516698305639625,0.07725304328948258
1761508125523975000,2.130974853515625,3.3516239655435083,-3.0977853980749845,-1.3879165396615862
1761508125533945900,2.14094580078125,2.485695117983222,-0.022719196808338164,-2.546494162338972
1761508125543917800,2.150917724609375,1.3325275376558303,3.508246021363139,-3.5892160393491386
1761508125553888800,2.160888671875,-0.1536170287847519,6.919014249792695,-4.565883727954327
1761508125563861000,2.170861083984375,-2.2528049382582305,9.28496830510795,-4.11701855520904
1761508125573831700,2.180831787109375,-4.580060721866786,10.022684614253043,-2.268150683689117
1761508125583804000,2.190803955078125,-6.137905373644829,9.385097489333152,-0.48936523317694663
1761508125593774800,2.20077490234375,-5.936600711011886,8.829052337068319,-0.5566287973716855
1761508125603746000,2.21074609375,-4.019345531964301,9.900166488087176,-2.857733656157553
1761508125613717800,2.2207177734375,-2.1011595018073916,11.3426683121562,-4.772330721911787
1761508125623689000,2.23068896484375,-0.8763637323349713,12.108967157185077,-5.657488001555204
1761508125633660700,2.24066064453125,-0.6948702701091766,12.267608736133575,-5.454944152516126
1761508125643631900,2.2506318359375,-1.466829040595889,11.11823061121702,-4.2932241401597855
1761508125653602800,2.260602783203125,-2.590888599860668,9.368599358996748,-2.818760951423645
1761508125663575000,2.270574951171875,-3.625274902462959,7.475617620462179,-1.418928348518908
1761508125673545700,2.280545654296875,-4.191777735856175,5.470986940300464,-0.603045972892642
1761508125683518000,2.29051806640625,-4.141690055128932,3.6714649912297723,-0.4925122990310192
1761508125693489000,2.300489013671875,-3.6497079174518583,1.681312333753705,-0.4524976840287447
1761508125703459800,2.3104599609375,-3.0945269808009264,-0.6146545776218175,-0.5276496633857488
1761508125713431800,2.320431884765625,-2.5105878594383597,-2.8213544750481843,-0.6830693576782941
1761508125723402800,2.33040283203125,-2.1538331073746084,-4.731141802433132,-0.8698851839706301
1761508125733374700,2.340374755859375,-2.002546567364037,-6.056297934538126,-1.030246134057641
1761508125743345700,2.350345703125,-1.9528464246496557,-6.897606720104813,-1.042870637831092
1761508125753316900,2.36031689453125,-1.9555714656993746,-7.230831543499231,-0.8107903131842613
1761508125763288800,2.370288818359375,-1.6951199098318814,-6.954428093001246,-0.36879268812090155
1761508125773259800,2.380259765625,-1.0898211895763874,-6.368770477283,0.31137247254848477
1761508125783231700,2.390231689453125,-0.41309594022780655,-5.532461107438802,0.8584759012058377
1761508125793203000,2.400202880859375,0.008259294301271439,-4.697019752600789,0.909848653307557
1761508125803174000,2.410173828125,0.3301408859044313,-3.7892432293921705,0.7297039753422141
1761508125813145900,2.420145751953125,0.6537652295216918,-2.899968577557802,0.4372489692315459
1761508125823116800,2.43011669921875,0.8408055122196674,-1.905385293033719,0.16736381458640098
1761508125833088800,2.4400888671875,0.7715314849853515,-0.7951186967998742,0.055282034499943254
1761508125843059700,2.450059814453125,0.6294429814308882,0.3867693665772676,0.10190788433551788
1761508125853032000,2.460031982421875,0.4678887299060821,1.6803373512417077,0.32817309296280145
1761508125863003000,2.4700029296875,0.2564695004940033,2.945840101894736,0.8210261682555079
1761508125872973800,2.479973876953125,-0.03532821075171232,3.705496440169215,1.6455355024516582
1761508125882945800,2.48994580078125,-0.19974282014369962,3.967608330464363,2.479893153706193
1761508125892917000,2.4999169921875,0.05403028087317943,3.5084073494046923,3.164857239089906
1761508125902888700,2.509888671875,0.48859658689200874,2.246564874824881,3.514961593353748
1761508125912860000,2.51985986328125,1.0934005093678831,0.6680220106720924,3.312657398289442
1761508125922830800,2.529830810546875,1.8792367062985895,-0.8643582372426987,3.050722033604979
1761508125932802800,2.539802734375,2.588410227048397,-2.296003151732683,2.669668122065067
1761508125942773800,2.549773681640625,3.1336139595642685,-3.57532809151113,2.21350080961287
1761508125952746000,2.55974609375,3.524720770823955,-4.621396064078808,1.7565283182576297
1761508125962717000,2.569717041015625,3.5517426332622763,-5.528135645455122,1.3674006981164215
1761508125972687600,2.5796875,3.3700463419407605,-6.082216804170608,0.8624135329157113
1761508125982659300,2.589659423828125,3.1160914546161886,-6.243290578702092,0.2872664975568652
1761508125992630300,2.59963037109375,2.8025957063034177,-6.143699154615402,-0.17827391565740108
1761508126002602200,2.609602294921875,2.6426602881520984,-5.881838024210929,-0.314180807967484
1761508126012573200,2.6195732421875,2.5601933096066114,-5.22274400088191,-0.10682342116683721
1761508126022544100,2.629544189453125,2.3764088138341903,-4.034691569656133,0.016864625561237336
1761508126032516400,2.639516357421875,1.8108020524978636,-2.828731141296029,0.0018149404674768447
1761508126042487000,2.649487060546875,1.2919640565991402,-1.4442676646977661,0.12784399736374616
1761508126052459300,2.659459228515625,0.7771464022576808,-0.05607552296519279,0.18827362388521432
1761508126062430200,2.66943017578125,0.19946341868042944,1.596081443452835,-0.14245909043252467
1761508126072401400,2.6794013671875,-0.4727560436815023,3.738264737305045,-1.0532505775481462
1761508126082373000,2.689373046875,-1.1406535511910916,6.225201379781961,-2.3490540661796926
1761508126092344300,2.69934423828125,-1.6515014251187443,8.827911350339651,-3.608016309148073
1761508126102316000,2.70931591796875,-2.084366480177641,11.31680204949379,-4.4227205809056755
1761508126112287200,2.719287353515625,-2.402916297009587,13.420728970187902,-4.605095209880173
1761508126122258200,2.729258056640625,-2.5039397997260093,15.35218803115487,-4.646673128676414
1761508126132230400,2.73923046875,-2.501082656729221,17.118575772386787,-4.831558279167115
1761508126142201000,2.749201171875,-2.4744106306418776,18.036500764644146,-4.746912203016877
1761508126152173300,2.75917333984375,-2.399304243992269,17.751058852165936,-4.3999721580028535
1761508126162144300,2.769144287109375,-2.5670272472798823,16.193652884066104,-4.105852141289413
1761508126172116200,2.7791162109375,-3.069083911986649,14.091347427093982,-4.339285926371812
1761508126182087200,2.789087158203125,-3.647018824498355,11.722007820993662,-4.000409945347905
1761508126192058400,2.799058349609375,-4.290236356520652,9.17562471781373,-3.181910372960567
1761508126202030000,2.809030029296875,-5.281145336446166,6.375252240517735,-2.3831387066110965
1761508126212001300,2.819001220703125,-6.112398007422685,3.5859406709402797,-1.9062141450732946
1761508126221973200,2.82897314453125,-6.6503294108480215,0.9706710785388946,-1.6757514847561716
1761508126231944400,2.8389443359375,-6.7665639266997575,-1.283140698674321,-1.6859771106943486
1761508126241915100,2.8489150390625,-6.35476416376233,-2.999289368009567,-1.7582316150441766
1761508126251887400,2.858887451171875,-5.666026112797856,-4.614977429208159,-1.3889970283746718
1761508126261858300,2.8688583984375,-4.718330543915927,-6.433818995776772,-0.4912386258333921
1761508126271830300,2.878830322265625,-3.4058749034300444,-8.168976901486516,0.7868196550101041
1761508126281801200,2.88880126953125,-2.0249977608859537,-9.437933007463812,1.7014087808430194
1761508126291772400,2.8987724609375,-0.46238282596617936,-10.054314262747765,1.9186343584463
1761508126301744000,2.908744140625,1.580810809084773,-10.332484722918272,1.5066405342414975
1761508126311715300,2.91871533203125,3.8876445669114585,-10.535843395471572,1.1779244204431771
1761508126321687300,2.928687255859375,6.157697869351506,-10.851467680245637,1.369460845516622
1761508126331658200,2.938658203125,7.920207307845353,-11.192828463822602,2.2275170600056646
1761508126341629200,2.948629150390625,8.964854307699204,-10.990933434081077,3.194723092782497
1761508126351601400,2.958601318359375,9.364066976264118,-10.28399746312499,3.9085108293294906
1761508126361572400,2.968572265625,8.86599528954029,-9.354397815164923,4.473372909778356
1761508126371544300,2.97854443359375,7.328171973788738,-8.462617902511358,4.690327853746712
1761508126381515300,2.988515380859375,5.349578236681222,-7.714754877883196,4.451140327443182
1761508126391486200,2.998486328125,3.748421389660239,-7.080126018247008,4.216714900974929
1761508126401458200,3.008458251953125,2.6631796368286014,-6.775437553507089,4.107850913891196
1761508126411429000,3.01842919921875,1.960919548729062,-6.841115017554164,3.937450800348818
1761508126421401300,3.0284013671875,1.7949580021560192,-6.961549323183298,3.7582349276661873
1761508126431372300,3.038372314453125,2.0582953425928947,-7.112718374294042,3.7594708992019292
1761508126441343200,3.04834326171875,2.3592449130654334,-7.242877955123782,3.88704543197453
1761508126451315200,3.058315185546875,2.674071909981966,-7.219466684398054,4.024858450166881
1761508126461286400,3.068286376953125,2.9787676812455057,-7.14617991439104,4.1571638108536595
1761508126471258000,3.078258056640625,3.110508686047792,-6.964018928167223,4.0354847658604385
1761508126481229300,3.088229248046875,3.2177158458352086,-6.565866582310199,3.6135938170194626
1761508126491201300,3.098201171875,3.3183608706280587,-5.890283780995011,2.978152764217555
1761508126501172200,3.108172119140625,3.526805175882578,-4.668941659107804,1.890592213049531
1761508126511143200,3.11814306640625,3.7932647399932145,-2.675315188041329,0.4637900624155998
1761508126521115400,3.128115478515625,3.6413860793083903,-0.23675182358920574,-0.6945306628912686
1761508126531086000,3.138086181640625,2.9923130992561577,2.4051439099311827,-1.6295745477318764
1761508126541058300,3.148058349609375,2.0465131348624825,5.187627094793319,-2.5874741152420637
1761508126551029200,3.158029296875,0.7937775113239884,7.935043642449378,-3.451935812859237
1761508126561000400,3.16800048828125,-0.9431868592858313,9.716655840820074,-3.2633705125510692
1761508126570972200,3.17797216796875,-2.095729877974093,10.951590434730052,-3.1174384853109713
1761508126580943400,3.187943359375,-1.7081646848440168,14.83250364755988,-5.709051015532016
1761508126590915300,3.197915283203125,-1.5403174706548453,17.907139056193827,-6.91672818468213
1761508126600886300,3.20788623046875,-2.813870841294527,15.871024858009815,-3.644585167610645
1761508126610857200,3.217857177734375,-4.192196253529191,11.355492722415923,-0.3460714454859495
1761508126620829400,3.227829345703125,-3.9603076520621774,7.608959338459372,0.07996113320440053
1761508126630800100,3.237800048828125,-2.8923978500425815,5.598250799688697,-1.4498504332661628
1761508126640772400,3.2477724609375,-1.5869629019737244,5.228122186788917,-3.43935982440263
1761508126650743300,3.257743408203125,-0.8045572640135884,5.576058841624856,-4.885141985316574
1761508126660714200,3.26771435546875,-0.9562515080422163,6.187682088726759,-5.232338343179226
1761508126670686200,3.277686279296875,-1.7890192597568033,6.483443150645494,-4.215793986737728
1761508126680657200,3.2876572265625,-2.9534394709825516,5.897413779005408,-2.7192022605627773
1761508126690629000,3.297629150390625,-4.0423943991184235,4.729763499817252,-1.2653572047024964
1761508126700600000,3.30760009765625,-4.651088022509217,2.917912230527401,-0.36708822229057547
1761508126710571300,3.3175712890625,-4.72621457516402,0.8172609705030918,-0.4283431937202811
1761508126720543200,3.327543212890625,-4.31375021083802,-1.078954343125224,-0.594312046816945
1761508126730514200,3.33751416015625,-3.8804780362829563,-3.0452777967244384,-0.7745055323600769
1761508126740486100,3.347486083984375,-3.4029183917120096,-4.574104151549935,-0.9567813771352172
1761508126750457300,3.357457275390625,-2.675720261710882,-5.456775459596514,-0.9218433347448706
1761508126760428300,3.36742822265625,-1.8837655818998813,-6.121172265508771,-0.3712503104060888
1761508126770400300,3.377400146484375,-1.1235627156585455,-6.310102015215158,0.4177233077675104
1761508126780371200,3.38737109375,-0.5553668146118521,-6.151508367061615,1.1364809416815638
1761508126790343200,3.39734326171875,-0.25851474258601664,-5.958753506109118,1.7847104566469787
1761508126800314000,3.407314208984375,0.018002689680457113,-5.528625474798679,2.3934710077941417
1761508126810286300,3.417286376953125,0.2786713954299688,-4.90559879015088,2.693383928695321
1761508126820257300,3.42725732421875,0.5167331325739621,-4.262349986207485,2.6751041756391523
1761508126830228200,3.437228271484375,0.8106658100217581,-3.459682773724198,2.392951660095155
1761508126840200200,3.4472001953125,0.9889747969925403,-2.621568400284648,1.9884908617436885
1761508126850171400,3.45717138671875,1.0663163953483104,-1.8008412149757145,1.6039444319128988
1761508126860143000,3.46714306640625,0.9296712518915533,-1.0295400316148995,1.2544076484039426
1761508126870114300,3.4771142578125,0.6869289557158946,-0.325436069214344,0.9113698715254663
1761508126880085200,3.487085205078125,0.4717050733238458,0.23940029227137563,0.7109601119056344
1761508126890057200,3.49705712890625,0.23840134436190127,0.5280342787891626,0.7751029137313366
1761508126900028200,3.507028076171875,-0.03806815710961819,0.5736491980165243,0.8869210744455456
1761508126910000400,3.51700048828125,-0.36833413069844245,0.20433482410907744,1.0770531856790184
1761508126919971300,3.526971435546875,-0.6519938359349966,-0.3885077346771955,1.1321823677048086
1761508126929942300,3.5369423828125,-0.813276869302988,-1.2068547468513249,1.0386185333445668
1761508126939914200,3.546914306640625,-0.8735095119476318,-2.2235341278493403,0.920505364139378
1761508126949885400,3.556885498046875,-0.8364064004778862,-3.2174738537728786,1.0046262473717331
1761508126959857200,3.566857177734375,-0.6503595127314329,-4.129902586701512,1.1206997274428605
1761508126969828400,3.576828369140625,-0.4331640380054712,-4.954493461701274,1.107960657379031
1761508126979798800,3.586798828125,-0.22198124769777058,-5.5594245176881545,0.9681967973798513
1761508126989771000,3.59677099609375,0.20506459968835114,-5.83735649292767,0.6686360509172081
1761508126999741700,3.60674169921875,0.7677844074115157,-5.877242513114213,0.43568800352513787
1761508127009714000,3.6167138671875,1.4157821594476698,-5.525642659595609,0.2189940485805273
1761508127019684900,3.626684814453125,2.0058616832613945,-4.79349450597167,-0.0017389526218175887
1761508127029655800,3.63665576171875,2.3951503391832114,-3.6578204967588186,-0.025962124252319335
1761508127039627800,3.646627685546875,2.5052865381598473,-2.0499907478451727,-0.3281830298349261
1761508127049599000,3.656598876953125,2.200309904128313,-0.005669277808070182,-0.5633122206583618
1761508127059570700,3.66657080078125,1.6632149515271186,2.2680682661026714,-0.7898404641360044
1761508127069542000,3.6765419921875,0.9677718499660491,4.705736143019795,-1.272504738369584
1761508127079512800,3.686512939453125,0.2775099504351616,6.915278570395707,-2.0250205572396514
1761508127089485000,3.696485107421875,-0.20869477288424967,8.83979468035698,-2.920692508895695
1761508127099455700,3.706455810546875,-0.6373077234566211,10.644301432102917,-3.675607790122926
1761508127109428000,3.716427978515625,-1.0834829264655708,12.13503332633376,-4.170220860825479
1761508127119399000,3.72639892578125,-1.6107807076737284,13.26007780498266,-4.475190188333392
1761508127129369900,3.736369873046875,-2.0393349137961865,14.314400980198382,-4.812800679466128
1761508127139341800,3.746341796875,-2.3604253550216554,14.980330402505396,-4.892826402339339
1761508127149312800,3.756312744140625,-2.786342490638792,14.982097996699808,-4.723759290966392
1761508127159284700,3.76628466796875,-3.3612916653379794,14.537595987600087,-4.690943647557496
1761508127169255700,3.776255615234375,-3.7354391584903,13.586767089128493,-4.849494041091203
1761508127179227000,3.786226806640625,-3.867312849761545,11.750689141076803,-4.613277055031061
1761508127189198800,3.79619873046875,-3.868530116596818,9.307229821276664,-3.725035837897658
1761508127199169800,3.806169677734375,-3.788032392297685,6.7878072057366365,-2.751018371540308
1761508127209141800,3.816141845703125,-3.855379835383594,4.346778912475705,-1.874262132756412
1761508127219113000,3.826113037109375,-3.905447057844698,2.1970710683375594,-1.2440870376586914
1761508127229084700,3.836084716796875,-3.6827386649161573,0.08325345274806022,-0.7473293561428785
1761508127239056000,3.846055908203125,-3.0609850689440963,-2.0240987662196157,-0.1407405960768461
1761508127249026800,3.85602685546875,-2.231286933933198,-4.043324373444914,0.6865139451742172
1761508127258998800,3.865998779296875,-1.3493009778022764,-5.782537692025303,1.585562972047925
1761508127268969700,3.8759697265625,-0.5407417846709489,-7.193762918820977,2.4170263631656765
1761508127278942000,3.88594189453125,0.21132950530201194,-8.48120803669095,3.1540932684913274
1761508127288913000,3.895912841796875,0.9390878995344042,-9.465524778744578,3.4987294204771517
1761508127298883800,3.9058837890625,1.751492369917035,-9.96614381186366,3.7050530803158876
1761508127308855800,3.915855712890625,2.4503560935765503,-10.316565853774547,4.032526208315789
1761508127318827000,3.925826904296875,2.941172110083699,-10.462885711288452,4.32779334923774
1761508127328798700,3.935798828125,3.3868969389766455,-10.369211402291059,4.43513290323317
1761508127338770000,3.94577001953125,3.6870284710645675,-10.251702628719807,4.4326966159969565
1761508127348740900,3.955740966796875,3.872242415118217,-9.987579398602247,4.326072809055447
1761508127358712800,3.965712890625,3.819108790823817,-9.500361698848009,4.043507913318276
1761508127368683800,3.975683837890625,3.5647605202674866,-8.871196365314722,3.7172634503304955
1761508127378656000,3.985656005859375,3.075344725947082,-8.343194235229491,3.3205557503238317
1761508127388626700,3.995626708984375,2.654782103100419,-7.895712918058037,3.031492140217125
1761508127398597600,4.00559765625,2.6776135281115767,-7.886002840426563,3.0277734119549393
1761508127408568800,4.01556884765625,2.5572131247520447,-7.613779890483618,2.996409136398136
1761508127418540800,4.025540771484375,2.4667718063265083,-7.455388486903906,3.089089465922117
1761508127428511700,4.03551171875,2.3630481047406793,-7.286812958440184,3.123629741166532
1761508127438484000,4.04548388671875,2.243652494509518,-7.10811643345654,3.2023750688403845
1761508127448455000,4.055454833984375,2.134059024107456,-7.00591219652295,3.385151556614041
1761508127458425900,4.06542578125,1.9866221452623605,-6.897759280318021,3.4510429556727407
1761508127468397800,4.075397705078125,1.906720341029763,-6.7953165584534405,3.3690728207334875
1761508127478368800,4.08536865234375,2.0071330183714626,-6.515310699549317,2.991413812328875
1761508127488340700,4.0953408203125,2.245385309651494,-5.6941065443784,2.2533201943039893
1761508127498311700,4.105311767578125,2.513444710174203,-4.1627445335954425,1.131609243991971
1761508127508283000,4.115282958984375,2.7787288007646795,-1.919626584354043,-0.45026714849770066
1761508127518254800,4.1252548828125,2.984455956014991,1.1007318751692772,-2.2819138361036777
1761508127528225800,4.135225830078125,2.8020862954765557,4.53834193329513,-3.7658354657977817
1761508127538197800,4.14519775390625,1.9991116244792937,7.386601366403698,-4.118176493072509
1761508127548169000,4.1551689453125,0.728515934601426,9.783732650271057,-4.036669591730833
1761508127558140000,4.165139892578125,-1.3462705240651964,11.815394545221329,-3.4009976527824994
1761508127568111900,4.17511181640625,-3.9059123372688886,12.731778737777471,-1.9835013828933237
1761508127578082800,4.185082763671875,-5.916033723801374,12.071826636314391,-0.7037427278727293
1761508127588054800,4.1950546875,-6.3920215890109535,10.532166752785443,-0.590858106970787
1761508127598025700,4.205025634765625,-4.830300095799565,9.573719196003674,-1.7008245512142777
1761508127607997000,4.214996826171875,-2.36055658018589,9.078481271401047,-2.858528605927527
1761508127617969000,4.224968994140625,-0.5223895509004592,7.8944976970493785,-3.284510331213474
1761508127627939800,4.23493994140625,0.42177492124587296,6.317641178548335,-3.134685388188064
1761508127637911800,4.244911865234375,0.8579489547222853,5.200062797996401,-2.7742662683978674
1761508127647883000,4.254883056640625,0.5728633083358406,4.354822518199682,-2.1588556117117403
1761508127657854700,4.264854736328125,-0.46976562969386576,3.5147558416485785,-1.6503358884707093
1761508127667826000,4.274825927734375,-1.3664958582311868,2.7833354177772995,-1.281667411251366
1761508127677796900,4.284796875,-2.2156448359042407,1.9183903205573558,-1.0009379142478108
1761508127687768800,4.294768798828125,-2.8620985733687876,0.9600164135336875,-0.9988862424150109
1761508127697739800,4.30473974609375,-3.0636200936228035,-0.15919102952480316,-1.091231640896201
1761508127707712000,4.3147119140625,-2.9560084446877237,-1.5121218882620333,-1.2655337303131817
1761508127717683000,4.324682861328125,-2.5831197194248436,-2.8202012133598324,-1.4346937806665896
1761508127727653600,4.334653564453125,-1.9760686025440692,-3.8702129551172253,-1.5795941267713904
1761508127737625900,4.3446259765625,-1.332711077529192,-4.7526691591084,-1.486747500769794
1761508127747596800,4.3545966796875,-0.6439367862075567,-5.289140426853299,-1.090121926088631
1761508127757568800,4.36456884765625,0.11092618031054735,-5.331294391971826,-0.40596272734701633
1761508127767539700,4.374539794921875,0.6445972959429025,-5.0817193271666765,0.30042203946709634
1761508127777511000,4.384510986328125,0.9666700262039899,-4.768536005803942,0.819091985322535
1761508127787482600,4.394482666015625,1.1543202574938536,-4.31560636009872,1.2753349933594464
1761508127797453800,4.404453857421875,1.3162240531086922,-3.615291268587112,1.5293322585210203
1761508127807426800,4.4144267578125,1.1845055523991583,-1.992256936278939,1.1137556073933839
1761508127817397800,4.424397705078125,0.7438204712390899,-1.224950960034132,0.8356026828795671
1761508127827370000,4.434369873046875,0.36833179261088367,-0.39079087717831135,0.6890148220792413
1761508127837341000,4.4443408203125,0.26515520351380106,0.5316624061584473,0.6058674600541591
1761508127847313000,4.45431298828125,0.33615620067119595,1.260852294498682,0.5690621624872088
1761508127857283800,4.464283935546875,0.47058512938320635,1.7786790675282478,0.4766834462583065
1761508127867254800,4.4742548828125,0.5776479122638702,2.015718475887179,0.42431671468317506
1761508127877226800,4.484226806640625,0.6118044488877058,1.9145991115808485,0.423307829901576
1761508127887197700,4.49419775390625,0.5601736303716898,1.6145201864629983,0.42000265087634325
1761508127897170000,4.504169921875,0.4898346042543649,1.0893670160681008,0.3827171685770154
1761508127907140600,4.514140625,0.48567631553113455,0.42998248535990713,0.4522141909122467
1761508127917111800,4.52411181640625,0.7043319259375334,-0.18235972366631029,0.5784741339549422
1761508127927083800,4.534083740234375,1.0535668038904666,-0.7690332384288311,0.7023521502971649
1761508127937055000,4.544054931640625,1.4371727380007504,-1.3584773869484663,0.783091866658628
1761508127947026700,4.554026611328125,1.8539900368392466,-1.917794692751765,0.9124050597921013
1761508127956998000,4.563997802734375,2.208304994535446,-2.47700736913681,0.9991764575332402
1761508127966968800,4.57396875,2.505109720288217,-2.9620699366837737,1.0167670592814684
1761508127976941300,4.58394140625,2.6086077964246273,-3.397958431217074,0.9952426252156495
1761508127986912300,4.593912353515625,2.51048410680294,-3.743903035452962,0.9587363105952739
1761508127996884200,4.60388427734375,2.2971061445385215,-3.963441273912787,0.7967690943554043
1761508128006855200,4.613855224609375,2.1424802309721707,-4.0946874809354545,0.5838125723734497
1761508128016826400,4.623826416015625,2.1829384980887174,-4.162157089096308,0.43659781184643504
1761508128026798300,4.63379833984375,2.3340952742397785,-4.102435318583249,0.38752486111968754
1761508128036769300,4.643769287109375,2.4336560109272596,-3.836374982923269,0.46396454219967126
1761508128046741200,4.6537412109375,2.1506775659531354,-3.400040498188138,0.30956717669218775
1761508128056712400,4.66371240234375,1.7912185233667492,-2.634561737370491,0.22769845630079508
1761508128066683400,4.673683349609375,1.648281001767516,-1.521380714994669,0.12911445569097996
1761508128076655400,4.6836552734375,1.58985248593539,-0.017800445106625557,-0.3058911185279488
1761508128086626300,4.693626220703125,1.5234963919743896,1.8009645490944384,-0.97947310141474
1761508128096598300,4.703598388671875,1.2455439584687351,3.712134270748496,-1.8248185951516032
1761508128106569200,4.7135693359375,0.8119774771422147,5.6305082246929405,-2.64662130073756
1761508128116541400,4.72354150390625,0.00395312153995037,7.7180685324758285,-3.4610903024345636
1761508128126512400,4.733512451171875,-1.2174345930546522,10.134622894215584,-4.304777507570385
1761508128136483300,4.7434833984375,-2.642006792679429,12.451737807559967,-5.075696413615345
1761508128146455300,4.753455322265625,-3.918202202260494,14.207868358671664,-5.5158910809099675
1761508128156426500,4.763426513671875,-4.929738959673047,14.918326658535003,-5.605030669087172
1761508128166398200,4.773398193359375,-5.505190238675475,14.925712677133083,-5.789724973180889
1761508128176369400,4.783369384765625,-5.635251619827747,14.311778815001249,-6.243885037463903
1761508128186340400,4.79334033203125,-5.864376017278433,12.798486713916063,-6.467614297872782
1761508128196312300,4.803312255859375,-6.082819446238875,10.848127722167968,-6.094086105662584
1761508128206283300,4.813283203125,-6.284802738785744,8.670117328131198,-5.459030545046925
1761508128216255500,4.82325537109375,-6.561788957607746,6.431367510971427,-4.538248702053726
1761508128226226400,4.833226318359375,-6.622806028628349,4.480255070507526,-3.46200127979964
1761508128236197000,4.843197021484375,-6.572647620752454,2.534818922114372,-2.298705688689649
1761508128246169300,4.85316943359375,-6.367173563480377,0.6584118862837552,-1.369832016916573
1761508128256140300,4.863140380859375,-5.891869588881731,-1.0477385361284017,-0.6824760679602623
1761508128266112300,4.8731123046875,-5.148713134509324,-2.7162714678078888,0.021481763967871666
1761508128276083200,4.883083251953125,-4.123258910903334,-4.289947602707147,0.7245785951524972
1761508128286054400,4.893054443359375,-2.78257086314559,-5.840690021264553,1.4411042322307823
1761508128296026000,4.903026123046875,-1.1982657822042704,-7.446026784318685,2.08697870850265
1761508128305997300,4.912997314453125,0.594243073233962,-8.967188303604722,2.705123466327786
1761508128315969300,4.92296923828125,2.5829583913832903,-10.16107484781146,3.064453037315607
1761508128325940500,4.9329404296875,4.366577837923169,-10.822857671833038,3.1553245638519525
1761508128335911200,4.9429111328125,5.627053115803003,-11.351212853139637,3.277444338349998
1761508128345883400,4.95288330078125,6.512896624144911,-11.553016697466372,3.5340134998261927
1761508128355854300,4.962854248046875,7.03860625937879,-11.314555147349834,3.86313614859879
1761508128365826300,4.972826416015625,6.957260686078667,-10.757657762169837,4.314452221627533
1761508128375797200,4.98279736328125,6.453230383211374,-9.964265158510207,4.675455863307416
1761508128385768400,4.9927685546875,5.690623378437757,-8.965415448713301,4.849002458181977
1761508128395740200,5.002740234375,4.697385955564678,-7.995912829431891,4.842508127726614
1761508128405711400,5.01271142578125,3.65348129851073,-7.153148584359884,4.741321251142025
1761508128415683300,5.022683349609375,2.7717168761759994,-6.472357693007588,4.675707499980926
1761508128425654500,5.032654541015625,2.258836911898851,-6.027626551327109,4.636610584345459
1761508128435626200,5.042626220703125,2.00532918381989,-5.788286464810371,4.610381333589554
1761508128445597400,5.052597412109375,1.9249162151947616,-5.662691415417194,4.520981633171439
1761508128455568400,5.062568359375,2.1428706915944815,-5.610971749573945,4.421596545311808
1761508128465540400,5.072540283203125,2.558603117805719,-5.593065506005287,4.297569475887715
1761508128475511300,5.08251123046875,2.980022357481718,-5.5801762138158075,3.96905882153362
1761508128485483500,5.0924833984375,3.2450591953128574,-5.329180760818719,3.3884234178915618
1761508128495454200,5.1024541015625,3.422007999846339,-4.615781731328368,2.564828275930881
1761508128505425400,5.11242529296875,3.3143642022073267,-3.1952520850926636,1.305728085796535
1761508128515397400,5.1223974609375,2.8015514579474923,-1.0332277802169323,-0.19196809448897836
1761508128525368600,5.13236865234375,2.231606959667802,1.8197575123697518,-1.587946067792177
1761508128535340300,5.14234033203125,1.1151549527972937,4.525508170685172,-2.296876427435875
1761508128545311500,5.1523115234375,-0.2605582311123609,6.242913562083244,-2.514785311128199
1761508128555282400,5.162282470703125,-1.3625930055737494,8.301582121902705,-3.398011330448091
1761508128565254400,5.17225439453125,-2.339923542001843,10.961139184319972,-4.778779459659755
1761508128575225300,5.182225341796875,-3.1859692929625507,13.645920704364777,-5.842498531991243
1761508128585197600,5.192197509765625,-3.9936183855116365,15.539095919644831,-5.933807865422963
1761508128595168300,5.202168212890625,-4.909482353585958,14.997974780267477,-4.502557795469462
1761508128605139200,5.21213916015625,-5.296915737029909,12.990145596325396,-2.844085362294316
1761508128615111400,5.222111328125,-5.036880068486929,10.03412487667799,-1.9668544917359947
1761508128625082400,5.232082275390625,-4.148170649319887,6.758311062139272,-1.4328329552307724
1761508128635054300,5.242054443359375,-2.7526801672726866,4.106033635336161,-1.2722557320445775
1761508128645025300,5.252025390625,-1.5131225897371767,2.1321657577067614,-1.2623618222787976
1761508128654996500,5.26199658203125,-0.5533107588648796,0.8544570209532976,-1.1290589749872684
1761508128664968200,5.27196826171875,0.004065934264659881,0.13424363527297972,-0.8718786958754062
1761508128674939400,5.281939453125,0.25302549751996994,-0.30397242542505265,-0.3938265916123986
1761508128684911400,5.291911376953125,0.43568917256891726,-0.522265047737956,0.06265811622589826
1761508128694882300,5.30188232421875,0.6012672727823257,-0.7577887908369302,0.3223506704196334
1761508128704853200,5.311853271484375,0.6375532226502895,-1.1661632555007935,0.38521220026314257
1761508128714825500,5.321825439453125,0.6589958236515522,-1.775806142440438,0.32133535589724777
1761508128724796400,5.33179638671875,0.7393500478267669,-2.325035769471526,0.3208940418705344
1761508128734768400,5.341768310546875,0.9130652772665023,-2.775251480042934,0.5077478620857
1761508128744739300,5.3517392578125,1.120982051515579,-3.1871283998697995,0.622803689546883
1761508128754710500,5.36171044921875,1.3072715158462525,-3.5477117703109977,0.7456351194456219
1761508128764682200,5.37168212890625,1.5524538986504077,-3.687245913207531,0.8269003209859133
1761508128774653400,5.3816533203125,1.6532950305372476,-3.5515286982506513,0.8582996678560971
1761508128784625400,5.39162548828125,1.571972253590822,-3.1953099527597426,0.8427958092540502
1761508128794596400,5.401596435546875,1.4719991367101668,-2.5500129841148853,0.7001292135506868
1761508128804568300,5.411568359375,1.2696242144972085,-1.7476842098057268,0.5343748799875379
1761508128814539500,5.42153955078125,0.9576631284058094,-0.839621855393052,0.44049452702403064
1761508128824510200,5.43151025390625,0.5843272438973188,0.03412672600746155,0.3881646203279495
1761508128834482400,5.441482421875,0.15082652128338814,0.7257184128373861,0.30276977163702246
1761508128844453400,5.451453369140625,-0.3343324923753738,1.0947767661571501,0.15691227093786
1761508128854425300,5.46142529296875,-0.8247814291357993,1.2353010891348122,0.03563742283135652
1761508128864396300,5.471396240234375,-1.1934586741834878,1.1522726773142813,0.012532733836770057
1761508128874367200,5.4813671875,-1.1992699908107518,0.8801379901766776,0.03653144906163215
1761508128884339500,5.49133935546875,-0.932954219084978,0.506446131837368,0.1099821774587035
1761508128894310100,5.50131005859375,-0.6176812319666147,0.05692424874901771,0.12186872234642505
1761508128904282400,5.511282470703125,-0.2690343830347061,-0.3800654850244522,0.09386252504587173
1761508128914253300,5.52125341796875,0.06281739844083786,-0.7637953377753496,0.027740239840745924
1761508128924224300,5.531224365234375,0.34253216544389725,-1.086742512783408,-0.04017243591248989
1761508128934196200,5.5411962890625,0.56464931448102,-1.3670552456796168,-0.13491232831478117
1761508128944167400,5.55116748046875,0.7491384513914585,-1.7169728451997042,-0.22515812416821718
1761508128954139100,5.56113916015625,0.8635609493851661,-2.0766607281059026,-0.2424292847037315
1761508128964110300,5.5711103515625,0.8607821323215961,-2.2813059333384036,-0.20104279682636259
1761508128974081800,5.581081787109375,0.66933192422688,-2.46191969012022,-0.08888181402385234
1761508128984053500,5.591053466796875,0.3258767987191677,-2.7042244716614485,-0.017346563859283924
1761508128994024700,5.601024658203125,0.04447802415192127,-2.9593571705937385,0.11609276929348707
1761508129003996700,5.61099658203125,-0.08941314442157745,-3.2860160596013066,0.23799860877990722
1761508129013968000,5.6209677734375,-0.08257131570279598,-3.875517491266131,0.3849687468960881
1761508129023938600,5.6309384765625,0.11332008970975875,-4.050917897313833,0.3275117064446211
1761508129033910800,5.640910888671875,0.1821376053482294,-4.07834015724659,0.25737463264018295
1761508129043881700,5.6508818359375,0.14939794978499413,-3.9129882670044895,0.3489037463024258
1761508129053853700,5.660853759765625,0.4096528140366077,-3.272270442843437,0.30366613595485686
1761508129063824600,5.67082470703125,0.6690899321645498,-2.696751943823695,0.09646364745497703
1761508129073795800,5.6807958984375,1.0318652596920728,-1.8009294777810572,-0.3702756201550364
1761508129083767600,5.690767578125,1.2138280929952858,-0.6115601187378168,-0.7973170836269855
1761508129093738800,5.70073876953125,1.0867454353928565,0.8001689659267663,-1.2429711853712797
1761508129103710700,5.710710693359375,0.8181506128191948,2.505232762145996,-1.7422694912806151
1761508129113682000,5.720681884765625,0.19371113876402377,4.431082166537642,-2.4799831700772046
1761508129123653600,5.730653564453125,-0.537405333724618,6.746392076286673,-3.3979733365252613
1761508129133624800,5.740624755859375,-1.3078572067797183,8.727177770480512,-4.098063094848394
1761508129143595800,5.750595703125,-1.9175386721640824,10.555810663223266,-4.750133795411885
1761508129153567700,5.760567626953125,-2.3395780895650384,12.06552782843113,-5.167116221684217
1761508129163538700,5.77053857421875,-3.04941562718153,13.278612994104623,-5.24460278146863
1761508129173511000,5.780510986328125,-4.347015936101973,14.318777880108355,-4.91622948975861
1761508129183481600,5.790481689453125,-6.371729327088594,14.625368963599204,-3.891856047126651
1761508129193452500,5.80045263671875,-8.475628190732001,12.983185109663008,-2.4425194086015223
1761508129203424800,5.8104248046875,-9.385768520462513,10.045157142823934,-1.806493249388039
1761508129213395700,5.820395751953125,-8.751561685630678,7.262834116959572,-2.0821376982122657
1761508129223367700,5.83036767578125,-7.305953127717971,4.929557757887244,-2.8168510261490938
1761508129233338600,5.840338623046875,-5.45393059155941,2.4287369669646024,-2.8488445395201443
1761508129243309800,5.850309814453125,-3.5164120844230053,0.2282961299329996,-1.9421806537285446
1761508129253281500,5.860281494140625,-1.9606278723061084,-1.5001765989243983,-0.7004723278999329
1761508129263252700,5.870252685546875,-0.8838166786894202,-3.1071506077915427,-0.010456804345548153
1761508129273224700,5.880224609375,-0.050988428959250445,-4.695129993331432,0.5122635859444737
1761508129283195600,5.890195556640625,0.6268535494595766,-6.014384207916259,1.2212082663744688
1761508129293166600,5.90016650390625,1.1157497038200497,-7.071828730022907,1.9561811220303176
1761508129303138800,5.910138916015625,1.6863935825407503,-8.085197379037737,2.605757083168626
1761508129313109800,5.92010986328125,2.4698691878199575,-8.877548364689945,3.1496453491717573
1761508129323081700,5.930081787109375,3.393693174988031,-9.428120053979754,3.5250188769876956
1761508129333052700,5.940052734375,4.297034346097708,-9.8427921574831,3.88005104304254
1761508129343023900,5.95002392578125,4.986438752016425,-10.050189876294136,4.178388092929125
1761508129352995600,5.95999560546875,5.4833945864528415,-10.074889433264731,4.427383019758761
1761508129362966800,5.969966796875,5.79908784480989,-9.744704123696684,4.560675345656276
1761508129372938800,5.979938720703125,5.876677280446887,-9.117146225360035,4.65606230379045
1761508129382909700,5.98990966796875,5.729085503301024,-8.35106716056168,4.704557746890187
1761508129392880600,5.999880615234375,5.350784689861536,-7.484149886485934,4.668053478096425
1761508129402852900,6.009852783203125,4.684705629950762,-6.623540188121796,4.5118005478501315
1761508129412823600,6.019823486328125,3.679311613076925,-5.922104568147659,4.301976770935952
1761508129422795800,6.029795654296875,2.63971079069674,-5.355322917813062,3.9643139650940893
1761508129432766700,6.0397666015625,1.9467869784802196,-4.968590960636734,3.598991583432257
1761508129442738000,6.049738037109375,1.6889204706698655,-4.802756255313754,3.3378239882498977
1761508129452709600,6.059709716796875,1.7340034749776123,-4.80358393830955,3.1620401358425614
1761508129462680800,6.069680908203125,1.9458581731975078,-4.846183893629909,3.159508571538329
1761508129472652800,6.07965283203125,2.108961992251873,-4.82227110312283,3.2390368662834166
1761508129482623700,6.089623779296875,2.325668222156167,-4.511688319647312,3.0000664898619056
1761508129492594700,6.0995947265625,2.7105098355412482,-3.474123387008905,2.0125944986477493
1761508129502567000,6.10956689453125,3.0789772372305393,-1.7484657155722378,0.6390931455686688
1761508129512537600,6.11953759765625,2.996960048279166,0.38266485386788845,-0.7454013106897472
1761508129522509800,6.129509765625,2.5114105739980936,3.0088784496098757,-1.8285642114207148
1761508129532480800,6.139480712890625,1.5440519810080526,5.08182454110682,-2.611674782779813
1761508129542451700,6.14945166015625,0.3541097905129194,7.202534838819504,-3.8230323940083384
1761508129552423700,6.159423583984375,-0.7477735927790403,9.832715000104903,-5.296182162058353
1761508129562394600,6.16939453125,-1.9028245026350021,11.678310133564471,-6.0198389661908145
1761508129572366600,6.17936669921875,-3.010655396154523,12.464503765630722,-5.667271728944778
1761508129582337500,6.189337646484375,-3.678871468093991,12.474860324472187,-4.598320601178705
1761508129592308700,6.199308837890625,-4.291159901106357,11.411892070508003,-3.1728868162885306
1761508129602280700,6.20928076171875,-4.602810606074333,9.320641676035523,-1.6568240814462303
1761508129612251600,6.219251708984375,-4.510521613955498,7.094384260702133,-0.865099703259766
1761508129622223600,6.2292236328125,-4.200764175388216,5.194110611593723,-0.7011465738996863
1761508129632194800,6.23919482421875,-3.6536686377763745,3.614918928143382,-0.8703507556557655
1761508129642166500,6.24916650390625,-3.0905764896094796,2.316694057583809,-1.1053849616721272
1761508129652137700,6.2591376953125,-2.588193953949213,1.3411194249123335,-0.9503694642663001
1761508129662108700,6.269108642578125,-2.1470126137048005,0.7006903545647859,-0.5559019444018602
1761508129672080600,6.27908056640625,-1.8347271179646252,0.14893851557970045,-0.09071750501841307
1761508129682051600,6.289051513671875,-1.5434686281621455,-0.3772808227419853,0.16256109047979114
1761508129692023800,6.29902392578125,-1.2133493695676325,-0.8683674728840589,0.17895692948549985
1761508129701994800,6.308994873046875,-1.0069897616326808,-1.3828636401861905,0.08554214820712805
1761508129711965700,6.318965576171875,-0.755759915357828,-1.8807716607809066,-0.14038754485547542
1761508129721937700,6.328937744140625,-0.26027532251775265,-2.33582662807703,-0.4199883300900459
1761508129731908900,6.338908935546875,0.36410569934844966,-2.765801514652371,-0.5667176451876759
1761508129741880600,6.348880615234375,1.196343289709091,-3.1722529022991655,-0.5394602204278112
1761508129751851800,6.358851806640625,2.0486200440138576,-3.5070267087012525,-0.37842999277710915
1761508129761822700,6.36882275390625,2.7608780867755414,-3.8420284786403176,-0.0292792859762907
1761508129771794700,6.378794677734375,3.2672984996497627,-3.9601422323673963,0.31328765852004287
1761508129781765600,6.388765625,3.5416397569209335,-3.73099971473813,0.5038783271759748
1761508129791737900,6.39873779296875,3.5771915472954507,-3.3462370118081566,0.5632569833397865
1761508129801708800,6.408708740234375,3.448746369168162,-2.6779870375990864,0.4100070343017578
1761508129811679500,6.418679443359375,3.0115105516791343,-1.8370523460417985,0.14944588057994843
1761508129821651700,6.428651611328125,2.371164483439922,-0.9564882394075394,0.06232055483460426
1761508129831622700,6.43862255859375,1.7292998273313045,0.05696925693452358,0.11955109305381774
1761508129841594600,6.4485947265625,0.9513198968589305,1.2275479907900095,0.09612374797612427
1761508129851565600,6.458565673828125,0.1327729781985283,2.3026117562174795,-0.1389136729106307
1761508129861536800,6.468536865234375,-0.6383078404098749,2.8943770411610603,-0.43629824437797066
1761508129871508500,6.478508544921875,-1.4294827680200337,2.7466888179033995,-0.5859098369136453
1761508129881479700,6.488479736328125,-2.027487824136019,2.01426243185997,-0.4672074696436524
1761508129891451600,6.49845166015625,-2.2821172497212885,1.0095546436846257,-0.09515402616113423
1761508129901422800,6.5084228515625,-2.2430326090455055,-0.10943301914334297,0.31862083624154325
1761508129911393500,6.5183935546875,-1.8153934719413518,-1.1582798087745905,0.7256848028287292
1761508129921365800,6.52836572265625,-1.0741221006631851,-1.985912535688281,1.077898988853395
1761508129931336700,6.538336669921875,-0.31853286569714545,-2.6418694300353525,1.1780603217825292
1761508129941308700,6.54830859375,0.31909868288636206,-3.1237364164113997,1.0920292210146785
1761508129951279600,6.558279541015625,0.9312941769182681,-3.3970962614297866,0.9366863913506269
1761508129961250800,6.568250732421875,1.4263140748560428,-3.569231528201699,0.7779305383726954
1761508129971222500,6.578222412109375,1.8125404205977915,-3.615474808460474,0.7071417226612567
1761508129981193700,6.58819384765625,2.0638404094994067,-3.550553715738654,0.6972592110723257
1761508129991166000,6.598166015625,2.2524597780823705,-3.4272762956380842,0.6728162592113017
1761508130001137000,6.608136962890625,2.290198849368095,-3.244633078855276,0.5984665361478925
1761508130011108900,6.61810888671875,2.1310218483686447,-2.9526766699165106,0.6108811965629458
1761508130021079800,6.628079833984375,1.8086270465463399,-2.5504303327441216,0.6905757877856492
1761508130031051000,6.638051025390625,1.5215531489521263,-2.117755539560318,0.6893351400747895
1761508130041022700,6.648022705078125,1.4153800083875656,-1.6988403916597365,0.6382450043067336
1761508130050994000,6.657993896484375,1.345558868664503,-1.3273217857062816,0.6404293626084924
1761508130060966000,6.6679658203125,1.207448036569357,-1.0048784685671328,0.6748062639847398
1761508130070936800,6.677936767578125,0.9735679690241813,-0.7366705994844436,0.5602516640439629
1761508130080907800,6.68790771484375,0.7056652203679085,-0.4215951807647943,0.16361965962201355
1761508130090880000,6.6978798828125,0.5993763444691896,0.1840408086210489,-0.6110591834783554
1761508130100851000,6.707850830078125,0.6594587649881839,1.3869646457642315,-1.5952543449789285
1761508130110823000,6.717822998046875,0.7754746696531772,3.2380969550848007,-2.7116508222699163
1761508130120793900,6.7277939453125,0.9468518115341663,6.007092881864309,-4.19772670738846
1761508130130764800,6.737764892578125,0.8495230716824531,9.44864437109232,-5.9029907023549075
1761508130140736800,6.74773681640625,-0.0751502257913351,12.843741567659377,-7.22184393492341
1761508130150707700,6.757707763671875,-1.9905197372227905,15.555672960436343,-7.739425793281197
1761508130160680000,6.767679931640625,-4.380240160311758,17.285986348724364,-7.719593550086021
1761508130170650600,6.777650634765625,-6.767963856625556,17.892516656601426,-7.198973931467533
1761508130180621800,6.787621826171875,-8.79255128314495,16.442539966607093,-6.030993981933594
1761508130190593800,6.79759375,-10.018168598133325,13.262514092218876,-4.570414064860343
1761508130200564700,6.807564697265625,-10.072390017664432,9.76121803612411,-3.4919971896126865
1761508130210536700,6.81753662109375,-9.215485603559017,6.795721047601103,-2.907827182103693
1761508130220508000,6.8275078125,-7.83595432266593,4.5363317625164985,-2.508668581813574
1761508130230478800,6.837478759765625,-6.363094769734144,2.4745973853856325,-1.8935320658937096
1761508130240450800,6.847450927734375,-5.164523282581568,0.3661164546489715,-1.1214584368556737
1761508130250421800,6.857421875,-3.9715763573125002,-1.5579934125989674,-0.19389555542021988
1761508130260394000,6.86739404296875,-2.917197944778204,-3.483229069006443,0.8956491553023457
1761508130270364700,6.87736474609375,-1.9664590626776217,-5.3068163687974215,1.8207532454088329
1761508130280336000,6.8873359375,-0.990698552045226,-7.003885074609518,2.4255814255431294
1761508130290307800,6.897307861328125,0.4178238455325365,-8.322425003445147,2.4084262926027176
1761508130300278800,6.90727880859375,2.189957436940074,-9.247712048903107,2.0825018553495407
1761508130310250800,6.917250732421875,4.1341994071125985,-9.736043262857198,2.068968127776682
1761508130320222000,6.927221923828125,5.691002148622274,-10.10632034431696,2.758513987992704
1761508130330193000,6.93719287109375,6.884817381158471,-10.038927308523654,3.4542701010257004
1761508130340164900,6.947164794921875,7.4445812616854905,-9.70886650211811,3.830673264150321
1761508130350135800,6.9571357421875,7.290204354444146,-9.07344210819006,3.8370980365008114
1761508130360107800,6.967107666015625,6.396214364525675,-8.111721813347936,3.746019589215517
1761508130370078700,6.97707861328125,4.921624042278528,-7.105190316876769,3.8110301137864586
1761508130380050000,6.9870498046875,3.3424317743062972,-6.0727078020691865,3.9802798882499335
1761508130390022000,6.99702197265625,2.0173112980365753,-5.255359737804532,4.152059181191027
1761508130399992800,7.006992919921875,1.314758656731248,-4.869709730646014,4.380947724059224
1761508130409964800,7.01696484375,1.1741823113054037,-4.984198279613256,4.721928276146948
1761508130419936000,7.02693603515625,1.6408756939470768,-5.2675411739856,4.958280579024553
1761508130429907700,7.03690771484375,2.455478258895874,-5.7218064522087575,5.047826994436979
1761508130439879000,7.04687890625,3.221652016240358,-6.174622116145491,4.940084412598609
1761508130449849900,7.056849853515625,3.851342834952473,-6.551771421462297,4.8042555539608
1761508130459821800,7.06682177734375,4.281631609782576,-6.725732150095701,4.649736023378372
1761508130469792800,7.076792724609375,4.374197080755233,-6.674853611251711,4.435115659837424
1761508130479765000,7.086764892578125,4.1346489044457675,-6.355416490191221,4.112277790422738
1761508130489736000,7.09673583984375,3.790582369041443,-5.719166166833043,3.610810323780775
1761508130499706600,7.10670654296875,3.5210873827576634,-4.508982567819952,2.7914500429108737
1761508130509678800,7.116678955078125,3.275269624659419,-2.7829963950812817,1.7066288535788654
1761508130519649800,7.12664990234375,3.0612253074407576,-0.6188502757459878,0.5392439473286271
1761508130529621800,7.136621826171875,2.678786663544178,1.8863474150866268,-0.5955030101671814
1761508130539592700,7.1465927734375,2.0231424884080886,4.326371499741077,-1.6253803109124303
1761508130549564000,7.15656396484375,1.3937258104622363,6.226995861983299,-2.1371292253330347
1761508130559535600,7.16653564453125,0.6735960114121436,7.9820304345518345,-2.6856156327813863
1761508130569506800,7.1765068359375,-0.3352747416615486,9.419386127904056,-2.9862536530867216
1761508130579478800,7.186478759765625,-1.6959902629256247,9.564936170089243,-2.712518252754211
1761508130589450000,7.196449951171875,-2.9513667563617227,9.340854442980884,-2.753743997111916
1761508130599420700,7.206420654296875,-3.8867221913695333,8.917329755458235,-3.0138568225443363
1761508130609393000,7.216392822265625,-4.356990509888529,8.363352057117224,-3.0087849261075257
1761508130619363800,7.22636376953125,-4.240243368339538,8.239127711555362,-3.0775223622471093
1761508130629335800,7.236335693359375,-4.202833967399597,8.03269270029664,-3.202853500007093
1761508130639306800,7.246306640625,-4.374886816585064,7.513461905688047,-3.232094499799609
1761508130649278000,7.25627783203125,-4.513365312948823,6.847479876410961,-3.0676322518736123
1761508130659249700,7.266249755859375,-4.628067796927691,5.9483718128263945,-2.5771441521465777
1761508130669220900,7.276220947265625,-4.639439670291543,4.827561026224494,-1.8911781962439416
1761508130679192800,7.28619287109375,-4.5862844186872245,3.456945457714796,-1.131704228799045
1761508130689164000,7.2961640625,-4.37811922263503,1.9968705675542353,-0.6587333733230829
1761508130699134700,7.306134765625,-3.8698119731009006,0.6468553040027618,-0.3575245673924684
1761508130709107000,7.31610693359375,-3.1672341973543165,-0.7014192533612251,-0.21862170813679693
1761508130719078000,7.326077880859375,-2.2479764951884746,-1.880778090521693,-0.44931759268790483
1761508130729049900,7.3360498046875,-1.1908908695220946,-2.84286546511054,-0.7605354591965675
1761508130739020800,7.346020751953125,-0.09690203887224197,-3.5594226663708683,-0.9451078904762864
1761508130748991700,7.35599169921875,0.8590800045788287,-4.0253789669096465,-0.8712944662466645
1761508130758963700,7.365963623046875,1.609339568954706,-4.220737872880697,-0.6305021350950002
1761508130768934700,7.3759345703125,2.1214076323270796,-4.2809260918617245,-0.24894202759861944
1761508130778907000,7.385906982421875,2.242206679615378,-4.206929712280631,0.08480272801667452
1761508130788877800,7.3958779296875,2.0049539207667113,-3.8493449391335246,0.14736673621833324
1761508130798848800,7.405848876953125,1.673795966774225,-3.402012090522051,0.1267269760325551
1761508130808820700,7.41582080078125,1.3783148908406495,-2.930733718177676,0.24180647663027047
1761508130818792000,7.4257919921875,1.1306453673958778,-2.5100468844294546,0.405019601278007
1761508130828763600,7.435763671875,1.0424334154576063,-2.186587083724141,0.6665311875924468
1761508130838734800,7.44573486328125,1.1352262654453515,-1.8948820191979407,0.9060881317302584
1761508130848705800,7.455705810546875,1.3125947566956282,-1.6341361565589905,1.083130167505145
1761508130858677800,7.465677734375,1.4379460604608059,-1.3948328949213027,1.245185938811302
1761508130868648700,7.475648681640625,1.420515617710352,-1.2418974186599254,1.3429600843429566
1761508130878621000,7.485620849609375,1.2767618112921715,-1.1349848579049109,1.388724641174078
1761508130888592000,7.495591796875,1.0044166962742804,-1.0608177979320288,1.3899074212178588
1761508130898562800,7.505562744140625,0.670796151560545,-1.0352923115313053,1.3491910876870155
1761508130908534800,7.51553466796875,0.2412754384934902,-1.0244412471711635,1.2426745405122637
1761508130918506000,7.525506103515625,-0.06303367154002189,-1.094085276761651,1.2070318569839
1761508130928477700,7.535477783203125,-0.187369660782814,-1.2354074721187351,1.1815382270261645
1761508130938449000,7.545448974609375,-0.15794833598732946,-1.479501475164294,1.1049103298977017
1761508130948420900,7.5554208984375,-0.01734276446700096,-1.7502210348069667,1.0178756050452589
1761508130958391800,7.565391845703125,0.25527707583904263,-1.9357523742467164,1.0081655274137853
1761508130968362800,7.57536279296875,0.685714319229126,-2.0399258654266594,0.9945561042562127
1761508130978334500,7.58533447265625,1.193717617380619,-2.0062620807558296,0.8731088221922516
1761508130988305400,7.595305419921875,1.675640717858076,-1.8336919296979903,0.7153864039152861
1761508130998277400,7.60527734375,1.925032827311754,-1.4484738842159508,0.5702867358461022
1761508131008248300,7.615248291015625,1.6899147424042225,-0.9565835164755582,0.3476262737125158
1761508131018219300,7.62521923828125,1.0201520255446432,-0.38185353748500345,-0.10754589022248982
1761508131028191200,7.635191162109375,0.25834698480367657,0.22445991277098654,-0.46516778050959107
1761508131038162200,7.645162109375,-0.4402893598407507,0.8161158921211957,-0.5767945103049278
1761508131048134400,7.655134521484375,-1.0106015223890543,1.4857465070337057,-0.7244324646800756
1761508131058105300,7.665105224609375,-1.3509604354470968,2.2329741563677787,-1.0684650978147983
1761508131068076300,7.675076171875,-1.5509931784480808,2.9793612632244826,-1.4189850471422076
1761508131078048300,7.68504833984375,-1.7888287056207657,3.702693657708168,-1.6769842414215206
1761508131088019500,7.69501953125,-2.013671480229497,4.435211229166388,-2.001280492950976
1761508131097991200,7.7049912109375,-2.1906366513758897,5.343494532853365,-2.535171388813853
1761508131107962400,7.71496240234375,-2.381592353951931,6.431552804410457,-3.3318101347878573
1761508131117933300,7.724933349609375,-2.547862528082728,7.666577999213337,-4.35455568395704
1761508131127905300,7.7349052734375,-2.674613177251816,8.940142475768923,-5.383323854416608
1761508131137876200,7.744876220703125,-3.008170593601465,10.056376455974577,-6.207472246345877
1761508131147848400,7.754848388671875,-3.5365246058642863,10.799532910346985,-6.856902369272708
1761508131157819400,7.7648193359375,-3.9654192959874868,11.094136618924141,-7.170084521591663
1761508131167790300,7.774790283203125,-4.243023354446888,10.86475853897333,-6.961163538736105
1761508131177762300,7.78476220703125,-4.376946671724319,10.364427675145864,-6.277407367837428
1761508131187733500,7.7947333984375,-4.614992042255401,9.469762562444805,-5.075469034600258
1761508131197705200,7.804705322265625,-4.946477328506112,7.998377758240699,-3.6167709857508537
1761508131207676400,7.814676513671875,-5.379453734984994,5.920762505888939,-2.215129579858482
1761508131217647400,7.8246474609375,-5.359240383517742,3.6159582080632444,-1.012804585391283
1761508131227619300,7.834619384765625,-4.626636302819848,1.5325211176902054,0.31576749263703824
1761508131237590300,7.84459033203125,-3.730687287788093,-1.10445644865036,1.8256983005955814
1761508131247562500,7.8545625,-2.4708877172127366,-3.9084336724400517,3.1585639841645956
1761508131257533200,7.864533203125,-1.2735112850636243,-6.566562747880816,4.197386515648663
1761508131267504400,7.87450439453125,-0.37418402577042575,-8.802551283633708,4.620478656972945
1761508131277476400,7.884476318359375,0.49832595374584193,-10.26441481077671,4.485318491376936
1761508131287447600,7.894447509765625,1.7077034970730542,-10.681496898031234,3.864738030837476
1761508131297419300,7.904419189453125,2.9231144753456113,-10.194573797309397,3.008301526504755
1761508131307390500,7.914390380859375,3.7015854042053222,-9.616430795004963,2.468227850353718
1761508131317361400,7.924361328125,4.001121893009543,-8.855131950220466,2.138229295529425
1761508131327333400,7.93433349609375,3.940152752783894,-7.891476303401589,2.2637580016881227
1761508131337304300,7.94430419921875,3.5170383996278045,-7.010671373748779,2.661328748264909
1761508131347276500,7.954276611328125,2.7776678935348986,-6.1908139570117,3.1506597869113087
1761508131357247200,7.964247314453125,1.7832699024498462,-5.563316848951578,3.8375215226098893
1761508131367219500,7.974219482421875,0.8423112406075001,-5.172808295845985,4.545300374130904
1761508131377190400,7.9841904296875,0.2625561269313097,-4.9754661071032285,5.138913040506839
1761508131387161300,7.994161376953125,0.4979191265106201,-5.02559528888464,5.505663701406121
1761508131397131500,8.004131591796876,0.6300491306304932,-4.96048773368001,5.436378568255901
1761508131407103200,8.014103271484375,1.708117923092842,-5.3011102661103005,5.574927791768312
1761508131417074400,8.024074462890624,3.1461294500052928,-5.601543996015191,5.3726423014044755
1761508131427046400,8.03404638671875,4.521200828880072,-5.887078262951969,5.17660301195383
1761508131437017300,8.044017333984375,5.646050077217817,-5.973510345736146,4.890860655224323
1761508131446988300,8.05398828125,6.2832800592631095,-5.956032556712627,4.5292382971242064
1761508131456960500,8.06396044921875,6.47820992616713,-5.87775221620202,4.098498271395266
1761508131466931500,8.073931396484374,6.231119079393148,-5.69222146128416,3.7080674597010015
1761508131476903400,8.0839033203125,5.339439119982719,-5.342259438100457,3.375084628368914
1761508131486874400,8.093874267578125,3.9371272674828766,-4.905421095496416,2.9815435756996274
1761508131496845300,8.10384521484375,2.737463308918476,-4.174074321383237,2.481550857785344
1761508131506817300,8.1138173828125,1.9643425089150666,-2.683868496853113,1.5753478675037622
1761508131516788200,8.123788330078124,1.7219798597067593,-0.7083464222759008,0.2949789716303348
1761508131526760400,8.133760498046875,1.6828753452867269,1.3234732935845852,-1.037223279593885
1761508131536731100,8.143731201171875,1.6405197201162576,3.284116947981715,-2.014543879149854
1761508131546703400,8.153703369140626,1.6207225482344627,4.80477811653018,-2.7017212566688653
1761508131556674300,8.16367431640625,1.5793921744585036,6.451744528567791,-3.585770282809436
1761508131566645500,8.1736455078125,0.8871686194658279,8.010683697584271,-4.076788251629472
1761508131576617200,8.1836171875,-0.8657669349968433,8.471668639451265,-3.5977351536303757
1761508131586588400,8.19358837890625,-3.107196785020828,8.557837687385081,-2.924920355723798
1761508131596560100,8.20356005859375,-4.993304546132683,8.731386328086256,-2.4555203444719313
1761508131606531300,8.21353125,-5.9636003616184,8.336174711856245,-1.9103660040557384
1761508131616502300,8.223502197265624,-5.735894598793983,7.683834838962555,-1.589250136128068
1761508131626474500,8.233474609375,-4.672297399276495,7.214992169332504,-1.8151012109965086
1761508131636445200,8.243445068359375,-3.612152386039495,6.445729213801026,-2.145676981186867
1761508131646417400,8.25341748046875,-2.7137334737628698,5.600403009286523,-2.433937750478089
1761508131656388400,8.263388427734375,-2.337164014160633,4.970529235222935,-2.490331253351271
1761508131666359600,8.273359619140624,-2.519406833449006,4.282251787507533,-2.088707431991398
1761508131676331300,8.283331298828125,-3.1276667415976522,3.668519000905752,-1.7121400182157753
1761508131686302500,8.293302490234375,-3.5233483134269714,3.0783459535896776,-1.522956586009264
1761508131696274200,8.303274169921876,-3.5560792011618614,2.262330014711618,-1.3736600507721304
1761508131706245400,8.313245361328125,-3.2422429688483474,1.1638637463867663,-1.3578952031463385
1761508131716216300,8.32321630859375,-2.544131524860859,-0.04818623102009296,-1.2692784697994588
1761508131726188500,8.3331884765625,-1.5080658908694982,-1.1307745467334984,-0.9851020472124218
1761508131736159200,8.3431591796875,-0.33884500136375423,-1.9669570753276346,-0.930147637231648
1761508131746131500,8.35313134765625,0.7598807946801185,-2.690039878964424,-0.9612374797612429
1761508131756102400,8.363102294921875,1.7668267171710728,-3.1689591214507815,-0.9103893360555172
1761508131766073300,8.3730732421875,2.533947984498739,-3.41208457172513,-0.6429670643925667
1761508131776045300,8.38304541015625,2.9176795908153057,-3.4505461120665073,-0.26531623929440973
1761508131786016300,8.393016357421875,2.9112662166416645,-3.310125833985209,0.08152619056403636
1761508131795988200,8.40298828125,2.627648596981168,-3.0436031415104865,0.19631489152163267
1761508131805960400,8.41296044921875,1.8328280063450335,-2.4096914902329445,0.28812749830037354
1761508131815932200,8.42293212890625,1.5124930596619843,-2.0097873322725297,0.22459727541506289
1761508131825903400,8.4329033203125,1.2078367436259985,-1.6393331406801939,0.2393108604222536
1761508131835874300,8.442874267578125,0.9040975424349308,-1.3398176946640015,0.30547552346438167
1761508131845846500,8.452846435546874,0.5839204166620969,-1.04986794937253,0.3088496760725975
1761508131855817200,8.462817138671875,0.2706581848442554,-0.8025824568092823,0.20447861649394034
1761508131865789400,8.47278955078125,0.008569090902805328,-0.6383814901679754,0.15159896696060896
1761508131875760400,8.482760498046876,-0.20605916368365287,-0.44028585270941256,0.05175707524418831
1761508131885732400,8.492732421875,-0.30262042629420755,-0.16052315491139887,-0.12967471992224455
1761508131895703300,8.502703369140624,-0.28017770833969113,0.09410685519576072,-0.3163905929714441
1761508131905674200,8.51267431640625,-0.2625987970292568,0.26266250991523266,-0.41993601538091896
1761508131915646200,8.522646240234375,-0.36735505653321743,0.3816927939653396,-0.3876981718599796
1761508131925617200,8.5326171875,-0.7107721881181002,0.4032879551798105,-0.4610270274430513
1761508131935589400,8.54258935546875,-1.07504564524889,0.3384229765594005,-0.5806821653932333
1761508131945560300,8.552560302734374,-1.190071369832754,0.3204039202660322,-0.5334472437486052
1761508131955531300,8.56253125,-1.0427934809416533,0.3061041767567396,-0.30284166782945393
1761508131965503200,8.572503173828125,-0.8908253884077072,0.29995325291156766,-0.012511106526851654
1761508131975474700,8.582474609375,-0.8783253877967595,0.3687824589878321,0.21735855633318424
1761508131985446400,8.5924462890625,-0.982460885053873,0.45100949129760265,0.33230858533233404
1761508131995417600,8.60241748046875,-0.9912404038369655,0.45618017193377014,0.40698856326341626
1761508132005388500,8.612388427734375,-0.9302502208232879,0.4241407735943794,0.4477148336663842
1761508132015360500,8.622360595703125,-0.8484300157487392,0.3133808897614479,0.31743308776170015
1761508132025331500,8.63233154296875,-0.6624024172246455,0.17249650129973887,0.20840689585357902
1761508132035303700,8.6423037109375,-0.4644686923295259,0.0009814122527837753,0.12233517081439495
1761508132045274600,8.652274658203124,-0.2414279987066984,-0.21039982323646544,0.0985454221650958
1761508132055245300,8.662245361328125,0.02565466573834419,-0.40107203269600866,0.09908610491305589
1761508132065217500,8.672217529296875,0.2767448112815618,-0.5760924995154142,0.18154840728342533
1761508132075188500,8.6821884765625,0.4556383201420307,-0.6149082601219416,0.34219197370409965
1761508132085160400,8.692160400390625,0.4570049323201179,-0.6006441724479198,0.399502883683145
1761508132095131400,8.70213134765625,0.19488778132796286,-0.8700970731556416,0.28485271441340443
1761508132105102600,8.7121025390625,1.598271062451601,-1.1827145773291587,-0.4971116095200181
1761508132115074300,8.72207421875,2.7618951548635957,-0.4794225158333778,-0.5658034529522061
1761508132125045500,8.73204541015625,1.9507453607171772,-0.918345848017931,-0.040429625543951984
1761508132135017500,8.742017578125,1.3998749807417392,-0.38810266100764274,-0.2673918765246868
1761508132144988400,8.751988525390624,0.055065469139814374,-0.7030044767260551,-0.44359161625653504
1761508132154959400,8.76195947265625,-0.3042997576832771,-0.8138292424887418,-0.9410562769979238
