time,seconds_elapsed,z,y,x
1761508123469864700,0.07686474609375,-0.13332104682922363,0.04748538136482239,0.0005001685349270701
1761508123479835400,0.08683544921875,-0.1401965320110321,0.05488470569252968,-0.016974961385130882
1761508123489807600,0.0968076171875,-0.13785934448242188,0.06578975915908813,-0.03339160233736038
1761508123499778600,0.106778564453125,-0.1328219771385193,0.0857754498720169,-0.03458097204566002
1761508123509749800,0.116749755859375,-0.12661030888557434,0.09833259880542755,-0.026168154552578926
1761508123519721500,0.126721435546875,-0.12202621251344681,0.07480011135339737,-0.012222245335578918
1761508123529692700,0.136692626953125,-0.1223732978105545,0.027780234813690186,-0.014250049367547035
1761508123539664400,0.146664306640625,-0.1210361123085022,-0.023005181923508644,-0.0174583587795496
1761508123549635600,0.156635498046875,-0.12265343964099884,-0.06215386092662811,-0.035193830728530884
1761508123559606500,0.1666064453125,-0.12381617724895477,-0.08364929258823395,-0.052052706480026245
1761508123569578800,0.176578857421875,-0.12121907621622086,-0.08459027856588364,-0.07432423532009125
1761508123579549400,0.186549560546875,-0.1255943775177002,-0.0694909542798996,-0.08712472021579742
1761508123589521700,0.196521728515625,-0.12797455489635468,-0.03492162376642227,-0.0882212296128273
1761508123599492600,0.20649267578125,-0.13479624688625336,0.0046375044621527195,-0.08386509865522385
1761508123609463800,0.2164638671875,-0.1371169239282608,0.04223952442407608,-0.07545790076255798
1761508123619435500,0.226435546875,-0.13070696592330933,0.06473205238580704,-0.07086288183927536
1761508123629406700,0.23640673828125,-0.11834114789962769,0.07830257713794708,-0.06260324269533157
1761508123639378400,0.24637841796875,-0.11071785539388657,0.08253248035907745,-0.05512162670493126
1761508123649349600,0.256349609375,-0.1108153760433197,0.07361873239278793,-0.03869326785206795
1761508123659321600,0.266321533203125,-0.12172768265008926,0.06577944755554199,-0.02354787103831768
1761508123669292800,0.276292724609375,-0.13956977427005768,0.061694275587797165,-0.014200741425156593
1761508123679263500,0.286263427734375,-0.14417783915996552,0.07292935252189636,-0.008991332724690437
1761508123689235700,0.296235595703125,-0.13635079562664032,0.09351369738578796,-0.00811241939663887
1761508123699206700,0.30620654296875,-0.11459942907094955,0.1118551567196846,-0.020247912034392357
1761508123709178600,0.3161787109375,-0.10223287343978882,0.12034638971090317,-0.02546435408294201
1761508123719149600,0.326149658203125,-0.09839951992034912,0.11788669228553772,-0.028223922476172447
1761508123729120500,0.33612060546875,-0.11070755869150162,0.10751048475503922,-0.034558530896902084
1761508123739092500,0.346092529296875,-0.123146653175354,0.10547289997339249,-0.03966647386550903
1761508123749063400,0.3560634765625,-0.129782572388649,0.10489172488451004,-0.046358872205019
1761508123759035600,0.36603564453125,-0.12450365722179413,0.1181260347366333,-0.047237180173397064
1761508123769006600,0.376006591796875,-0.11955204606056213,0.12980931997299194,-0.04432741180062294
1761508123778977500,0.3859775390625,-0.112584687769413,0.1369180977344513,-0.03639944642782211
1761508123788949500,0.395949462890625,-0.10868120938539505,0.12926307320594788,-0.018572060391306877
1761508123798920700,0.405920654296875,-0.10124566406011581,0.12282354384660721,-0.007991586811840534
1761508123808892400,0.415892333984375,-0.08693040907382965,0.11176418513059616,-0.0015681488439440727
1761508123818863600,0.425863525390625,-0.0689021423459053,0.12324293702840805,0.009240290150046349
1761508123828835600,0.435835693359375,-0.05676645413041115,0.16563007235527039,0.02311044931411743
1761508123838806500,0.445806640625,-0.05726020410656929,0.2024056762456894,0.02477625384926796
1761508123848777500,0.455777587890625,-0.06410083174705505,0.23890072107315063,0.010008261539041996
1761508123858749700,0.465749755859375,-0.06801727414131165,0.28324154019355774,-0.00946077797561884
1761508123868720600,0.475720703125,-0.07773903757333755,0.3280085623264313,-0.01621226780116558
1761508123878692600,0.485692626953125,-0.07935184985399246,0.37672656774520874,-0.010695263743400574
1761508123888663600,0.49566357421875,-0.07632513344287872,0.4019382894039154,0.0059668393805623055
1761508123898634800,0.505634765625,-0.06597555428743362,0.388930082321167,0.04766048863530159
1761508123908606500,0.5156064453125,-0.04659807309508324,0.34736284613609314,0.10428036004304886
1761508123918577700,0.52557763671875,-0.025108492001891136,0.2852557897567749,0.17539742588996887
1761508123928549600,0.535549560546875,0.003579013515263796,0.22915640473365784,0.2366734743118286
1761508123938520600,0.5455205078125,0.028777843341231346,0.1478242725133896,0.2685413956642151
1761508123948491500,0.555491455078125,0.03723713010549545,0.056617654860019684,0.283569872379303
1761508123958463700,0.565463623046875,0.04353923350572586,-0.07372889667749405,0.252635657787323
1761508123968434700,0.5754345703125,0.050840023905038834,-0.19795657694339752,0.20130616426467896
1761508123978406000,0.585406005859375,0.07858403772115707,-0.25883856415748596,0.12327420711517334
1761508123988376800,0.595376953125,0.1615065187215805,-0.2144327461719513,0.06771603226661682
1761508123998349000,0.60534912109375,0.3330095708370209,-0.10617204755544662,0.08831532299518585
1761508124008319700,0.61531982421875,0.5190731287002563,0.026238104328513145,0.20046578347682953
1761508124018291000,0.625291015625,0.6846615672111511,0.08659013360738754,0.3626413643360138
1761508124028263000,0.635262939453125,0.7752240300178528,0.08523501455783844,0.524031400680542
1761508124038234000,0.645234130859375,0.7921172976493835,-0.007051239721477032,0.6430630087852478
1761508124048205800,0.655205810546875,0.728868305683136,-0.1629880666732788,0.705525815486908
1761508124058177000,0.665177001953125,0.6114138960838318,-0.30750662088394165,0.6985496282577515
1761508124068148000,0.67514794921875,0.49278998374938965,-0.41532623767852783,0.6323506832122803
1761508124078120000,0.685119873046875,0.37724632024765015,-0.4543844163417816,0.5293236374855042
1761508124088091000,0.6950908203125,0.23848874866962433,-0.4079228639602661,0.39059939980506897
1761508124098063000,0.70506298828125,0.07180017232894897,-0.32831084728240967,0.1919909566640854
1761508124108033800,0.71503369140625,-0.10681331157684326,-0.2525656521320343,-0.07047455757856369
1761508124118005000,0.7250048828125,-0.2535947859287262,-0.16048714518547058,-0.35250890254974365
1761508124127977000,0.73497705078125,-0.3832589387893677,-0.05726677551865578,-0.6334506273269653
1761508124137948200,0.7449482421875,-0.5157017111778259,0.06993032246828079,-0.9192889928817749
1761508124147920000,0.754919921875,-0.6258233189582825,0.24729104340076447,-1.1489139795303345
1761508124157891000,0.76489111328125,-0.6893836259841919,0.4579590857028961,-1.3024835586547852
1761508124167862000,0.774862060546875,-0.6932154297828674,0.6663482785224915,-1.332765817642212
1761508124177834000,0.784833984375,-0.6391921639442444,0.8449116349220276,-1.237849235534668
1761508124187805000,0.794804931640625,-0.5648536682128906,0.9558398127555847,-1.0419254302978516
1761508124197777200,0.804777099609375,-0.5023192167282104,0.9593775272369385,-0.8091103434562683
1761508124207747800,0.814747802734375,-0.44207191467285156,0.8678938150405884,-0.6020986437797546
1761508124217720000,0.824719970703125,-0.377630352973938,0.7406154870986938,-0.4655173718929291
1761508124227691000,0.83469091796875,-0.314522385597229,0.6339433789253235,-0.38177230954170227
1761508124237662000,0.844661865234375,-0.22409503161907196,0.572564959526062,-0.2884812355041504
1761508124247634000,0.854634033203125,-0.10624726116657257,0.554000198841095,-0.15351790189743042
1761508124257605000,0.864605224609375,0.02485509216785431,0.5650061964988708,0.01749885082244873
1761508124267576800,0.874576904296875,0.13811498880386353,0.5855833888053894,0.17490407824516296
1761508124277548000,0.884548095703125,0.2340007722377777,0.6517975926399231,0.2755606472492218
1761508124287519000,0.89451904296875,0.302044540643692,0.7839881777763367,0.2348896861076355
1761508124297491200,0.9044912109375,0.3344533443450928,1.0048809051513672,0.01701621524989605
1761508124307462000,0.9144619140625,0.32465672492980957,1.224277138710022,-0.2986246645450592
1761508124317434000,0.92443408203125,0.273324579000473,1.3272631168365479,-0.6681880354881287
1761508124327405000,0.934405029296875,0.20730262994766235,1.2482768297195435,-0.9878771901130676
1761508124337376000,0.9443759765625,0.12210944294929504,0.9926354885101318,-1.1605123281478882
1761508124347348000,0.954347900390625,0.015099492855370045,0.5413160920143127,-1.1769907474517822
1761508124357319000,0.96431884765625,-0.06298598647117615,0.011837886646389961,-1.0319124460220337
1761508124367291000,0.974290771484375,-0.13135011494159698,-0.4518234431743622,-0.7690015435218811
1761508124377261800,0.98426171875,-0.1843656599521637,-0.7558621764183044,-0.5117297768592834
1761508124387234000,0.994234130859375,-0.2573685348033905,-0.8610249757766724,-0.351736456155777
1761508124397205000,1.004205078125,-0.31303897500038147,-0.8008130192756653,-0.2877316474914551
1761508124407176000,1.014176025390625,-0.3295190632343292,-0.5973775386810303,-0.29425328969955444
1761508124417148000,1.02414794921875,-0.3209967017173767,-0.34602653980255127,-0.34321096539497375
1761508124427119000,1.034119140625,-0.2833700478076935,-0.09504678100347519,-0.3554847836494446
1761508124437090800,1.0440908203125,-0.20741987228393555,0.08934303373098373,-0.2877616584300995
1761508124447062000,1.05406201171875,-0.09499563276767731,0.16015852987766266,-0.10785745829343796
1761508124457033000,1.064032958984375,0.04646295681595802,0.15150485932826996,0.18481355905532837
1761508124467005000,1.0740048828125,0.21459272503852844,0.019522778689861298,0.5121249556541443
1761508124476975900,1.083975830078125,0.38084402680397034,-0.23350921273231506,0.7924442291259766
1761508124486948000,1.093947998046875,0.526685357093811,-0.5368379354476929,1.0234183073043823
1761508124496919000,1.1039189453125,0.6365106701850891,-0.8186246156692505,1.1904786825180054
1761508124506890000,1.113889892578125,0.6867232322692871,-1.0708246231079102,1.2622222900390625
1761508124516862000,1.123862060546875,0.6408942341804504,-1.2824894189834595,1.2261090278625488
1761508124526833200,1.133833251953125,0.48413923382759094,-1.5136479139328003,1.051107406616211
1761508124536804900,1.143804931640625,0.23471291363239288,-1.7527755498886108,0.7481648325920105
1761508124546776000,1.153776123046875,-0.06959161907434464,-1.943928837776184,0.3706902861595154
1761508124556747000,1.1637470703125,-0.42745307087898254,-1.9921424388885498,-0.03012770228087902
1761508124566719000,1.173718994140625,-0.8174687027931213,-1.910460114479065,-0.42189985513687134
1761508124576690000,1.18368994140625,-1.0765846967697144,-1.7414079904556274,-0.7498875856399536
1761508124586662100,1.193662109375,-1.1250563859939575,-1.424310564994812,-0.8532270789146423
1761508124596632800,1.2036328125,-0.9304980635643005,-1.0418760776519775,-0.7149559855461121
1761508124606605000,1.21360498046875,-0.7092565298080444,-0.6723215579986572,-0.44514933228492737
1761508124616576000,1.223575927734375,-0.5374584197998047,-0.39737603068351746,-0.15999162197113037
1761508124626547000,1.233546875,-0.395407497882843,-0.2740899622440338,-0.000020575360395014286
1761508124636519000,1.243518798828125,-0.15753021836280823,-0.1686844378709793,0.06426813453435898
1761508124646489900,1.25348974609375,0.21199911832809448,-0.027381526306271553,0.04714159294962883
1761508124656462000,1.263462158203125,0.536387026309967,0.1789705902338028,0.05196404457092285
1761508124666432800,1.273432861328125,0.6804986000061035,0.38432425260543823,0.12585234642028809
1761508124676404000,1.283404052734375,0.6645353436470032,0.4588770568370819,0.2370033711194992
1761508124686376000,1.2933759765625,0.5457353591918945,0.34761184453964233,0.36833876371383667
1761508124696347000,1.303346923828125,0.3626933991909027,0.07538697868585587,0.48607179522514343
1761508124706318800,1.31331884765625,0.1590873748064041,-0.24589595198631287,0.5415284037590027
1761508124716290000,1.3232900390625,-0.02326938882470131,-0.47872307896614075,0.5234620571136475
1761508124726261000,1.333260986328125,-0.15651585161685944,-0.5142043232917786,0.44997918605804443
1761508124736233000,1.34323291015625,-0.21297407150268555,-0.3211783766746521,0.3572649359703064
1761508124746204000,1.353203857421875,-0.18908198177814484,0.036236122250556946,0.2753884494304657
1761508124756176000,1.36317578125,-0.1155233383178711,0.39658018946647644,0.21530355513095856
1761508124766146800,1.373146728515625,-0.03191877529025078,0.6369841694831848,0.20314659178256989
1761508124776118000,1.383117919921875,0.04920857027173042,0.7180308103561401,0.2706334888935089
1761508124786090000,1.393090087890625,0.08407828956842422,0.6510676145553589,0.37324467301368713
1761508124796061000,1.40306103515625,0.05042685568332672,0.47519436478614807,0.5045744776725769
1761508124806033000,1.413032958984375,-0.03137154132127762,0.20872798562049866,0.6279304623603821
1761508124816004000,1.423004150390625,-0.15377788245677948,-0.04566355422139168,0.7126048803329468
1761508124825975800,1.432975830078125,-0.3037455677986145,-0.1916237473487854,0.7656970620155334
1761508124835947000,1.442947021484375,-0.4187113046646118,-0.23763251304626465,0.7509207725524902
1761508124845918000,1.45291796875,-0.5003602504730225,-0.19096523523330688,0.6839982271194458
1761508124855890000,1.462889892578125,-0.5448569059371948,-0.09161841124296188,0.6007366180419922
1761508124865860900,1.47286083984375,-0.5638540387153625,-0.05103370547294617,0.47299760580062866
1761508124875833000,1.4828330078125,-0.5803794860839844,-0.05847431346774101,0.3257085382938385
1761508124885804000,1.492803955078125,-0.6128247976303101,-0.09923256933689117,0.14577332139015198
1761508124895774700,1.502774658203125,-0.6566553711891174,-0.13707876205444336,-0.053113676607608795
1761508124905747000,1.512746826171875,-0.6793164014816284,-0.1206076368689537,-0.24325181543827057
1761508124915718100,1.52271826171875,-0.6469725966453552,-0.06833405047655106,-0.37669482827186584
1761508124925689900,1.53268994140625,-0.5487563610076904,-0.021835777908563614,-0.41879311203956604
1761508124935661000,1.5426611328125,-0.4133673906326294,0.03982678800821304,-0.3600432574748993
1761508124945632000,1.552632080078125,-0.27260705828666687,0.1199166476726532,-0.22528328001499176
1761508124955604000,1.56260400390625,-0.11021094769239426,0.19745086133480072,-0.03291596099734306
1761508124965575000,1.572574951171875,0.05863972753286362,0.2503070831298828,0.16427366435527802
1761508124975548000,1.5825478515625,0.211364284157753,0.24719250202178955,0.336626261472702
1761508124985518800,1.592518798828125,0.34208181500434875,0.16698816418647766,0.4666147530078888
1761508124995490800,1.60249072265625,0.4430302679538727,0.07787159085273743,0.5557212233543396
1761508125005462000,1.6124619140625,0.4840126931667328,-0.061870276927948,0.5578572750091553
1761508125015433000,1.622432861328125,0.4312610626220703,-0.2085084617137909,0.47746843099594116
1761508125025405000,1.632405029296875,0.31528496742248535,-0.3466489315032959,0.33708685636520386
1761508125035375900,1.6423759765625,0.16540385782718658,-0.43295079469680786,0.1787632703781128
1761508125045347800,1.652347900390625,-0.004229369107633829,-0.4717375934123993,0.04059625789523125
1761508125055318800,1.66231884765625,-0.14952370524406433,-0.48282912373542786,-0.05970744416117668
1761508125065289700,1.672289794921875,-0.25016602873802185,-0.478735089302063,-0.13825148344039917
1761508125075262000,1.682261962890625,-0.36163634061813354,-0.4997090697288513,-0.2576942443847656
1761508125085232600,1.692232666015625,-0.4950789511203766,-0.5673982501029968,-0.4763137400150299
1761508125095204900,1.702204833984375,-0.6119733452796936,-0.6983189582824707,-0.7622570395469666
1761508125105175800,1.71217578125,-0.6895108819007874,-0.8153879642486572,-1.0494385957717896
1761508125115146800,1.722146728515625,-0.7551836371421814,-0.8298628330230713,-1.3028846979141235
1761508125125118700,1.73211865234375,-0.7843261361122131,-0.6932080984115601,-1.4560554027557373
1761508125135090000,1.74208984375,-0.68160080909729,-0.4082796573638916,-1.4560413360595703
1761508125145061600,1.7520615234375,-0.45580917596817017,0.024773629382252693,-1.2899563312530518
1761508125155032800,1.76203271484375,-0.16736620664596558,0.41886794567108154,-1.1184593439102173
1761508125165003800,1.772003662109375,0.11425947397947311,0.687188446521759,-1.022162914276123
1761508125174976000,1.78197607421875,0.3338669240474701,0.8552411198616028,-1.0161092281341553
1761508125184946700,1.79194677734375,0.4579624831676483,0.9060977697372437,-1.0416843891143799
1761508125194919000,1.8019189453125,0.5150500535964966,0.9211739301681519,-0.9938747882843018
1761508125204889900,1.811889892578125,0.582945704460144,0.9411426186561584,-0.8725271821022034
1761508125214860800,1.82186083984375,0.6409240365028381,0.9979435801506042,-0.6945667862892151
1761508125224832800,1.831832763671875,0.6453890204429626,1.106281042098999,-0.46166491508483887
1761508125234804000,1.841803955078125,0.5976516008377075,1.2132543325424194,-0.18650180101394653
1761508125244775700,1.851775634765625,0.5283363461494446,1.2890634536743164,0.14011164009571075
1761508125254747000,1.861746826171875,0.4760587811470032,1.3042620420455933,0.4473056495189667
1761508125264717800,1.8717177734375,0.46480920910835266,1.2161794900894165,0.6998418569564819
1761508125274689800,1.881689697265625,0.5029864311218262,1.018440842628479,0.8815658688545227
1761508125284660700,1.89166064453125,0.5870898365974426,0.7585071921348572,0.9407643675804138
1761508125294633000,1.901633056640625,0.6816235184669495,0.4103987514972687,0.8729941248893738
1761508125304604000,1.91160400390625,0.7579373121261597,0.06704448163509369,0.6947952508926392
1761508125314574600,1.92157470703125,0.7461951971054077,-0.27951374650001526,0.44439446926116943
1761508125324546800,1.931546875,0.6524443030357361,-0.5295640826225281,0.19679392874240875
1761508125334517800,1.941517822265625,0.5358441472053528,-0.7152687311172485,-0.0439039021730423
1761508125344489700,1.95148974609375,0.3743506669998169,-0.8575697541236877,-0.2151881456375122
1761508125354460700,1.961460693359375,0.1186046376824379,-0.9276511073112488,-0.28791719675064087
1761508125364433000,1.971432861328125,-0.13952119648456573,-0.8120135068893433,-0.31336283683776855
1761508125374403800,1.98140380859375,-0.31376489996910095,-0.5245398879051208,-0.3130991756916046
1761508125384374800,1.991374755859375,-0.4573329985141754,-0.27578121423721313,-0.18433214724063873
1761508125394347000,2.001346923828125,-0.5201705098152161,-0.2023027539253235,0.04522567614912987
1761508125404318000,2.01131787109375,-0.48561200499534607,-0.29629895091056824,0.29014918208122253
1761508125414290000,2.0212900390625,-0.3899160921573639,-0.49030089378356934,0.5568740367889404
1761508125424260900,2.0312607421875,-0.2724617123603821,-0.6793434023857117,0.8056449294090271
1761508125434231800,2.041231689453125,-0.08353092521429062,-0.7846147418022156,1.016343116760254
1761508125444203800,2.051203857421875,0.11754357814788818,-0.6371750235557556,1.1410496234893799
1761508125454174700,2.0611748046875,0.2388519048690796,-0.2997594177722931,1.124552845954895
1761508125464147000,2.07114697265625,0.3312648832798004,0.062075965106487274,0.9624984860420227
1761508125474117600,2.08111767578125,0.355653315782547,0.3714042603969574,0.70880526304245
1761508125484088800,2.0910888671875,0.3733956515789032,0.6052055954933167,0.42437517642974854
1761508125494060800,2.101060791015625,0.3668070137500763,0.7193241715431213,0.16366180777549744
1761508125504032000,2.111031982421875,0.24120429158210754,0.689341127872467,-0.07936377078294754
1761508125514003700,2.121003662109375,0.012044079601764679,0.4856308400630951,-0.34219005703926086
1761508125523975000,2.130974853515625,-0.2809654474258423,0.17601114511489868,-0.6182941794395447
1761508125533945900,2.14094580078125,-0.5353138446807861,-0.16189979016780853,-0.8918426632881165
1761508125543917800,2.150917724609375,-0.77647465467453,-0.3703131675720215,-1.1514829397201538
1761508125553888800,2.160888671875,-0.9665277004241943,-0.369456946849823,-1.2971035242080688
1761508125563861000,2.170861083984375,-0.9040055871009827,-0.10441368073225021,-1.2312862873077393
1761508125573831700,2.180831787109375,-0.5375149846076965,0.42457959055900574,-0.9279059171676636
1761508125583804000,2.190803955078125,-0.07051770389080048,0.9741915464401245,-0.4857771396636963
1761508125593774800,2.20077490234375,0.19014237821102142,1.209567666053772,-0.10284813493490219
1761508125603746000,2.21074609375,0.14546357095241547,0.9565759897232056,0.08068376034498215
1761508125613717800,2.2207177734375,-0.016288569197058678,0.35008370876312256,0.08001131564378738
1761508125623689000,2.23068896484375,-0.1868238002061844,-0.2707177400588989,-0.09032595157623291
1761508125633660700,2.24066064453125,-0.24855242669582367,-0.5528586506843567,-0.36009830236434937
1761508125643631900,2.2506318359375,-0.2114265263080597,-0.4205716550350189,-0.5929693579673767
1761508125653602800,2.260602783203125,-0.054094430059194565,-0.041268542408943176,-0.72347092628479
1761508125663575000,2.270574951171875,0.21159221231937408,0.4528064727783203,-0.7005147337913513
1761508125673545700,2.280545654296875,0.48726320266723633,0.8292706608772278,-0.5721285343170166
1761508125683518000,2.29051806640625,0.7335932850837708,0.9896470308303833,-0.385966420173645
1761508125693489000,2.300489013671875,0.9135153889656067,0.942080020904541,-0.22659407556056976
1761508125703459800,2.3104599609375,1.0024096965789795,0.782185435295105,-0.10261765122413635
1761508125713431800,2.320431884765625,0.9917213320732117,0.5405062437057495,-0.028134629130363464
1761508125723402800,2.33040283203125,0.8674637675285339,0.2642696499824524,0.05101040005683899
1761508125733374700,2.340374755859375,0.6575685739517212,-0.01982625015079975,0.17378266155719757
1761508125743345700,2.350345703125,0.36231258511543274,-0.3332521319389343,0.3536401391029358
1761508125753316900,2.36031689453125,0.07707737386226654,-0.6110637784004211,0.5605560541152954
1761508125763288800,2.370288818359375,-0.13259685039520264,-0.7585480213165283,0.7227358222007751
1761508125773259800,2.380259765625,-0.1996736228466034,-0.7558598518371582,0.7676481604576111
1761508125783231700,2.390231689453125,-0.17511104047298431,-0.6340174078941345,0.7137663960456848
1761508125793203000,2.400202880859375,-0.14011070132255554,-0.4069786071777344,0.6243206858634949
1761508125803174000,2.410173828125,-0.14218978583812714,-0.18496406078338623,0.4923180639743805
1761508125813145900,2.420145751953125,-0.20299215614795685,-0.030750252306461334,0.34359487891197205
1761508125823116800,2.43011669921875,-0.3249013125896454,0.039923295378685,0.21195295453071594
1761508125833088800,2.4400888671875,-0.4688939154148102,0.05629348009824753,0.12136019766330719
1761508125843059700,2.450059814453125,-0.6122955679893494,0.05008343979716301,0.08105002343654633
1761508125853032000,2.460031982421875,-0.6917632222175598,0.04227691516280174,0.0905471220612526
1761508125863003000,2.4700029296875,-0.6533859372138977,0.03893940523266792,0.16904212534427643
1761508125872973800,2.479973876953125,-0.48729178309440613,0.053572144359350204,0.3301103413105011
1761508125882945800,2.48994580078125,-0.21554052829742432,0.061686981469392776,0.5280118584632874
1761508125892917000,2.4999169921875,0.10498742014169693,0.009084759280085564,0.7237701416015625
1761508125902888700,2.509888671875,0.3766680955886841,-0.11407157778739929,0.9080905318260193
1761508125912860000,2.51985986328125,0.5491330623626709,-0.30669134855270386,1.0457884073257446
1761508125922830800,2.529830810546875,0.6533818244934082,-0.5956655740737915,1.110422134399414
1761508125932802800,2.539802734375,0.6876921057701111,-0.8857879042625427,1.1177386045455933
1761508125942773800,2.549773681640625,0.6829029321670532,-1.1027814149856567,1.0494970083236694
1761508125952746000,2.55974609375,0.6487473249435425,-1.2314965724945068,0.9314071536064148
1761508125962717000,2.569717041015625,0.5791844129562378,-1.256995677947998,0.7913880348205566
1761508125972687600,2.5796875,0.4537380337715149,-1.1862138509750366,0.6542794704437256
1761508125982659300,2.589659423828125,0.267206072807312,-1.0146713256835938,0.5223055481910706
1761508125992630300,2.59963037109375,0.03301061689853668,-0.7710368037223816,0.3928985893726349
1761508126002602200,2.609602294921875,-0.1993539184331894,-0.5165725946426392,0.24153195321559906
1761508126012573200,2.6195732421875,-0.37105855345726013,-0.280513197183609,0.06350043416023254
1761508126022544100,2.629544189453125,-0.515980064868927,-0.11239547282457352,-0.09958537667989731
1761508126032516400,2.639516357421875,-0.613339364528656,0.025235354900360107,-0.21089139580726624
1761508126042487000,2.649487060546875,-0.6201037168502808,0.0847214087843895,-0.3158308267593384
1761508126052459300,2.659459228515625,-0.5494279861450195,0.04959005117416382,-0.4099027216434479
1761508126062430200,2.66943017578125,-0.45120730996131897,-0.07585254311561584,-0.4983939528465271
1761508126072401400,2.6794013671875,-0.39403483271598816,-0.22993610799312592,-0.5580815076828003
1761508126082373000,2.689373046875,-0.42677077651023865,-0.37878739833831787,-0.5915281772613525
1761508126092344300,2.69934423828125,-0.532869279384613,-0.4651670455932617,-0.6028023958206177
1761508126102316000,2.70931591796875,-0.6399983763694763,-0.45530256628990173,-0.6079511046409607
1761508126112287200,2.719287353515625,-0.6567954421043396,-0.32406145334243774,-0.6274235844612122
1761508126122258200,2.729258056640625,-0.5764389634132385,-0.1416844129562378,-0.6843583583831787
1761508126132230400,2.73923046875,-0.39664068818092346,0.03138057887554169,-0.7524979710578918
1761508126142201000,2.749201171875,-0.11354184150695801,0.10725204646587372,-0.8511543869972229
1761508126152173300,2.75917333984375,0.22854065895080566,0.08890046924352646,-0.9781399965286255
1761508126162144300,2.769144287109375,0.5024309754371643,0.01492175180464983,-1.1116502285003662
1761508126172116200,2.7791162109375,0.630530595779419,-0.021950779482722282,-1.2167742252349854
1761508126182087200,2.789087158203125,0.7524567246437073,-0.007516141980886459,-1.286004900932312
1761508126192058400,2.799058349609375,0.8991255164146423,-0.012127671390771866,-1.255534052848816
1761508126202030000,2.809030029296875,1.0470348596572876,-0.10401516407728195,-1.0654029846191406
1761508126212001300,2.819001220703125,1.1309164762496948,-0.2707221210002899,-0.7457980513572693
1761508126221973200,2.82897314453125,1.0948851108551025,-0.3996903896331787,-0.3120501637458801
1761508126231944400,2.8389443359375,0.9454439878463745,-0.49735623598098755,0.17509259283542633
1761508126241915100,2.8489150390625,0.737480103969574,-0.5413541197776794,0.6806719899177551
1761508126251887400,2.858887451171875,0.5310091972351074,-0.4971056878566742,1.1795318126678467
1761508126261858300,2.8688583984375,0.3812004029750824,-0.399359792470932,1.6243308782577515
1761508126271830300,2.878830322265625,0.2846251428127289,-0.259746253490448,1.9911160469055176
1761508126281801200,2.88880126953125,0.1649162918329239,-0.061151500791311264,2.3203012943267822
1761508126291772400,2.8987724609375,0.03659054636955261,0.10583748668432236,2.5870983600616455
1761508126301744000,2.908744140625,-0.13745993375778198,0.08629456907510757,2.720750570297241
1761508126311715300,2.91871533203125,-0.31929153203964233,-0.05914464592933655,2.6562933921813965
1761508126321687300,2.928687255859375,-0.47132816910743713,-0.2585790455341339,2.356280565261841
1761508126331658200,2.938658203125,-0.532795786857605,-0.40471524000167847,1.8290390968322754
1761508126341629200,2.948629150390625,-0.4882380962371826,-0.4047536849975586,1.1460137367248535
1761508126351601400,2.958601318359375,-0.359956830739975,-0.30259189009666443,0.3957277536392212
1761508126361572400,2.968572265625,-0.1883680522441864,-0.05920729786157608,-0.29697903990745544
1761508126371544300,2.97854443359375,-0.05239318683743477,0.15793220698833466,-0.7301986813545227
1761508126381515300,2.988515380859375,0.034498319029808044,0.24067319929599762,-0.8309602737426758
1761508126391486200,2.998486328125,0.09388627856969833,0.14385557174682617,-0.673974335193634
1761508126401458200,3.008458251953125,0.12775807082653046,-0.07088222354650497,-0.36731570959091187
1761508126411429000,3.01842919921875,0.11515838652849197,-0.26081302762031555,-0.0008647433714941144
1761508126421401300,3.0284013671875,0.060071542859077454,-0.34977635741233826,0.29278355836868286
1761508126431372300,3.038372314453125,0.004091630224138498,-0.3397485017776489,0.4737807512283325
1761508126441343200,3.04834326171875,-0.0041699958965182304,-0.23073990643024445,0.5680494904518127
1761508126451315200,3.058315185546875,0.027241189032793045,-0.05296884477138519,0.5887027978897095
1761508126461286400,3.068286376953125,0.08651155978441238,0.1155368909239769,0.5678030848503113
1761508126471258000,3.078258056640625,0.13339704275131226,0.2403283715248108,0.541002094745636
1761508126481229300,3.088229248046875,0.14930784702301025,0.2577759027481079,0.5303680300712585
1761508126491201300,3.098201171875,0.13423195481300354,0.17915326356887817,0.5056037902832031
1761508126501172200,3.108172119140625,0.04068846255540848,0.00329414289444685,0.41458776593208313
1761508126511143200,3.11814306640625,-0.12076754868030548,-0.24965687096118927,0.23164188861846924
1761508126521115400,3.128115478515625,-0.2680085599422455,-0.51609206199646,-0.01759358122944832
1761508126531086000,3.138086181640625,-0.39754125475883484,-0.7089600563049316,-0.3092714846134186
1761508126541058300,3.148058349609375,-0.5254944562911987,-0.7662436366081238,-0.6304144263267517
1761508126551029200,3.158029296875,-0.604067325592041,-0.5699872970581055,-0.877470850944519
1761508126561000400,3.16800048828125,-0.5228766798973083,-0.15191586315631866,-0.9422053098678589
1761508126570972200,3.17797216796875,-0.4653846323490143,0.16985072195529938,-0.9199010729789734
1761508126580943400,3.187943359375,-0.613454282283783,0.22940629720687866,-0.9747062921524048
1761508126590915300,3.197915283203125,-0.5882365703582764,0.29563936591148376,-1.0786076784133911
1761508126600886300,3.20788623046875,-0.11715325713157654,0.5622312426567078,-0.9451968669891357
1761508126610857200,3.217857177734375,0.449948251247406,0.8442085981369019,-0.6933600902557373
1761508126620829400,3.227829345703125,0.7380673289299011,0.9406290650367737,-0.5059888958930969
1761508126630800100,3.237800048828125,0.7117840647697449,0.7495033144950867,-0.4620203673839569
1761508126640772400,3.2477724609375,0.4444845914840698,0.30112460255622864,-0.5827749371528625
1761508126650743300,3.257743408203125,0.0769294872879982,-0.1779991239309311,-0.798750638961792
1761508126660714200,3.26771435546875,-0.2080940306186676,-0.3959425389766693,-1.0222426652908325
1761508126670686200,3.277686279296875,-0.27232468128204346,-0.3320716917514801,-1.1825816631317139
1761508126680657200,3.2876572265625,-0.15885630249977112,0.0015102042816579342,-1.2006527185440063
1761508126690629000,3.297629150390625,0.10963799804449081,0.47366735339164734,-1.1049851179122925
1761508126700600000,3.30760009765625,0.36978623270988464,0.9248877167701721,-0.9350241422653198
1761508126710571300,3.3175712890625,0.50638347864151,1.2624186277389526,-0.7449783086776733
1761508126720543200,3.327543212890625,0.5251113176345825,1.4129050970077515,-0.5699968338012695
1761508126730514200,3.33751416015625,0.3921482264995575,1.4232820272445679,-0.36884480714797974
1761508126740486100,3.347486083984375,0.15213042497634888,1.342015266418457,-0.17300759255886078
1761508126750457300,3.357457275390625,-0.12269848585128784,1.208422064781189,-0.013089826330542564
1761508126760428300,3.36742822265625,-0.35235559940338135,1.072640299797058,0.09185865521430969
1761508126770400300,3.377400146484375,-0.5052562355995178,0.9758272767066956,0.1179717481136322
1761508126780371200,3.38737109375,-0.6020051836967468,0.9007279872894287,0.11752010881900787
1761508126790343200,3.39734326171875,-0.6183907985687256,0.8405908346176147,0.12804359197616577
1761508126800314000,3.407314208984375,-0.5559796094894409,0.7411279082298279,0.1424395889043808
1761508126810286300,3.417286376953125,-0.4683779180049896,0.5836288332939148,0.16086013615131378
1761508126820257300,3.42725732421875,-0.3928665816783905,0.39182841777801514,0.1717946082353592
1761508126830228200,3.437228271484375,-0.33858948945999146,0.17088139057159424,0.1604921519756317
1761508126840200200,3.4472001953125,-0.3105516731739044,-0.050850603729486465,0.12115874886512756
1761508126850171400,3.45717138671875,-0.3009166419506073,-0.2560170590877533,0.06510267406702042
1761508126860143000,3.46714306640625,-0.30481451749801636,-0.415698379278183,0.02950868383049965
1761508126870114300,3.4771142578125,-0.31475210189819336,-0.5039235353469849,0.0010022071655839682
1761508126880085200,3.487085205078125,-0.29986369609832764,-0.5274870991706848,-0.026641102507710457
1761508126890057200,3.49705712890625,-0.23361754417419434,-0.4704235792160034,-0.05579046532511711
1761508126900028200,3.507028076171875,-0.13627579808235168,-0.36460015177726746,-0.0634128525853157
1761508126910000400,3.51700048828125,-0.019208036363124847,-0.2500258982181549,-0.03964866325259209
1761508126919971300,3.526971435546875,0.08075321465730667,-0.15903732180595398,0.03333370387554169
1761508126929942300,3.5369423828125,0.1351405531167984,-0.11884302645921707,0.1435459554195404
1761508126939914200,3.546914306640625,0.1582060158252716,-0.0743626281619072,0.26639094948768616
1761508126949885400,3.556885498046875,0.19187796115875244,0.008967152796685696,0.3848917782306671
1761508126959857200,3.566857177734375,0.21055825054645538,0.11633565276861191,0.47869011759757996
1761508126969828400,3.576828369140625,0.20571210980415344,0.22779320180416107,0.5780459642410278
1761508126979798800,3.586798828125,0.15579228103160858,0.3203367292881012,0.676425576210022
1761508126989771000,3.59677099609375,0.04808872193098068,0.3636344075202942,0.7466723322868347
1761508126999741700,3.60674169921875,-0.10532061010599136,0.3591107726097107,0.7692185640335083
1761508127009714000,3.6167138671875,-0.30009517073631287,0.2724616229534149,0.7293360829353333
1761508127019684900,3.626684814453125,-0.4937088191509247,0.13227318227291107,0.6378517150878906
1761508127029655800,3.63665576171875,-0.6483457684516907,-0.08410333096981049,0.48481640219688416
1761508127039627800,3.646627685546875,-0.7694177627563477,-0.314982533454895,0.31798839569091797
1761508127049599000,3.656598876953125,-0.8065411448478699,-0.5261051654815674,0.1573774367570877
1761508127059570700,3.66657080078125,-0.7561879754066467,-0.6359562277793884,0.009493738412857056
1761508127069542000,3.6765419921875,-0.6583013534545898,-0.6687232255935669,-0.11671452969312668
1761508127079512800,3.686512939453125,-0.5769793391227722,-0.6851776242256165,-0.23747535049915314
1761508127089485000,3.696485107421875,-0.5285201668739319,-0.7207151055335999,-0.3670344054698944
1761508127099455700,3.706455810546875,-0.48105379939079285,-0.739203155040741,-0.5236906409263611
1761508127109428000,3.716427978515625,-0.4270898997783661,-0.7197300791740417,-0.6930719614028931
1761508127119399000,3.72639892578125,-0.35940709710121155,-0.6314868330955505,-0.8321453332901001
1761508127129369900,3.736369873046875,-0.2693754732608795,-0.5310451984405518,-0.9598153829574585
1761508127139341800,3.746341796875,-0.11856245249509811,-0.4592690169811249,-1.0704584121704102
1761508127149312800,3.756312744140625,0.08479199558496475,-0.4130226969718933,-1.1161882877349854
1761508127159284700,3.76628466796875,0.2860526740550995,-0.3295794725418091,-1.073768138885498
1761508127169255700,3.776255615234375,0.4322943091392517,-0.2174159288406372,-0.981271505355835
1761508127179227000,3.786226806640625,0.5243570804595947,-0.10081767290830612,-0.8765043020248413
1761508127189198800,3.79619873046875,0.6129535436630249,0.017429878935217857,-0.7887569069862366
1761508127199169800,3.806169677734375,0.6682543754577637,0.13647720217704773,-0.708389163017273
1761508127209141800,3.816141845703125,0.7071924805641174,0.29675236344337463,-0.5852792263031006
1761508127219113000,3.826113037109375,0.7051954865455627,0.49827662110328674,-0.3885261118412018
1761508127229084700,3.836084716796875,0.6555594801902771,0.695256233215332,-0.16175608336925507
1761508127239056000,3.846055908203125,0.569987952709198,0.8463732004165649,0.05568789690732956
1761508127249026800,3.85602685546875,0.46943068504333496,0.9182292819023132,0.2411070168018341
1761508127258998800,3.865998779296875,0.37698155641555786,0.9176991581916809,0.40226510167121887
1761508127268969700,3.8759697265625,0.301323801279068,0.8875879049301147,0.5419872999191284
1761508127278942000,3.88594189453125,0.2463940680027008,0.8409157395362854,0.6616249680519104
1761508127288913000,3.895912841796875,0.181971937417984,0.8285112380981445,0.7446255683898926
1761508127298883800,3.9058837890625,0.12106319516897202,0.7864834666252136,0.7771814465522766
1761508127308855800,3.915855712890625,0.08712732791900635,0.7090355753898621,0.7749201655387878
1761508127318827000,3.925826904296875,0.07786474376916885,0.5898470878601074,0.7561618685722351
1761508127328798700,3.935798828125,0.08312448859214783,0.4083781838417053,0.7017723917961121
1761508127338770000,3.94577001953125,0.09621980041265488,0.2223638892173767,0.6072080135345459
1761508127348740900,3.955740966796875,0.11152072995901108,0.07789433002471924,0.468303382396698
1761508127358712800,3.965712890625,0.13632559776306152,-0.025126852095127106,0.32368963956832886
1761508127368683800,3.975683837890625,0.15432004630565643,-0.08860116451978683,0.2363336831331253
1761508127378656000,3.985656005859375,0.152757927775383,-0.11870205402374268,0.2589985430240631
1761508127388626700,3.995626708984375,0.15008197724819183,-0.17155542969703674,0.3502062261104584
1761508127398597600,4.00559765625,0.16759052872657776,-0.2732020318508148,0.45618486404418945
1761508127408568800,4.01556884765625,0.19314143061637878,-0.36910805106163025,0.5718869566917419
1761508127418540800,4.025540771484375,0.22369182109832764,-0.4210728704929352,0.6792349219322205
1761508127428511700,4.03551171875,0.26477664709091187,-0.4128548800945282,0.7737424969673157
1761508127438484000,4.04548388671875,0.32337936758995056,-0.3587127923965454,0.8512660264968872
1761508127448455000,4.055454833984375,0.3833572268486023,-0.2715001106262207,0.9301533699035645
1761508127458425900,4.06542578125,0.4292610287666321,-0.1733529418706894,0.9951309561729431
1761508127468397800,4.075397705078125,0.4428705871105194,-0.09447997063398361,0.996857225894928
1761508127478368800,4.08536865234375,0.4186656177043915,-0.048248354345560074,0.9078881144523621
1761508127488340700,4.0953408203125,0.3418826758861542,-0.07867629826068878,0.6993434429168701
1761508127498311700,4.105311767578125,0.17129704356193542,-0.20801709592342377,0.36150655150413513
1761508127508283000,4.115282958984375,-0.11335757374763489,-0.41004422307014465,-0.09306467324495316
1761508127518254800,4.1252548828125,-0.40356987714767456,-0.6150314211845398,-0.6009624600410461
1761508127528225800,4.135225830078125,-0.58024662733078,-0.743310809135437,-1.0910072326660156
1761508127538197800,4.14519775390625,-0.6598153710365295,-0.7121294140815735,-1.4457018375396729
1761508127548169000,4.1551689453125,-0.5078838467597961,-0.44646334648132324,-1.510316252708435
1761508127558140000,4.165139892578125,-0.1255165934562683,0.0012975283898413181,-1.1827940940856934
1761508127568111900,4.17511181640625,0.3079911768436432,0.44931310415267944,-0.5170091986656189
1761508127578082800,4.185082763671875,0.582588791847229,0.6753818988800049,0.21478421986103058
1761508127588054800,4.1950546875,0.6607224941253662,0.49636203050613403,0.695473313331604
1761508127598025700,4.205025634765625,0.6084900498390198,-0.002055069897323847,0.8535404801368713
1761508127607997000,4.214996826171875,0.5009241700172424,-0.6061702370643616,0.7827805280685425
1761508127617969000,4.224968994140625,0.3808920383453369,-1.0452759265899658,0.5395137071609497
1761508127627939800,4.23493994140625,0.2814671993255615,-1.246031641960144,0.15741798281669617
1761508127637911800,4.244911865234375,0.24399839341640472,-1.2199361324310303,-0.19448107481002808
1761508127647883000,4.254883056640625,0.2569544017314911,-0.9593231081962585,-0.4407944679260254
1761508127657854700,4.264854736328125,0.3572743237018585,-0.5709520578384399,-0.5902189016342163
1761508127667826000,4.274825927734375,0.515597939491272,-0.1267697811126709,-0.5900708436965942
1761508127677796900,4.284796875,0.6646634340286255,0.302133709192276,-0.48441991209983826
1761508127687768800,4.294768798828125,0.7536225914955139,0.6364414095878601,-0.3064195513725281
1761508127697739800,4.30473974609375,0.7392904758453369,0.8189849853515625,-0.08445783704519272
1761508127707712000,4.3147119140625,0.6111958622932434,0.8378167152404785,0.13286462426185608
1761508127717683000,4.324682861328125,0.3819482922554016,0.727510929107666,0.33729836344718933
1761508127727653600,4.334653564453125,0.10985153913497925,0.5566414594650269,0.5125151872634888
1761508127737625900,4.3446259765625,-0.14298495650291443,0.38583436608314514,0.6160092353820801
1761508127747596800,4.3545966796875,-0.3257555663585663,0.25086987018585205,0.6335863471031189
1761508127757568800,4.36456884765625,-0.42794665694236755,0.1620829999446869,0.6044591665267944
1761508127767539700,4.374539794921875,-0.4683057963848114,0.1060682013630867,0.5554055571556091
1761508127777511000,4.384510986328125,-0.42650848627090454,0.05758761614561081,0.4903756082057953
1761508127787482600,4.394482666015625,-0.3366478383541107,-0.03813038766384125,0.41764867305755615
1761508127797453800,4.404453857421875,-0.26643040776252747,-0.20330573618412018,0.3676306903362274
1761508127807426800,4.4144267578125,-0.2544565796852112,-0.450351744890213,0.3823702335357666
1761508127817397800,4.424397705078125,-0.2772127091884613,-0.7345892190933228,0.4676310122013092
1761508127827370000,4.434369873046875,-0.2940870523452759,-0.9170945882797241,0.5615271329879761
1761508127837341000,4.4443408203125,-0.2862585783004761,-0.9677944779396057,0.6043667197227478
1761508127847313000,4.45431298828125,-0.2284671664237976,-0.9052240252494812,0.5895174741744995
1761508127857283800,4.464283935546875,-0.1421232372522354,-0.7293928265571594,0.5089313983917236
1761508127867254800,4.4742548828125,-0.044015321880578995,-0.4731472134590149,0.404091477394104
1761508127877226800,4.484226806640625,0.04828760400414467,-0.18285155296325684,0.30730921030044556
1761508127887197700,4.49419775390625,0.10584969818592072,0.08947291225194931,0.2455662041902542
1761508127897170000,4.504169921875,0.1286696046590805,0.2684690058231354,0.25060051679611206
1761508127907140600,4.514140625,0.12559738755226135,0.3360547125339508,0.3084941804409027
1761508127917111800,4.52411181640625,0.12412266433238983,0.3112768232822418,0.3754153549671173
1761508127927083800,4.534083740234375,0.10725101083517075,0.2544716000556946,0.425015389919281
1761508127937055000,4.544054931640625,0.09362234175205231,0.18055284023284912,0.4382587671279907
1761508127947026700,4.554026611328125,0.09332539886236191,0.13255441188812256,0.4033540189266205
1761508127956998000,4.563997802734375,0.10236459225416183,0.12629909813404083,0.31976044178009033
1761508127966968800,4.57396875,0.11551448702812195,0.14180774986743927,0.19156226515769958
1761508127976941300,4.58394140625,0.11938482522964478,0.16302134096622467,0.07439112663269043
1761508127986912300,4.593912353515625,0.10989811271429062,0.17919792234897614,-0.02114737778902054
1761508127996884200,4.60388427734375,0.05834418535232544,0.1726723611354828,-0.05508232116699219
1761508128006855200,4.613855224609375,-0.024844978004693985,0.12301426380872726,-0.05629352852702141
1761508128016826400,4.623826416015625,-0.1319553256034851,0.024948764592409134,-0.053689345717430115
1761508128026798300,4.63379833984375,-0.2331533133983612,-0.08844996988773346,-0.0791691392660141
1761508128036769300,4.643769287109375,-0.3233400285243988,-0.22980235517024994,-0.10994325578212738
1761508128046741200,4.6537412109375,-0.41915443539619446,-0.3514382243156433,-0.09468413889408112
1761508128056712400,4.66371240234375,-0.4633758068084717,-0.43402230739593506,-0.08756270259618759
1761508128066683400,4.673683349609375,-0.46667757630348206,-0.5091282725334167,-0.10839101672172546
1761508128076655400,4.6836552734375,-0.4329441487789154,-0.6552586555480957,-0.16499340534210205
1761508128086626300,4.693626220703125,-0.3941088616847992,-0.8860867619514465,-0.2511613368988037
1761508128096598300,4.703598388671875,-0.3531745374202728,-1.1182196140289307,-0.364297479391098
1761508128106569200,4.7135693359375,-0.32212555408477783,-1.3007054328918457,-0.5314611196517944
1761508128116541400,4.72354150390625,-0.28985995054244995,-1.4193181991577148,-0.7102606296539307
1761508128126512400,4.733512451171875,-0.24328365921974182,-1.4545345306396484,-0.8385536074638367
1761508128136483300,4.7434833984375,-0.16219674050807953,-1.3809365034103394,-0.8949519991874695
1761508128146455300,4.753455322265625,-0.010506819933652878,-1.224261999130249,-0.8880032896995544
1761508128156426500,4.763426513671875,0.19278205931186676,-1.0278476476669312,-0.8337056040763855
1761508128166398200,4.773398193359375,0.4014279544353485,-0.8413689136505127,-0.7794455885887146
1761508128176369400,4.783369384765625,0.5300389528274536,-0.6869195699691772,-0.7459169030189514
1761508128186340400,4.79334033203125,0.5757020711898804,-0.506483256816864,-0.6979871988296509
1761508128196312300,4.803312255859375,0.5624134540557861,-0.31276342272758484,-0.6745311617851257
1761508128206283300,4.813283203125,0.4927608370780945,-0.07225574553012848,-0.6283612847328186
1761508128216255500,4.82325537109375,0.39460882544517517,0.20127281546592712,-0.5416193008422852
1761508128226226400,4.833226318359375,0.32530221343040466,0.438059538602829,-0.40510618686676025
1761508128236197000,4.843197021484375,0.30694594979286194,0.6280342936515808,-0.21144647896289825
1761508128246169300,4.85316943359375,0.2985069155693054,0.8107088208198547,0.03184473514556885
1761508128256140300,4.863140380859375,0.27776244282722473,0.970535933971405,0.319807231426239
1761508128266112300,4.8731123046875,0.23456038534641266,1.0881069898605347,0.6308549046516418
1761508128276083200,4.883083251953125,0.1769445240497589,1.1255638599395752,0.9544177651405334
1761508128286054400,4.893054443359375,0.0975804552435875,1.065745234489441,1.2669860124588013
1761508128296026000,4.903026123046875,-0.02364674210548401,0.9614148736000061,1.5077139139175415
1761508128305997300,4.912997314453125,-0.14910666644573212,0.9031183123588562,1.6198837757110596
1761508128315969300,4.92296923828125,-0.2720680832862854,0.8488425016403198,1.5643752813339233
1761508128325940500,4.9329404296875,-0.38802745938301086,0.7674105167388916,1.3981966972351074
1761508128335911200,4.9429111328125,-0.48909005522727966,0.6571301221847534,1.1725088357925415
1761508128345883400,4.95288330078125,-0.573847770690918,0.5065320730209351,0.8666018843650818
1761508128355854300,4.962854248046875,-0.621508002281189,0.34456866979599,0.5305433869361877
1761508128365826300,4.972826416015625,-0.6153044700622559,0.20862655341625214,0.2045072466135025
1761508128375797200,4.98279736328125,-0.5744239687919617,0.12348606437444687,-0.07505040615797043
1761508128385768400,4.9927685546875,-0.48695218563079834,0.05982879176735878,-0.2572327256202698
1761508128395740200,5.002740234375,-0.39412418007850647,0.0017733542481437325,-0.30829787254333496
1761508128405711400,5.01271142578125,-0.2998320460319519,-0.024506453424692154,-0.2220335751771927
1761508128415683300,5.022683349609375,-0.20191477239131927,-0.03497898206114769,-0.024624858051538467
1761508128425654500,5.032654541015625,-0.10767509788274765,-0.06176852062344551,0.21402154862880707
1761508128435626200,5.042626220703125,-0.013083849102258682,-0.09249382466077805,0.47135451436042786
1761508128445597400,5.052597412109375,0.0772407203912735,-0.11001609265804291,0.7055936455726624
1761508128455568400,5.062568359375,0.15831290185451508,-0.09690152853727341,0.8674905300140381
1761508128465540400,5.072540283203125,0.24170179665088654,-0.0821678563952446,0.9326056241989136
1761508128475511300,5.08251123046875,0.3035900890827179,-0.0993552953004837,0.9384137392044067
1761508128485483500,5.0924833984375,0.3357373774051666,-0.17179220914840698,0.8962430953979492
1761508128495454200,5.1024541015625,0.3378538489341736,-0.324588805437088,0.7907171249389648
1761508128505425400,5.11242529296875,0.2549035847187042,-0.5281754732131958,0.6317346692085266
1761508128515397400,5.1223974609375,0.11655285209417343,-0.741574764251709,0.4245493710041046
1761508128525368600,5.13236865234375,-0.008636228740215302,-0.922695517539978,0.16845980286598206
1761508128535340300,5.14234033203125,-0.057211972773075104,-0.9389036297798157,-0.07239846140146255
1761508128545311500,5.1523115234375,-0.06819458305835724,-0.8459851145744324,-0.27562054991722107
1761508128555282400,5.162282470703125,-0.1417773813009262,-0.7109643220901489,-0.4425583481788635
1761508128565254400,5.17225439453125,-0.28458622097969055,-0.5587755441665649,-0.5221741199493408
1761508128575225300,5.182225341796875,-0.4041934311389923,-0.4051688611507416,-0.5257863402366638
1761508128585197600,5.192197509765625,-0.36561834812164307,-0.15014109015464783,-0.4381483495235443
1761508128595168300,5.202168212890625,-0.0934969112277031,0.27445971965789795,-0.2660463750362396
1761508128605139200,5.21213916015625,0.2564333975315094,0.6862829327583313,-0.050277337431907654
1761508128615111400,5.222111328125,0.48448553681373596,0.988784670829773,0.20299690961837769
1761508128625082400,5.232082275390625,0.5787694454193115,1.0473600625991821,0.3894490897655487
1761508128635054300,5.242054443359375,0.5460634231567383,0.8992636203765869,0.49297016859054565
1761508128645025300,5.252025390625,0.43778565526008606,0.6194247603416443,0.5187644958496094
1761508128654996500,5.26199658203125,0.3055884838104248,0.3344845175743103,0.46508538722991943
1761508128664968200,5.27196826171875,0.19482652842998505,0.1569850891828537,0.3875269293785095
1761508128674939400,5.281939453125,0.1570187509059906,0.10343817621469498,0.3132297992706299
1761508128684911400,5.291911376953125,0.19960322976112366,0.10660067945718765,0.2472798228263855
1761508128694882300,5.30188232421875,0.27664387226104736,0.12550535798072815,0.1934959888458252
1761508128704853200,5.311853271484375,0.334090918302536,0.1287946254014969,0.18617548048496246
1761508128714825500,5.321825439453125,0.33472493290901184,0.11472766101360321,0.2028786838054657
1761508128724796400,5.33179638671875,0.31156182289123535,0.12150167673826218,0.2250087559223175
1761508128734768400,5.341768310546875,0.2847232222557068,0.14282943308353424,0.2220032960176468
1761508128744739300,5.3517392578125,0.2538031339645386,0.19756564497947693,0.20662140846252441
1761508128754710500,5.36171044921875,0.21731358766555786,0.22699443995952606,0.16507567465305328
1761508128764682200,5.37168212890625,0.1804085671901703,0.20878693461418152,0.09388192743062973
1761508128774653400,5.3816533203125,0.14689843356609344,0.13937368988990784,0.02085576392710209
1761508128784625400,5.39162548828125,0.1089814156293869,0.038760002702474594,-0.04928204417228699
1761508128794596400,5.401596435546875,0.07080382108688354,-0.0861111730337143,-0.10965205729007721
1761508128804568300,5.411568359375,0.03853216394782066,-0.19956371188163757,-0.15781505405902863
1761508128814539500,5.42153955078125,0.04369935393333435,-0.27086231112480164,-0.1933252364397049
1761508128824510200,5.43151025390625,0.08060730993747711,-0.28834274411201477,-0.21609100699424744
1761508128834482400,5.441482421875,0.1348075419664383,-0.2754068672657013,-0.20433634519577026
1761508128844453400,5.451453369140625,0.1793678253889084,-0.22757302224636078,-0.14552070200443268
1761508128854425300,5.46142529296875,0.21370457112789154,-0.15276272594928741,-0.04473822936415672
1761508128864396300,5.471396240234375,0.2425873577594757,-0.07727675884962082,0.07711870223283768
1761508128874367200,5.4813671875,0.26725518703460693,-0.03265940397977829,0.1924344003200531
1761508128884339500,5.49133935546875,0.28551673889160156,-0.022405967116355896,0.2683486044406891
1761508128894310100,5.50131005859375,0.28677311539649963,-0.041648391634225845,0.3262630105018616
1761508128904282400,5.511282470703125,0.27906620502471924,-0.10991372913122177,0.35629841685295105
1761508128914253300,5.52125341796875,0.25002846121788025,-0.20275700092315674,0.3602561056613922
1761508128924224300,5.531224365234375,0.21556690335273743,-0.287282794713974,0.3371308147907257
1761508128934196200,5.5411962890625,0.15784934163093567,-0.3610689043998718,0.2853254973888397
1761508128944167400,5.55116748046875,0.08329042047262192,-0.4071120321750641,0.21518877148628235
1761508128954139100,5.56113916015625,0.012295091524720192,-0.4115584194660187,0.13277217745780945
1761508128964110300,5.5711103515625,-0.0428435280919075,-0.3749311864376068,0.04990898817777634
1761508128974081800,5.581081787109375,-0.06991890072822571,-0.3120712339878082,0.010249536484479904
1761508128984053500,5.591053466796875,-0.07964423298835754,-0.19996623694896698,0.03716930374503136
1761508128994024700,5.601024658203125,-0.06494413316249847,-0.07906489819288254,0.10893838107585907
1761508129003996700,5.61099658203125,-0.04354296997189522,0.03964231535792351,0.22553317248821259
1761508129013968000,5.6209677734375,-0.03257603943347931,0.13010598719120026,0.3530208468437195
1761508129023938600,5.6309384765625,-0.04949004203081131,0.1505068689584732,0.47696784138679504
1761508129033910800,5.640910888671875,-0.08652134239673615,0.1331769824028015,0.6057928204536438
1761508129043881700,5.6508818359375,-0.08965855091810226,0.0767374113202095,0.717329204082489
1761508129053853700,5.660853759765625,-0.06973282247781754,-0.015731126070022583,0.7696473598480225
1761508129063824600,5.67082470703125,-0.07165908813476562,-0.13310888409614563,0.7611912488937378
1761508129073795800,5.6807958984375,-0.09975303709506989,-0.28977999091148376,0.6471818685531616
1761508129083767600,5.690767578125,-0.10670708864927292,-0.4192351996898651,0.47346600890159607
1761508129093738800,5.70073876953125,-0.09820621460676193,-0.49342983961105347,0.24120613932609558
1761508129103710700,5.710710693359375,-0.0902247205376625,-0.511994481086731,-0.027928393334150314
1761508129113682000,5.720681884765625,-0.11401423811912537,-0.5011137127876282,-0.2965073585510254
1761508129123653600,5.730653564453125,-0.17038455605506897,-0.5211854577064514,-0.5595645904541016
1761508129133624800,5.740624755859375,-0.2529980540275574,-0.5725684762001038,-0.8263180255889893
1761508129143595800,5.750595703125,-0.36938777565956116,-0.6581693887710571,-1.1427687406539917
1761508129153567700,5.760567626953125,-0.47431114315986633,-0.7445260286331177,-1.506919026374817
1761508129163538700,5.77053857421875,-0.5101075172424316,-0.7568759322166443,-1.8475831747055054
1761508129173511000,5.780510986328125,-0.40472692251205444,-0.6145254373550415,-2.072740077972412
1761508129183481600,5.790481689453125,-0.08514226227998734,-0.31221163272857666,-2.014413595199585
1761508129193452500,5.80045263671875,0.302237331867218,-0.012717586010694504,-1.6491596698760986
1761508129203424800,5.8104248046875,0.5702964663505554,0.16658025979995728,-1.1088005304336548
1761508129213395700,5.820395751953125,0.6271593570709229,0.20420953631401062,-0.5692530870437622
1761508129223367700,5.83036767578125,0.4365856945514679,0.23197297751903534,-0.10617678612470627
1761508129233338600,5.840338623046875,0.1671523153781891,0.23753997683525085,0.17638537287712097
1761508129243309800,5.850309814453125,-0.008850940503180027,0.3418746292591095,0.28413018584251404
1761508129253281500,5.860281494140625,-0.059507064521312714,0.4280732572078705,0.3015183210372925
1761508129263252700,5.870252685546875,-0.10815449804067612,0.5174795985221863,0.32459408044815063
1761508129273224700,5.880224609375,-0.16805106401443481,0.6248488426208496,0.351685106754303
1761508129283195600,5.890195556640625,-0.22015954554080963,0.7933214902877808,0.4150978922843933
1761508129293166600,5.90016650390625,-0.2583431899547577,1.0183171033859253,0.5328652262687683
1761508129303138800,5.910138916015625,-0.30078279972076416,1.2034382820129395,0.6802964806556702
1761508129313109800,5.92010986328125,-0.35500937700271606,1.2554302215576172,0.8236954808235168
1761508129323081700,5.930081787109375,-0.40260645747184753,1.147905945777893,0.9083384275436401
1761508129333052700,5.940052734375,-0.44467049837112427,0.9524186849594116,0.9251477718353271
1761508129343023900,5.95002392578125,-0.47867825627326965,0.7456899881362915,0.8666514754295349
1761508129352995600,5.95999560546875,-0.5094538927078247,0.5789114832878113,0.7360880970954895
1761508129362966800,5.969966796875,-0.5275362133979797,0.4630189538002014,0.5451878905296326
1761508129372938800,5.979938720703125,-0.5124474167823792,0.3829931318759918,0.3252620995044708
1761508129382909700,5.98990966796875,-0.4622207283973694,0.318948358297348,0.11749611049890518
1761508129392880600,5.999880615234375,-0.38739731907844543,0.25986090302467346,-0.03928228095173836
1761508129402852900,6.009852783203125,-0.30959174036979675,0.1897004246711731,-0.09270796179771423
1761508129412823600,6.019823486328125,-0.22871145606040955,0.10714688152074814,0.008863745257258415
1761508129422795800,6.029795654296875,-0.17208652198314667,0.01116921566426754,0.2513831853866577
1761508129432766700,6.0397666015625,-0.1338822990655899,-0.09548548609018326,0.5425674319267273
1761508129442738000,6.049738037109375,-0.11059881001710892,-0.18038040399551392,0.8289637565612793
1761508129452709600,6.059709716796875,-0.0733567476272583,-0.2216155230998993,1.0635401010513306
1761508129462680800,6.069680908203125,0.01508550439029932,-0.1885760873556137,1.2213866710662842
1761508129472652800,6.07965283203125,0.15663711726665497,-0.1199863851070404,1.3056453466415405
1761508129482623700,6.089623779296875,0.287175714969635,-0.08176763355731964,1.2975785732269287
1761508129492594700,6.0995947265625,0.3414970338344574,-0.2139556109905243,1.169533371925354
1761508129502567000,6.10956689453125,0.30555981397628784,-0.4172336459159851,0.9226070046424866
1761508129512537600,6.11953759765625,0.2339460253715515,-0.6292637586593628,0.5750536322593689
1761508129522509800,6.129509765625,0.20856422185897827,-0.8092678785324097,0.17978672683238983
1761508129532480800,6.139480712890625,0.18666234612464905,-0.900661051273346,-0.19611188769340515
1761508129542451700,6.14945166015625,0.0782698318362236,-0.8662122488021851,-0.5394951105117798
1761508129552423700,6.159423583984375,-0.10573320835828781,-0.6978684663772583,-0.8442429900169373
1761508129562394600,6.16939453125,-0.2825718820095062,-0.3621343970298767,-1.0326848030090332
1761508129572366600,6.17936669921875,-0.3560526967048645,0.04951530694961548,-1.1232643127441406
1761508129582337500,6.189337646484375,-0.29334697127342224,0.435388445854187,-1.1157715320587158
1761508129592308700,6.199308837890625,-0.08971382677555084,0.7439655661582947,-0.9804952144622803
1761508129602280700,6.20928076171875,0.16750118136405945,0.8540542721748352,-0.7558495998382568
1761508129612251600,6.219251708984375,0.35861870646476746,0.7248960137367249,-0.47748851776123047
1761508129622223600,6.2292236328125,0.450822651386261,0.39461079239845276,-0.1776171177625656
1761508129632194800,6.23919482421875,0.40591418743133545,-0.07039813697338104,0.09390822798013687
1761508129642166500,6.24916650390625,0.28762590885162354,-0.4838176965713501,0.312926322221756
1761508129652137700,6.2591376953125,0.19198574125766754,-0.6944058537483215,0.43070319294929504
1761508129662108700,6.269108642578125,0.15670204162597656,-0.644824206829071,0.4544532895088196
1761508129672080600,6.27908056640625,0.195316344499588,-0.3822598457336426,0.4265177249908447
1761508129682051600,6.289051513671875,0.26611649990081787,-0.00837517250329256,0.3897511959075928
1761508129692023800,6.29902392578125,0.33561238646507263,0.34095174074172974,0.3830096125602722
1761508129701994800,6.308994873046875,0.3954799771308899,0.5938476920127869,0.4505489766597748
1761508129711965700,6.318965576171875,0.4032589793205261,0.7295921444892883,0.5722306370735168
1761508129721937700,6.328937744140625,0.3517545163631439,0.7323711514472961,0.7207090258598328
1761508129731908900,6.338908935546875,0.25975754857063293,0.6388474702835083,0.847354531288147
1761508129741880600,6.348880615234375,0.13210903108119965,0.4914899468421936,0.8987588882446289
1761508129751851800,6.358851806640625,0.002675313502550125,0.3495379090309143,0.8631201386451721
1761508129761822700,6.36882275390625,-0.09812001138925552,0.2676638066768646,0.7214636206626892
1761508129771794700,6.378794677734375,-0.16745451092720032,0.2487388402223587,0.49167928099632263
1761508129781765600,6.388765625,-0.21304357051849365,0.2665631175041199,0.20700174570083618
1761508129791737900,6.39873779296875,-0.2628162205219269,0.24551312625408173,-0.09061293303966522
1761508129801708800,6.408708740234375,-0.33417534828186035,0.15363939106464386,-0.37991049885749817
1761508129811679500,6.418679443359375,-0.4125206768512726,0.023360423743724823,-0.6059577465057373
1761508129821651700,6.428651611328125,-0.448726087808609,-0.11091962456703186,-0.790088415145874
1761508129831622700,6.43862255859375,-0.40567222237586975,-0.19422629475593567,-0.9406077861785889
1761508129841594600,6.4485947265625,-0.296415239572525,-0.17795944213867188,-1.0466804504394531
1761508129851565600,6.458565673828125,-0.1755465716123581,-0.11616390198469162,-1.0933573246002197
1761508129861536800,6.468536865234375,-0.08799968659877777,-0.046878837049007416,-1.0409042835235596
1761508129871508500,6.478508544921875,-0.03949985280632973,0.005795677192509174,-0.8768497109413147
1761508129881479700,6.488479736328125,-0.010409880429506302,0.017826775088906288,-0.6284201741218567
1761508129891451600,6.49845166015625,0.011301307007670403,0.004274299368262291,-0.33057060837745667
1761508129901422800,6.5084228515625,0.025346286594867706,0.004552865866571665,-0.03606628626585007
1761508129911393500,6.5183935546875,0.058832500129938126,0.026619184762239456,0.20692496001720428
1761508129921365800,6.52836572265625,0.10470624268054962,0.051912821829319,0.3620855212211609
1761508129931336700,6.538336669921875,0.13328853249549866,0.06718339025974274,0.4592607021331787
1761508129941308700,6.54830859375,0.1347769796848297,0.029986491426825523,0.5050851702690125
1761508129951279600,6.558279541015625,0.09917938709259033,-0.056671176105737686,0.5190828442573547
1761508129961250800,6.568250732421875,0.03359505534172058,-0.16047240793704987,0.49063605070114136
1761508129971222500,6.578222412109375,-0.03668191283941269,-0.23328283429145813,0.4291870892047882
1761508129981193700,6.58819384765625,-0.1019487977027893,-0.26208624243736267,0.33562225103378296
1761508129991166000,6.598166015625,-0.1735316812992096,-0.22988054156303406,0.2065134346485138
1761508130001137000,6.608136962890625,-0.24166466295719147,-0.1355638951063156,0.07254204899072647
1761508130011108900,6.61810888671875,-0.2854577600955963,-0.000327687943354249,-0.036637239158153534
1761508130021079800,6.628079833984375,-0.30018797516822815,0.14007443189620972,-0.10888294130563736
1761508130031051000,6.638051025390625,-0.314071923494339,0.23937863111495972,-0.15047143399715424
1761508130041022700,6.648022705078125,-0.3308173418045044,0.2568822503089905,-0.17348140478134155
1761508130050994000,6.657993896484375,-0.3294028043746948,0.20759174227714539,-0.20250944793224335
1761508130060966000,6.6679658203125,-0.2990446388721466,0.11381492018699646,-0.22465123236179352
1761508130070936800,6.677936767578125,-0.2536298632621765,-0.01910293661057949,-0.22548776865005493
1761508130080907800,6.68790771484375,-0.23306013643741608,-0.15946590900421143,-0.2216448336839676
1761508130090880000,6.6978798828125,-0.2583922743797302,-0.31081080436706543,-0.2685302793979645
1761508130100851000,6.707850830078125,-0.31709739565849304,-0.4512113332748413,-0.41516900062561035
1761508130110823000,6.717822998046875,-0.4014764726161957,-0.5911666750907898,-0.7050570845603943
1761508130120793900,6.7277939453125,-0.517387866973877,-0.7515659332275391,-1.1754900217056274
1761508130130764800,6.737764892578125,-0.6800830960273743,-0.8871563673019409,-1.7696826457977295
1761508130140736800,6.74773681640625,-0.8014907836914062,-0.8545238375663757,-2.3555045127868652
1761508130150707700,6.757707763671875,-0.8202146887779236,-0.6041082143783569,-2.7673532962799072
1761508130160680000,6.767679931640625,-0.7207483053207397,-0.23528224229812622,-2.9283599853515625
1761508130170650600,6.777650634765625,-0.5343571305274963,0.24122856557369232,-2.801093578338623
1761508130180621800,6.787621826171875,-0.28439149260520935,0.7367885112762451,-2.4027011394500732
1761508130190593800,6.79759375,-0.05850197747349739,1.1293866634368896,-1.8323365449905396
1761508130200564700,6.807564697265625,0.07509976625442505,1.2946217060089111,-1.2168048620224
1761508130210536700,6.81753662109375,0.11613468080759048,1.2130540609359741,-0.6601455211639404
1761508130220508000,6.8275078125,0.1032543033361435,0.9111157059669495,-0.21216832101345062
1761508130230478800,6.837478759765625,0.06677351146936417,0.5766062140464783,0.16225624084472656
1761508130240450800,6.847450927734375,0.025303300470113754,0.4262283742427826,0.4324006140232086
1761508130250421800,6.857421875,0.0366663821041584,0.5090680718421936,0.6013492345809937
1761508130260394000,6.86739404296875,0.10795174539089203,0.7578451633453369,0.6951665282249451
1761508130270364700,6.87736474609375,0.19251756370067596,1.076461911201477,0.8209625482559204
1761508130280336000,6.8873359375,0.2333241105079651,1.3217260837554932,0.9776136875152588
1761508130290307800,6.897307861328125,0.14849911630153656,1.397295594215393,1.1466891765594482
1761508130300278800,6.90727880859375,-0.10143189877271652,1.2823891639709473,1.211424708366394
1761508130310250800,6.917250732421875,-0.38297802209854126,1.040195107460022,1.1319128274917603
1761508130320222000,6.927221923828125,-0.5755021572113037,0.7926779985427856,0.8744794726371765
1761508130330193000,6.93719287109375,-0.687582790851593,0.5991930365562439,0.44750964641571045
1761508130340164900,6.947164794921875,-0.7473782300949097,0.51827073097229,-0.052372343838214874
1761508130350135800,6.9571357421875,-0.8017557859420776,0.506151020526886,-0.5253716111183167
1761508130360107800,6.967107666015625,-0.8402640223503113,0.5308026075363159,-0.844696044921875
1761508130370078700,6.97707861328125,-0.8322175741195679,0.5901814699172974,-0.9545809030532837
1761508130380050000,6.9870498046875,-0.7753846645355225,0.7085946798324585,-0.850992739200592
1761508130390022000,6.99702197265625,-0.6825610995292664,0.8420096039772034,-0.5714801549911499
1761508130399992800,7.006992919921875,-0.5715823769569397,0.908772349357605,-0.1761474609375
1761508130409964800,7.01696484375,-0.43707191944122314,0.8778064250946045,0.23387469351291656
1761508130419936000,7.02693603515625,-0.30445343255996704,0.7898648381233215,0.5837754607200623
1761508130429907700,7.03690771484375,-0.1965474784374237,0.6892316341400146,0.8175427913665771
1761508130439879000,7.04687890625,-0.13613340258598328,0.5916430354118347,0.9488696455955505
1761508130449849900,7.056849853515625,-0.08808158338069916,0.480854868888855,0.9993149638175964
1761508130459821800,7.06682177734375,-0.03843173384666443,0.3744407892227173,0.9875108003616333
1761508130469792800,7.076792724609375,0.01053351815789938,0.2714591324329376,0.9535340070724487
1761508130479765000,7.086764892578125,0.056093547493219376,0.18508055806159973,0.9256752133369446
1761508130489736000,7.09673583984375,0.08442370593547821,0.0692729502916336,0.9063764810562134
1761508130499706600,7.10670654296875,0.07414630055427551,-0.09738686680793762,0.8664778470993042
1761508130509678800,7.116678955078125,0.01965266838669777,-0.2943975031375885,0.7706860899925232
1761508130519649800,7.12664990234375,-0.05091763660311699,-0.4478943943977356,0.5882436037063599
1761508130529621800,7.136621826171875,-0.13624505698680878,-0.555672824382782,0.33174195885658264
1761508130539592700,7.1465927734375,-0.19697125256061554,-0.5685246586799622,0.0602923184633255
1761508130549564000,7.15656396484375,-0.21712695062160492,-0.5882062911987305,-0.24893039464950562
1761508130559535600,7.16653564453125,-0.1806909143924713,-0.6143848896026611,-0.5535421967506409
1761508130569506800,7.1765068359375,-0.07360554486513138,-0.5881430506706238,-0.813167929649353
1761508130579478800,7.186478759765625,0.06805731356143951,-0.46136385202407837,-0.962458610534668
1761508130589450000,7.196449951171875,0.14008308947086334,-0.2666482925415039,-1.0007483959197998
1761508130599420700,7.206420654296875,0.15783385932445526,-0.07646742463111877,-0.9434075355529785
1761508130609393000,7.216392822265625,0.17543691396713257,-0.011972752399742603,-0.8650277256965637
1761508130619363800,7.22636376953125,0.19502925872802734,-0.12636511027812958,-0.8090677857398987
1761508130629335800,7.236335693359375,0.2050800919532776,-0.3323580324649811,-0.7324656248092651
1761508130639306800,7.246306640625,0.19888505339622498,-0.4910619258880615,-0.6491355895996094
1761508130649278000,7.25627783203125,0.19244903326034546,-0.5054741501808167,-0.5688238739967346
1761508130659249700,7.266249755859375,0.2189890295267105,-0.36235877871513367,-0.4902144968509674
1761508130669220900,7.276220947265625,0.28297752141952515,-0.11551026999950409,-0.4048147201538086
1761508130679192800,7.28619287109375,0.37518495321273804,0.14573465287685394,-0.2727738618850708
1761508130689164000,7.2961640625,0.4645726680755615,0.3343268632888794,-0.08777951449155807
1761508130699134700,7.306134765625,0.5706472396850586,0.4093116223812103,0.1380416303873062
1761508130709107000,7.31610693359375,0.6424912810325623,0.37868666648864746,0.3751815855503082
1761508130719078000,7.326077880859375,0.6400899291038513,0.24357038736343384,0.5795049071311951
1761508130729049900,7.3360498046875,0.5623243451118469,0.08534272015094757,0.7018154263496399
1761508130739020800,7.346020751953125,0.4350614547729492,-0.05547484755516052,0.7252488732337952
1761508130748991700,7.35599169921875,0.30872842669487,-0.10569649934768677,0.6410514712333679
1761508130758963700,7.365963623046875,0.21381230652332306,-0.0489080473780632,0.4629967510700226
1761508130768934700,7.3759345703125,0.1647484004497528,0.07799775898456573,0.2280290722846985
1761508130778907000,7.385906982421875,0.13858896493911743,0.22647245228290558,0.015233187936246395
1761508130788877800,7.3958779296875,0.09899846464395523,0.3488382399082184,-0.11489125341176987
1761508130798848800,7.405848876953125,0.04924901947379112,0.40364664793014526,-0.1544109582901001
1761508130808820700,7.41582080078125,0.0027091209776699543,0.407340943813324,-0.1248275488615036
1761508130818792000,7.4257919921875,-0.03200917690992355,0.3880884051322937,-0.06195031479001045
1761508130828763600,7.435763671875,-0.04425907880067825,0.32905423641204834,0.008639853447675705
1761508130838734800,7.44573486328125,-0.043422043323516846,0.23135614395141602,0.04302046447992325
1761508130848705800,7.455705810546875,-0.03020465187728405,0.10142592340707779,0.05061034858226776
1761508130858677800,7.465677734375,0.0014534094370901585,-0.04827914759516716,0.034923799335956573
1761508130868648700,7.475648681640625,0.03669879212975502,-0.17835389077663422,0.000935556716285646
1761508130878621000,7.485620849609375,0.07768937200307846,-0.27636435627937317,-0.02771872468292713
1761508130888592000,7.495591796875,0.11130524426698685,-0.3077262043952942,-0.04227089509367943
1761508130898562800,7.505562744140625,0.13737545907497406,-0.27966126799583435,-0.02428070642054081
1761508130908534800,7.51553466796875,0.15267884731292725,-0.20111189782619476,0.04349641129374504
1761508130918506000,7.525506103515625,0.17465738952159882,-0.12680624425411224,0.13755473494529724
1761508130928477700,7.535477783203125,0.1880255788564682,-0.07299652695655823,0.2525632381439209
1761508130938449000,7.545448974609375,0.17373105883598328,-0.04769303649663925,0.37793660163879395
1761508130948420900,7.5554208984375,0.14895623922348022,-0.04270138591527939,0.5043553113937378
1761508130958391800,7.565391845703125,0.12420561164617538,-0.036197416484355927,0.5927421450614929
1761508130968362800,7.57536279296875,0.0944247916340828,-0.026222631335258484,0.6126044988632202
1761508130978334500,7.58533447265625,0.057945601642131805,-0.030973179265856743,0.5489434599876404
1761508130988305400,7.595305419921875,0.03609992936253548,-0.0742642804980278,0.4161081910133362
1761508130998277400,7.60527734375,0.04202865809202194,-0.14758962392807007,0.23311598598957062
1761508131008248300,7.615248291015625,0.042264748364686966,-0.2357368767261505,0.06987711787223816
1761508131018219300,7.62521923828125,0.016853133216500282,-0.3000681698322296,-0.026142887771129608
1761508131028191200,7.635191162109375,-0.000028701964765787125,-0.2881092131137848,-0.06153756380081177
1761508131038162200,7.645162109375,0.02078709751367569,-0.2068125158548355,-0.05728023499250412
1761508131048134400,7.655134521484375,0.057416196912527084,-0.13305871188640594,-0.020359884947538376
1761508131058105300,7.665105224609375,0.08975602686405182,-0.1288069784641266,0.00895113218575716
1761508131068076300,7.675076171875,0.12693184614181519,-0.2099222093820572,0.0181101243942976
1761508131078048300,7.68504833984375,0.15934064984321594,-0.3401486575603485,0.007372790481895208
1761508131088019500,7.69501953125,0.19530576467514038,-0.5069306492805481,-0.03115648217499256
1761508131097991200,7.7049912109375,0.21200937032699585,-0.6789152026176453,-0.1014450266957283
1761508131107962400,7.71496240234375,0.19720174372196198,-0.8116576075553894,-0.20514178276062012
1761508131117933300,7.724933349609375,0.14385676383972168,-0.8792728781700134,-0.36861035227775574
1761508131127905300,7.7349052734375,0.08207172900438309,-0.8865818381309509,-0.5857547521591187
1761508131137876200,7.744876220703125,0.006992157548666,-0.8300521969795227,-0.8064186573028564
1761508131147848400,7.754848388671875,-0.10901352763175964,-0.6844416856765747,-1.0100842714309692
1761508131157819400,7.7648193359375,-0.2470845729112625,-0.44583073258399963,-1.2138326168060303
1761508131167790300,7.774790283203125,-0.388196736574173,-0.1083100438117981,-1.4421608448028564
1761508131177762300,7.78476220703125,-0.4818150997161865,0.2983245551586151,-1.6547386646270752
1761508131187733500,7.7947333984375,-0.5012261271476746,0.6542234420776367,-1.7781611680984497
1761508131197705200,7.804705322265625,-0.46268245577812195,0.8948924541473389,-1.7202121019363403
1761508131207676400,7.814676513671875,-0.412743479013443,1.0147979259490967,-1.4414411783218384
1761508131217647400,7.8246474609375,-0.3697105348110199,1.0168133974075317,-1.051905632019043
1761508131227619300,7.834619384765625,-0.29708385467529297,0.9481846690177917,-0.6224129796028137
1761508131237590300,7.84459033203125,-0.1916050761938095,0.9526721239089966,-0.22185517847537994
1761508131247562500,7.8545625,-0.05456797033548355,1.013185977935791,0.06323445588350296
1761508131257533200,7.864533203125,0.08635586500167847,1.107329249382019,0.27136343717575073
1761508131267504400,7.87450439453125,0.18360599875450134,1.1783334016799927,0.4780307412147522
1761508131277476400,7.884476318359375,0.1868388056755066,1.0882540941238403,0.6279880404472351
1761508131287447600,7.894447509765625,0.11100301146507263,0.8085519671440125,0.6726775765419006
1761508131297419300,7.904419189453125,-0.026347924023866653,0.4405452311038971,0.6085630059242249
1761508131307390500,7.914390380859375,-0.20109625160694122,0.10948595404624939,0.4734700620174408
1761508131317361400,7.924361328125,-0.38758036494255066,-0.05303238704800606,0.2732570767402649
1761508131327333400,7.93433349609375,-0.5133892893791199,-0.04154929518699646,0.049068085849285126
1761508131337304300,7.94430419921875,-0.5774676203727722,0.13088133931159973,-0.1372533142566681
1761508131347276500,7.954276611328125,-0.5578203797340393,0.3829738199710846,-0.20215779542922974
1761508131357247200,7.964247314453125,-0.4449678063392639,0.6490310430526733,-0.08896145969629288
1761508131367219500,7.974219482421875,-0.26137638092041016,0.8659005165100098,0.2171613574028015
1761508131377190400,7.9841904296875,-0.03037966787815094,1.0048954486846924,0.6723530888557434
1761508131387161300,7.994161376953125,0.19291450083255768,0.9868860840797424,1.1654133796691895
1761508131397131500,8.004131591796876,0.36446309089660645,0.7779086828231812,1.5778067111968994
1761508131407103200,8.014103271484375,0.4814583957195282,0.4407670497894287,1.8638726472854614
1761508131417074400,8.024074462890624,0.552056610584259,0.07820907235145569,1.9957923889160156
1761508131427046400,8.03404638671875,0.5956294536590576,-0.24664948880672455,1.9808080196380615
1761508131437017300,8.044017333984375,0.6220842003822327,-0.45900383591651917,1.8562325239181519
1761508131446988300,8.05398828125,0.6269217729568481,-0.5360326766967773,1.6428622007369995
1761508131456960500,8.06396044921875,0.6299846768379211,-0.5035842061042786,1.3995299339294434
1761508131466931500,8.073931396484374,0.6461817622184753,-0.3932316303253174,1.2557228803634644
1761508131476903400,8.0839033203125,0.6591505408287048,-0.28067392110824585,1.2663224935531616
1761508131486874400,8.093874267578125,0.6724140644073486,-0.279837042093277,1.3687973022460938
1761508131496845300,8.10384521484375,0.646747350692749,-0.381711483001709,1.477770447731018
1761508131506817300,8.1138173828125,0.5517818331718445,-0.5711821913719177,1.5031577348709106
1761508131516788200,8.123788330078124,0.3971152901649475,-0.7616450786590576,1.4142416715621948
1761508131526760400,8.133760498046875,0.23846469819545746,-0.8680445551872253,1.1725813150405884
1761508131536731100,8.143731201171875,0.06304867565631866,-0.8943307995796204,0.7501395344734192
1761508131546703400,8.153703369140626,-0.13927002251148224,-0.8205013871192932,0.1954084038734436
1761508131556674300,8.16367431640625,-0.2716323137283325,-0.6126579642295837,-0.35114362835884094
1761508131566645500,8.1736455078125,-0.3024373948574066,-0.2539288401603699,-0.7037095427513123
1761508131576617200,8.1836171875,-0.23455339670181274,0.19332055747509003,-0.7894457578659058
1761508131586588400,8.19358837890625,-0.09540826082229614,0.6313051581382751,-0.6193320155143738
1761508131596560100,8.20356005859375,0.07781784981489182,0.8615807294845581,-0.29126811027526855
1761508131606531300,8.21353125,0.23571963608264923,0.7372034788131714,0.03810353949666023
1761508131616502300,8.223502197265624,0.3111400902271271,0.2992328405380249,0.2785630226135254
1761508131626474500,8.233474609375,0.2822656035423279,-0.3010779023170471,0.3954014480113983
1761508131636445200,8.243445068359375,0.17456257343292236,-0.7760745286941528,0.36929234862327576
1761508131646417400,8.25341748046875,0.07969329506158829,-0.9572771787643433,0.214188814163208
1761508131656388400,8.263388427734375,0.06073105335235596,-0.8183797597885132,0.04659396409988403
1761508131666359600,8.273359619140624,0.11863481253385544,-0.386440634727478,-0.06416568905115128
1761508131676331300,8.283331298828125,0.22267040610313416,0.1779947727918625,-0.10944395512342453
1761508131686302500,8.293302490234375,0.3155665397644043,0.6486720442771912,-0.05196989327669144
1761508131696274200,8.303274169921876,0.3608322739601135,0.8650823831558228,0.11442840844392776
1761508131706245400,8.313245361328125,0.38006314635276794,0.8646647930145264,0.3313659429550171
1761508131716216300,8.32321630859375,0.39715397357940674,0.7090603113174438,0.5166186094284058
1761508131726188500,8.3331884765625,0.3580649197101593,0.5137038826942444,0.6314537525177002
1761508131736159200,8.3431591796875,0.269287645816803,0.34800681471824646,0.6434917449951172
1761508131746131500,8.35313134765625,0.1714240163564682,0.25785958766937256,0.5255453586578369
1761508131756102400,8.363102294921875,0.09875006973743439,0.2540816068649292,0.3163759112358093
1761508131766073300,8.3730732421875,0.07824379205703735,0.29581913352012634,0.09177663177251816
1761508131776045300,8.38304541015625,0.08994918316602707,0.3316167891025543,-0.08178983628749847
1761508131786016300,8.393016357421875,0.08758339285850525,0.3331983983516693,-0.18682266771793365
1761508131795988200,8.40298828125,0.08407174795866013,0.28407105803489685,-0.23180559277534485
1761508131805960400,8.41296044921875,0.08508627116680145,0.18700772523880005,-0.248984232544899
1761508131815932200,8.42293212890625,0.08168408274650574,0.06525625288486481,-0.2532604932785034
1761508131825903400,8.4329033203125,0.0961562767624855,-0.08336873352527618,-0.25230884552001953
1761508131835874300,8.442874267578125,0.10768456757068634,-0.2246560901403427,-0.23705266416072845
1761508131845846500,8.452846435546874,0.11407376080751419,-0.3362444043159485,-0.21565309166908264
1761508131855817200,8.462817138671875,0.09617385268211365,-0.41069838404655457,-0.17942212522029877
1761508131865789400,8.47278955078125,0.07610917091369629,-0.44682198762893677,-0.14101511240005493
1761508131875760400,8.482760498046876,0.0685758888721466,-0.3968277871608734,-0.10811921954154968
1761508131885732400,8.492732421875,0.061409011483192444,-0.2800922691822052,-0.10261434316635132
1761508131895703300,8.502703369140624,0.04954037070274353,-0.16706158220767975,-0.12041837722063065
1761508131905674200,8.51267431640625,0.05327976122498512,-0.09208603948354721,-0.135703906416893
1761508131915646200,8.522646240234375,0.06442136317491531,-0.05675707384943962,-0.14017774164676666
1761508131925617200,8.5326171875,0.049038004130125046,-0.01804470270872116,-0.09706302732229233
1761508131935589400,8.54258935546875,0.00862187147140503,0.021179931238293648,-0.03232983872294426
1761508131945560300,8.552560302734374,-0.03496412932872772,0.06989023089408875,0.016223356127738953
1761508131955531300,8.56253125,-0.06009425222873688,0.10482744127511978,0.02987205609679222
1761508131965503200,8.572503173828125,-0.06800438463687897,0.13538289070129395,0.026612496003508568
1761508131975474700,8.582474609375,-0.05898665636777878,0.15943284332752228,0.035549528896808624
1761508131985446400,8.5924462890625,-0.04573957622051239,0.1925920844078064,0.07494068890810013
1761508131995417600,8.60241748046875,-0.02111971750855446,0.21946898102760315,0.11609212309122086
1761508132005388500,8.612388427734375,0.013145063072443008,0.25418171286582947,0.15135550498962402
1761508132015360500,8.622360595703125,0.03192327916622162,0.30957546830177307,0.18448123335838318
1761508132025331500,8.63233154296875,0.03840489313006401,0.3550814688205719,0.1996571570634842
1761508132035303700,8.6423037109375,0.029124576598405838,0.3836582601070404,0.21097825467586517
1761508132045274600,8.652274658203124,0.008850229904055595,0.39198818802833557,0.20520715415477753
1761508132055245300,8.662245361328125,-0.027621496468782425,0.3728499412536621,0.18331357836723328
1761508132065217500,8.672217529296875,-0.045985277742147446,0.3370145261287689,0.1375412493944168
1761508132075188500,8.6821884765625,-0.039291154593229294,0.29752838611602783,0.08512891083955765
1761508132085160400,8.692160400390625,-0.019782276824116707,0.25299951434135437,0.061756979674100876
1761508132095131400,8.70213134765625,-0.05013379082083702,0.011718186549842358,0.41343486309051514
1761508132105102600,8.7121025390625,-0.14406661689281464,-0.4439154863357544,0.25371769070625305
1761508132115074300,8.72207421875,-0.054753780364990234,-0.3513501286506653,0.1392505168914795
1761508132125045500,8.73204541015625,0.009436204098165035,-0.22107310593128204,-0.11550222337245941
1761508132135017500,8.742017578125,0.058695897459983826,0.09838317334651947,-0.2905068099498749
1761508132144988400,8.751988525390624,0.0318593792617321,0.3523853123188019,-0.33169519901275635
1761508132154959400,8.76195947265625,-0.09329827129840851,0.3746538758277893,-0.30350562930107117
