time,seconds_elapsed,z,y,x
1761469418040739800,0.05773974609375,0.09877192439734934,0.39248336030989883,0.33692966926172374
1761469418050694700,0.067694580078125,-0.1036976903617382,0.3758610190719366,0.1717048394653946
1761469418060649700,0.077649658203125,-0.153053549683094,0.36254181103259325,0.11952486263401806
1761469418070604800,0.087604736328125,-0.060624856832623475,0.3666831486210227,0.2157510480713099
1761469418080559600,0.0975595703125,-0.01876782883405685,0.3336740284666419,0.34674759118184445
1761469418090514700,0.1075146484375,0.04235620969235897,0.42412616054713725,0.23849165299385786
1761469418100469800,0.1174697265625,0.17814181371033191,0.5097513108626007,0.03223601689003408
1761469418110424800,0.1274248046875,0.2938835776090622,0.5337886045321821,-0.13675634874626993
1761469418120379600,0.137379638671875,0.2973538840681314,0.5358218639254569,-0.2904886744737625
1761469418130334700,0.147334716796875,0.12339081734716892,0.4381748519048094,-0.3483415823750198
1761469418140288800,0.157288818359375,-0.1440484054505825,0.2972983544886112,-0.24072204239442943
1761469418150243800,0.167243896484375,-0.2508773795753717,0.16068974364995955,-0.05733823637738823
1761469418160198700,0.17719873046875,-0.17638532543182373,0.05902560494244098,0.1419462455395609
1761469418170153700,0.18715380859375,0.046231005299091334,0.10390519563257694,0.18200689164064823
1761469418180108800,0.19710888671875,0.20077157866954803,0.29386721099615093,0.05328333496339619
1761469418190063600,0.207063720703125,0.12154080556631087,0.38224692071676253,-0.2193931309007108
1761469418200018700,0.217018798828125,-0.09550093990266323,0.37629561109691856,-0.3689091541074216
1761469418209973800,0.226973876953125,-0.2629039174556732,0.4150748390853405,-0.4852838821474462
1761469418219928800,0.2369287109375,-0.3660919047296047,0.44591421398520464,-0.6159102037061005
1761469418229883600,0.246883544921875,-0.3365022376298904,0.37328590788692234,-0.6248924785196781
1761469418239838700,0.256838623046875,-0.1759416733175516,0.11985387539267539,-0.49620939998328684
1761469418249793800,0.266793701171875,0.09685761520862579,-0.1500675196096301,-0.36132600550204513
1761469418259748600,0.27674853515625,0.35913843232989306,-0.28289427382200955,-0.2642708218947053
1761469418269703700,0.28670361328125,0.616673516228795,-0.46828737383484836,-0.19172829438373445
1761469418279658800,0.29665869140625,0.9589975918799638,-0.6535182690232991,-0.035040187590569254
1761469418289613800,0.30661376953125,1.1010761585623026,-0.7955243549913168,0.06898512729033827
1761469418299568600,0.316568603515625,1.0279039548456668,-1.0051593313351272,0.15387801780849694
1761469418309523700,0.326523681640625,0.8096580942839383,-1.1370222089514135,0.2734223888605833
1761469418319478800,0.336478759765625,0.6717074211865663,-1.0457748348399996,0.2954754499103874
1761469418329433600,0.34643359375,0.6326069984197616,-1.000674294875562,0.32405915483795106
1761469418339388700,0.356388671875,0.6190718095421791,-1.0352677616119383,0.4726028258811682
1761469418349342700,0.3663427734375,0.594673865866661,-1.0010746923699974,0.5340235823318362
1761469418359297800,0.3762978515625,0.5388052636504173,-0.9103902128383516,0.43756168844252824
1761469418369252600,0.386252685546875,0.4959036950349807,-0.8736182330191135,0.2969038022130728
1761469418379207700,0.396207763671875,0.28629882156848907,-0.8776309757918119,0.20031462868228553
1761469418389162800,0.406162841796875,-0.02847206124663353,-0.8759723949298263,-0.024459976061061022
1761469418399117800,0.416117919921875,-0.38882454554140566,-0.8941115704715251,-0.24683365714251992
1761469418409072600,0.42607275390625,-0.6777928785800933,-0.931867008370161,-0.42372726089004425
1761469418419027700,0.43602783203125,-0.8056494431644677,-0.8739932038113475,-0.5730244171816855
1761469418428982800,0.445982666015625,-0.7865472678095102,-0.8594941383376717,-0.6740260733924806
1761469418438937600,0.4559375,-0.700302232030034,-0.877071296082437,-0.6054908818267285
1761469418448893000,0.465892822265625,-0.5563379977315664,-0.795639505803585,-0.5246447459487245
1761469418458847700,0.47584765625,-0.37504210390448567,-0.6041960197106003,-0.4649056224420666
1761469418468802800,0.485802734375,-0.20676643517017362,-0.4469236832886934,-0.34541499087121336
1761469418478757600,0.495757568359375,-0.006399345648288726,-0.2645443781390786,-0.2968147722227499
1761469418488712700,0.505712646484375,0.07082242572009563,-0.14869535447359084,-0.32965777856260536
1761469418498667800,0.515667724609375,0.03847790695428848,-0.06848053876906633,-0.3684211148621514
1761469418508622600,0.52562255859375,0.04845861822068691,0.015958324371278285,-0.5201954749222845
1761469418518578000,0.535577880859375,0.07617197005450725,0.051155894480645656,-0.646211087815091
1761469418528532700,0.54553271484375,0.0827227068722248,0.008291150744259356,-0.7122022209212183
1761469418538487600,0.555487548828125,0.09277297624349594,0.03381371453553438,-0.8381548515804111
1761469418548443000,0.56544287109375,0.2139081236183643,0.024976035824418066,-1.0423189222324638
1761469418558397000,0.57539697265625,0.2824023986518383,-0.05094809694886207,-1.1414520811576396
1761469418568351700,0.585351806640625,0.26695933032631874,-0.09486585686951875,-1.1594459299445152
1761469418578306600,0.595306640625,0.23345102847814558,-0.013113164073228835,-1.1851861550744622
1761469418588261600,0.60526171875,0.18226620016396045,0.05641892957538366,-1.143221136656776
1761469418598216700,0.615216796875,0.1080500403523445,0.0699912355929613,-1.0490293065913021
1761469418608171800,0.625171875,0.14152327088713645,0.16696049448251724,-0.9844500130444764
1761469418618126600,0.635126708984375,0.17799919036924838,0.13518880716860293,-0.8667974470883607
1761469418628082000,0.64508203125,0.19172025720775127,0.07216624154448509,-0.8257488859284668
1761469418638036700,0.65503662109375,0.1406453190088272,0.02060615017712116,-0.8525591514427214
1761469418647991600,0.664991455078125,0.11975684475898742,0.02618628839701414,-0.912924480556324
1761469418657947000,0.67494677734375,0.12719839293658733,0.032900106821954246,-0.9207613847270607
1761469418667901700,0.684901611328125,0.07905074036121368,0.024713293235003948,-0.8543790603462607
1761469418677856800,0.694856689453125,-0.09933248088955879,-0.004694003035128116,-0.784452852813527
1761469418687811600,0.7048115234375,-0.30469489448070525,0.0075832947358489035,-0.8163766619492322
1761469418697766700,0.7147666015625,-0.39708150175511836,0.05912614270746708,-0.8612707926213741
1761469418707721700,0.7247216796875,-0.44424657303392884,0.07646276969462633,-0.7933606741514057
1761469418717676500,0.734676513671875,-0.40720542088448997,0.03736176240593195,-0.64603332009539
1761469418727632000,0.7446318359375,-0.3139595664322376,0.018202303905785082,-0.4967742673244327
1761469418737586700,0.754586669921875,-0.19646657495200634,-0.0326493469312787,-0.41170623943507667
1761469418747541800,0.764541748046875,-0.0758779555439949,-0.05860884083509445,-0.39874169005230065
1761469418757496800,0.774496826171875,-0.08933364944458007,-0.11223024864643812,-0.4041040938682854
1761469418767451600,0.78445166015625,-0.24997546229958534,-0.1486290112391114,-0.4040893346905708
1761469418777406700,0.79440673828125,-0.3816892868340015,-0.1276990359351039,-0.4478614025302231
1761469418787360800,0.80436083984375,-0.39742695419192314,-0.09878682970553636,-0.4651715068366378
1761469418797315800,0.81431591796875,-0.38441958858072756,-0.16932488552629946,-0.4544002297144383
1761469418807270700,0.824270751953125,-0.3455260865628719,-0.2033300309807062,-0.44932921006046234
1761469418817225700,0.834225830078125,-0.28235680594444273,-0.1907800537481904,-0.462902904317528
1761469418827180500,0.8441806640625,-0.2118430077821016,-0.16091829170882702,-0.45313072123527526
1761469418837136000,0.854135986328125,-0.1594154859304428,-0.1405520877674222,-0.3661417352207005
1761469418847090700,0.864090576171875,-0.1243979485630989,-0.1357002638220787,-0.2845477401174605
1761469418857045800,0.874045654296875,-0.17237725883424282,-0.12655921825021504,-0.22077925149686634
1761469418867000800,0.884000732421875,-0.24521570055186748,-0.11795943994820117,-0.2136177623696625
1761469418876955600,0.89395556640625,-0.23891630814671516,-0.07447422622591257,-0.2594046588967554
1761469418886910700,0.90391064453125,-0.16439385886490343,-0.04905658411383629,-0.28461653103735296
1761469418896865500,0.913865478515625,-0.06916530616283416,-0.011205576886236667,-0.2819856162781827
1761469418906820900,0.92382080078125,-0.009758008426427841,0.022730010463297364,-0.2726931978031993
1761469418916775700,0.933775634765625,0.05638064339160919,0.030587445965409278,-0.2721707630979828
1761469418926730800,0.943730712890625,0.12293372122943401,0.05786620577424764,-0.20402888169875366
1761469418936685800,0.953685791015625,0.11785130339860915,0.10002104767560958,-0.109803861749731
1761469418946640600,0.963640625,0.14197159917652605,0.187599085624516,-0.047913862085808064
1761469418956595700,0.973595703125,0.16945581842958926,0.21856121012121438,-0.023227274194639175
1761469418966550800,0.98355078125,0.22601941717267035,0.21548282558917997,-0.011134904536511748
1761469418976505900,0.993505859375,0.24298633406460285,0.15714403386712072,-0.002969973987806588
1761469418986460700,1.003460693359375,0.2873468693166971,0.09282236834317445,-0.050074127125926314
1761469418996415500,1.01341552734375,0.39983167724609375,0.029455227065086364,-0.11862197724385186
1761469419006369800,1.023369873046875,0.513010897180438,-0.07208674656748772,-0.13793931145314126
1761469419016324900,1.033324951171875,0.5644990923553704,-0.13058131337314843,-0.11745077804001047
1761469419026279700,1.04327978515625,0.5606424169272184,-0.15978957993984222,-0.1301794545739889
1761469419036234500,1.053234375,0.48584991853237147,-0.12656477120816706,-0.11853833581469952
1761469419046189800,1.06318994140625,0.37327100257873536,-0.10906214000433682,-0.09275564151620491
1761469419056144600,1.07314453125,0.25908815855979916,-0.07688800936937332,-0.08351674332674593
1761469419066099700,1.083099609375,0.14002864841520785,-0.04223053748607635,-0.08781042193267494
1761469419076054800,1.0930546875,0.061600423866510386,-0.06695844376832247,-0.07968849027547985
1761469419086009900,1.103009765625,0.03387947324812412,-0.08068857069611549,-0.07353995931679383
1761469419095964700,1.112964599609375,0.0795510910987854,-0.1025540732845664,-0.028073417317867277
1761469419105919700,1.122919677734375,0.18356091614961623,-0.08872603894025087,-0.013548505016881972
1761469419115874800,1.132874755859375,0.2574894911915064,-0.09620850365012884,0.04521461306447163
1761469419125829600,1.14282958984375,0.3119628396570682,-0.1070920089751482,0.12821308640446513
1761469419135785200,1.15278515625,0.3365256185054779,-0.09924830973744392,0.18169987151809036
1761469419145740000,1.162739990234375,0.2931161003679037,-0.08783201270997523,0.1704744026212953
1761469419155695000,1.172695068359375,0.2023024414986372,-0.05137596697211265,0.12201271566068753
1761469419165650200,1.182650146484375,0.09722820208668709,-0.09518179095089435,0.11789726143218576
1761469419175605000,1.19260498046875,-0.01229249534010887,-0.12717004362493753,0.13321973558533937
1761469419185560000,1.20256005859375,-0.052208910664916036,-0.08427870414257049,0.1684663324682042
1761469419195515100,1.21251513671875,-0.022617489999532697,-0.07532353653162717,0.21628741997033357
1761469419205470200,1.22247021484375,0.07662380547523498,-0.052658992519974704,0.26061514893136917
1761469419215424000,1.232424072265625,0.1468202082514763,-0.03401712815314531,0.2549966879950836
1761469419225379000,1.242379150390625,0.11512918495833874,-0.07853022361844778,0.22804328768309204
1761469419235334100,1.252334228515625,-0.003712298521399498,-0.10002163219749927,0.181519875308685
1761469419245289000,1.2622890625,-0.12697218296527862,-0.09370587317943573,0.08131616454254835
1761469419255244000,1.272244140625,-0.1628530591636896,-0.08692161986678838,-0.0001780965132638812
1761469419265199000,1.28219921875,-0.1517781229197979,-0.10559212580621243,-0.04647825805842876
1761469419275154200,1.292154296875,-0.10661854624450207,-0.14855302339345217,-0.0915704320533201
1761469419285109000,1.30210888671875,-0.07182371171712874,-0.1511389482334256,-0.0989221465229988
1761469419295064300,1.312064208984375,-0.13112754907906055,-0.11476181295067071,-0.06165763394646346
1761469419305019100,1.32201904296875,-0.21004677201509475,-0.07574819168448448,0.004890438922680914
1761469419314974000,1.331973876953125,-0.27086159846186636,-0.038033378057181835,0.04009480409901589
1761469419324929000,1.341928955078125,-0.2861789945811033,-0.009590542905032634,0.04962017281334847
1761469419334884000,1.351884033203125,-0.30558453679680825,-0.024417525158822534,0.06871266702450811
1761469419344839200,1.361839111328125,-0.2600076114922762,-0.025990765824913976,0.047529338013939555
1761469419354794000,1.3717939453125,-0.13125439032912253,-0.04512304405719041,0.047548846432007845
1761469419364749300,1.381749267578125,0.03174421478509903,-0.09120265818685293,0.034813648825697596
1761469419374704000,1.3917041015625,0.1448416016548872,-0.15516484274864195,0.05341952856369316
1761469419384659000,1.401658935546875,0.21128011320233345,-0.191683432328701,0.006795541891641914
1761469419394614000,1.411614013671875,0.24523440525233745,-0.21747166131883858,-0.03567731645032763
1761469419404569000,1.421569091796875,0.2775561276644468,-0.27252076384574175,-0.09905976489540189
1761469419414524200,1.431524169921875,0.3010065613567829,-0.30131489665359257,-0.11166815778426825
1761469419424479000,1.44147900390625,0.35955168930590153,-0.2646665432140231,-0.12822674960363656
1761469419434433000,1.45143310546875,0.34761984397172924,-0.26763942154496906,-0.09950959102213382
1761469419444388000,1.46138818359375,0.3223790197312832,-0.27564532560706134,-0.06803356218654662
1761469419454343200,1.47134326171875,0.3047007396996021,-0.2586962366327643,0.0056108986843377345
1761469419464298000,1.481298095703125,0.26406185531914234,-0.24603052406609058,0.04190631050039083
1761469419474253000,1.491253173828125,0.2340647764623165,-0.24012889880686997,0.03413954895641654
1761469419484208000,1.5012080078125,0.18583587534427642,-0.22633125960081815,0.0025733210867270825
1761469419494163000,1.511162841796875,0.18201310218572617,-0.22057693385779856,-0.02176397844273597
1761469419504118300,1.5211181640625,0.18281506621837615,-0.20826748738288878,-0.03586732259709388
1761469419514073000,1.531072998046875,0.09989712903499602,-0.1937093851983547,-0.06377133816480636
1761469419524028200,1.541028076171875,-0.012386018842458725,-0.1497746741428971,-0.07046488098669797
1761469419533983000,1.55098291015625,-0.1124246021747589,-0.10269055914580821,-0.025212584526650605
1761469419543938000,1.56093798828125,-0.20924948415756225,-0.060275897264480585,0.03085263624023646
1761469419553893000,1.57089306640625,-0.2212380281150341,-0.03339344329684973,0.07375471631232648
1761469419563848000,1.580847900390625,-0.1679553507387638,-0.0196828978523612,0.11738028835337608
1761469419573803300,1.59080322265625,-0.07569324662685394,-0.054237201622128486,0.07592153895739466
1761469419583758000,1.600758056640625,-0.025680969223380087,-0.09532938272804022,0.028102351151406763
1761469419593713200,1.610713134765625,0.03498772675096989,-0.14170827206522227,-0.04594033352313563
1761469419603668200,1.620668212890625,0.054362289306521414,-0.22257366063296793,-0.11764725046018137
1761469419613623000,1.630623046875,0.017474866414070128,-0.26935294746458527,-0.1309143264534883
1761469419623578000,1.640578125,0.037812721043825145,-0.20255144782364368,-0.1401443472167477
1761469419633533000,1.650532958984375,0.07168868716061115,-0.10273965898454189,-0.10612278035050257
1761469419643488300,1.66048828125,0.060066053906083106,-0.0819207428395748,-0.05180509737068787
1761469419653442000,1.670442138671875,0.04988952780663967,-0.06413111138790846,-0.053033013464137906
1761469419663397000,1.680397216796875,0.018017887249588964,-0.09881634806096554,-0.07368035416817292
1761469419673352000,1.69035205078125,-0.015886135917901993,-0.14130261387377976,-0.08073852905137464
1761469419683307300,1.700307373046875,0.06410276207625866,-0.13227116615623236,-0.12608707069382072
1761469419693262000,1.710261962890625,0.1388023214906454,-0.11394845074117183,-0.07337589132888242
1761469419703217200,1.720217041015625,0.20971593262553215,-0.12150135033875703,-0.03962525035850704
1761469419713172200,1.730172119140625,0.2892255226701498,-0.13967530493289232,-0.07376078072693198
1761469419723127000,1.740126953125,0.30446225476861,-0.18491642241179942,-0.12325056862626224
1761469419733082000,1.75008203125,0.3234329126983881,-0.18993191248625516,-0.19305998137891292
1761469419743037000,1.760036865234375,0.37884851045012474,-0.1394470491349697,-0.26582844486655666
1761469419752992300,1.7699921875,0.34720249534249303,-0.16474895591288805,-0.24434085394609717
1761469419762947000,1.779947021484375,0.28898645321726796,-0.13112901038378477,-0.22278215228449552
1761469419772902000,1.78990185546875,0.19921324331164358,-0.06911445275843144,-0.19720246974481268
1761469419782857200,1.799857177734375,0.0893067614376545,0.006957271791994572,-0.1254871868382208
1761469419792812000,1.80981201171875,0.05083879135549068,0.11862316455394029,-0.033300540849007666
1761469419802767000,1.81976708984375,0.08684300167262554,0.19389409411549566,0.030727731218934056
1761469419812722200,1.82972216796875,0.2586947753280401,0.21754706464260815,0.06751260705236345
1761469419822677200,1.83967724609375,0.519155975806713,0.16223112787306307,0.06196386861773207
1761469419832632000,1.849632080078125,0.7855003891050815,0.06827186445444822,0.04250162777872756
1761469419842587000,1.8595869140625,1.0036685082554817,0.014444997198879718,-0.04627020479831844
1761469419852542200,1.869542236328125,1.0845803663134574,-0.05860094978958368,-0.17156723935930057
1761469419862497000,1.8794970703125,0.9541156650573015,-0.08587970959842205,-0.17235669097024947
1761469419872452000,1.8894521484375,0.6075801091909409,-0.08842676373273134,-0.07670441469708457
1761469419882407200,1.8994072265625,0.1932996353536844,-0.014202420614659785,-0.14282350329812615
1761469419892362200,1.9093623046875,-0.1434475169479847,0.07274141108393668,-0.22379584110537543
1761469419902316000,1.91931591796875,-0.3622136019915342,0.13355243813842535,-0.12499357636868953
1761469419912271000,1.92927099609375,-0.475876806050539,0.06217939279824495,0.13247898195432498
1761469419922226200,1.93922607421875,-0.4024783923625946,0.3727002169534564,0.33774200855791564
1761469419932181000,1.949180908203125,0.043186230775713916,1.0420867939770222,0.63504628133066
1761469419942136000,1.959135986328125,0.4486106134623289,1.1444596654757857,0.5820079706368968
1761469419952091000,1.9690908203125,0.5437964960664511,0.5325239914238452,0.13966142253801225
1761469419962046200,1.979046142578125,0.8777753526985644,0.0805246123060584,-0.0513462476872839
1761469419972001000,1.9890009765625,1.15382341388762,-0.2790712084025144,-0.502004824921675
1761469419981956000,1.9989560546875,0.38444121589064595,-1.1523150551512837,-0.25333500186055896
1761469419991911200,2.0089111328125,-0.7135738015353679,-1.629793158918619,-0.4823228038521483
1761469420001866000,2.018865966796875,-1.9581138436585663,-2.196309144054353,-0.4032110905513167
1761469420011821000,2.028821044921875,-2.273550496906042,-1.320310445639491,-1.4149161902680991
1761469420021776100,2.038776123046875,-2.118637583091855,-0.08567804954648017,-2.2404005069762465
1761469420031731200,2.048731201171875,-2.5444664559036494,-0.3007406038969755,-2.0913618920229373
1761469420041686000,2.05868603515625,-3.2799685961306095,-1.4453016839206219,-2.5028385604858396
1761469420051641000,2.06864111328125,-3.748825878807902,-2.7654987323135134,-3.7845331520050762
1761469420061596200,2.07859619140625,-3.7011364913940428,-4.073268553070724,-4.563577204577625
1761469420071551000,2.088551025390625,-5.1772173444598915,-5.270802221608162,-3.7550750023305413
1761469420081506000,2.098506103515625,-5.904175528225302,-4.290234602954984,-2.5941326963484284
1761469420091461000,2.108461181640625,-6.844858295735716,-4.0859582310348745,-1.6339733672127126
1761469420101416200,2.118416259765625,-9.421569901683926,-4.2889021853074425,-0.8097988179288804
1761469420111371000,2.12837109375,-8.881299241656064,-1.750143877917528,-2.147355143532157
1761469420121326300,2.138326416015625,-8.199505895262956,-0.8398965806812048,-0.8819013465873896
1761469420131280400,2.1482802734375,-6.971898867762088,0.2789227398425341,0.09097637515030801
1761469420141235700,2.158235595703125,-5.625261556211114,2.4844255364388226,2.3776800028137863
1761469420151190500,2.1681904296875,-3.003584434854984,3.221768336096406,3.9353497364163395
1761469420161145300,2.178145263671875,1.4767735115051268,2.3267922577500344,5.152570394459366
1761469420171100400,2.188100341796875,4.59054499874115,0.4729050967633724,4.25160735065788
1761469420181055500,2.198055419921875,4.801269816148281,0.5352507860392332,2.1916733009472487
1761469420191009500,2.208009521484375,4.97550000937283,0.8436796063512563,0.1896662472873926
1761469420200964400,2.21796435546875,4.457172885605693,-1.072950718796253,-1.0394970697447656
1761469420210919400,2.22791943359375,3.699789752960205,-2.741445656552911,-2.2572771152362225
1761469420220874500,2.23787451171875,2.7471470830649136,-2.821845473435521,-3.04196443439275
1761469420230829600,2.24782958984375,2.239338430702686,-1.2544149549275636,-2.087297565193474
1761469420240784400,2.257784423828125,0.19156009820997713,0.48068975929021834,1.114710131639242
1761469420250739500,2.267739501953125,-2.603032042118907,1.5398025068700312,3.8864182399868965
1761469420260694500,2.277694580078125,0.38642099153101445,1.6834218732535837,3.189802002993226
1761469420270649300,2.2876494140625,3.9054187085330483,1.1661498114973305,4.21181748432219
1761469420280604400,2.2976044921875,5.686933291748166,0.968560954517126,4.730899810370802
1761469420290559500,2.3075595703125,4.882676764246821,1.3100579316943883,4.707817333208024
1761469420300514600,2.3175146484375,1.1035077696233988,0.22476620224118232,6.784914991426468
1761469420310469400,2.327469482421875,-1.183691313406825,0.771691059461236,9.389044181132316
1761469420320424400,2.337424560546875,1.379690270847082,5.051818694421649,4.831897301863133
1761469420330379500,2.347379638671875,2.4256781639158724,6.318961613497137,1.1706079599499701
1761469420340334300,2.357334228515625,2.0909096182107922,4.319606827911734,0.6766898857742547
1761469420350289700,2.36728955078125,2.2836416828095913,3.09143339869976,-0.2126063933700323
1761469420360244500,2.377244384765625,3.9501100831747054,4.12759489428103,-1.832884997229278
1761469420370199600,2.387199462890625,6.016632279103994,5.283280594909191,-1.8745412419587373
1761469420380154400,2.397154296875,7.913364310082793,5.658232097920775,0.012858604790270328
1761469420390109400,2.407109375,9.59163245383501,6.172602593016624,2.793012469922006
1761469420400064500,2.417064453125,10.991023450452088,6.294401172736287,4.184120499101281
1761469420410019300,2.427019287109375,11.91274315881729,6.556082270398735,4.453631267476082
1761469420419974700,2.436974609375,12.33574762185812,7.06331867583096,4.1925528118818995
1761469420429929500,2.446929443359375,13.129123858904837,7.884926151105761,3.721123048368096
1761469420439884500,2.456884521484375,12.492913867557048,7.219934301909804,2.9983693305552004
1761469420449839400,2.46683935546875,11.449965488314628,6.55804977107942,2.5717937310293317
1761469420459794400,2.47679443359375,10.090292754101753,6.744232267904281,2.087311301457882
1761469420469749500,2.48674951171875,8.394605273514985,6.695513537442684,0.8059016643598675
1761469420479704300,2.496704345703125,5.7327580543339245,6.340187941399217,-2.100624518147856
1761469420489659600,2.50665966796875,3.435896824467182,6.240711083602905,-4.1661274540320035
1761469420499613400,2.516613525390625,3.4730677404761314,6.268847629284858,-4.337077018150687
1761469420509568500,2.526568603515625,3.7421336876928804,5.670907455098629,-4.071080687637627
1761469420519523300,2.5365234375,3.547293837159872,3.752944420042634,-5.6322413320958615
1761469420529478700,2.546478759765625,1.5313397989511488,1.7418477587372063,-9.7855551895231
1761469420539433500,2.55643359375,-4.643777991756797,-0.447146386128664,-15.255509279644489
1761469420549388300,2.56638818359375,-10.847243925070762,-1.4853309119701386,-21.496311548662185
1761469420559343600,2.576343505859375,-14.292654427814483,-2.9664632032066582,-27.429437861561773
1761469420569298400,2.58629833984375,-14.172113154679536,-3.062988809981942,-27.504107025837897
1761469420579253500,2.59625341796875,-13.984258340728282,-3.2197838842809197,-27.63073550993204
1761469420589208300,2.606208251953125,-13.778969576895236,-3.4087989741832017,-27.74652929627895
1761469420599163600,2.61616357421875,-13.629904804587364,-3.5622944224148987,-27.79347341828346
1761469420609118500,2.626118408203125,-13.603980089735984,-3.6017929045885797,-27.743576291692257
1761469420619073300,2.6360732421875,-13.731995059752464,-3.497387942740321,-27.574591013383863
1761469420629028600,2.646028564453125,-13.999909498846531,-3.2881858048558232,-27.284450713956353
1761469420638983400,2.6559833984375,-14.37024386345148,-3.0324674149900672,-26.925972791361808
1761469420648938500,2.6659384765625,-14.807466236937046,-2.768845704653859,-26.559790870261192
1761469420658893600,2.6758935546875,-15.305705681443213,-2.501489483964443,-26.221607547676562
1761469420668848600,2.6858486328125,-15.88376977329254,-2.221515189242363,-25.924315038406846
1761469420678803500,2.695803466796875,-16.552700130981204,-1.9355711724609135,-25.67108145109415
1761469420688758300,2.70575830078125,-17.293685671055314,-1.6585452061504125,-25.48840199395418
1761469420698713600,2.715713623046875,-18.066971890753507,-1.4089987829178572,-25.39361826241016
1761469420708668400,2.72566845703125,-18.836521846532822,-1.2037030048221349,-25.374350082838532
1761469420718623500,2.73562353515625,-17.563351337730882,-0.40274610338807104,8.957183626940846
1761469420728578600,2.74557861328125,-13.498508959960937,1.320055009573698,9.84872388561964
1761469420738533400,2.755533447265625,-9.633220601764322,3.6012148124396797,9.327383551511168
1761469420748488400,2.765488525390625,-6.199296538674831,5.421036622217297,7.862486355760693
1761469420758443300,2.775443359375,-3.8792075779557225,7.178337970674037,5.585697023063898
1761469420768398600,2.785398681640625,-2.6096622739136217,9.453259171411394,3.1919071585789323
1761469420778353400,2.795353515625,-2.3321524696089324,11.917775892287493,2.231260045926273
1761469420788308500,2.80530859375,-2.6570155612409114,14.480446113401651,2.684549464854598
1761469420798263600,2.815263671875,-2.8864649528622626,16.591996368581057,4.6010555791005485
1761469420808217600,2.825217529296875,-2.934536033070087,17.300164511680602,6.865425867468118
1761469420818172400,2.83517236328125,-2.736789939701557,17.337621843415498,8.32549725049734
1761469420828127500,2.84512744140625,-2.2645710716366767,17.650176219224928,8.838494119152426
1761469420838082600,2.85508251953125,-2.0255473575927314,17.6059536311388,8.98530029887855
1761469420848037400,2.865037353515625,-1.7207880195736884,17.012590263348816,8.922291761779785
1761469420857992400,2.874992431640625,-1.1095220614768564,16.351563810652493,8.569490131255984
1761469420867947500,2.884947509765625,-0.4725045531384647,15.429184761595724,7.871862086871266
1761469420877902600,2.894902587890625,0.10012114704921841,14.554808988207578,6.963013550516963
1761469420887857400,2.904857421875,0.3807786017298698,13.810706777417659,6.188300512886047
1761469420897812500,2.9148125,0.3516016070842743,13.064583289933204,5.516899381169677
1761469420907767600,2.924767578125,0.31298370713740586,12.83443130300045,4.48058298728764
1761469420917722400,2.934722412109375,0.19844751963615417,12.613292643606663,3.3671497437164186
1761469420927677400,2.944677490234375,-0.1960524411931634,12.227019536113739,1.9791250675052403
1761469420937632500,2.954632568359375,-0.6059845105625689,11.936173134243488,0.6781042095515877
1761469420947587600,2.964587646484375,-0.941803880494833,11.931758824932574,-0.5433053515486419
1761469420957542400,2.97454248046875,-0.8476577162019908,11.870269460225105,-1.586196155384928
1761469420967497500,2.98449755859375,-0.5507856243014335,11.79258182491064,-2.314385196119547
1761469420977452500,2.99445263671875,-0.306259221187979,11.783185051012039,-2.9133026909053323
1761469420987407400,3.004407470703125,-0.04221314795985818,11.86063653948307,-3.3237194750517607
1761469420997362400,3.014362548828125,0.2987256108127534,12.087253338026999,-3.6498067016512152
1761469421007317500,3.0243173828125,0.7999917096637189,12.17084113729596,-3.894725757344067
1761469421017272600,3.0342724609375,1.2140317988738416,12.1614420253098,-4.202008330230415
1761469421027227400,3.044227294921875,1.5922212608933448,11.845871516549586,-4.608007882456481
1761469421037182500,3.054182373046875,1.6352292124927044,11.221298186981677,-4.750731761305034
1761469421047137500,3.064137451171875,1.2555448357403278,10.57113215099573,-4.914896195328235
1761469421057092400,3.07409228515625,0.9590940379917621,10.079324785363674,-5.876546347543597
1761469421067047400,3.08404736328125,1.184200431972742,9.334218950489163,-6.660833853727579
1761469421077002500,3.09400244140625,1.4678911168694495,7.956988347753882,-7.259372578328848
1761469421086957600,3.10395751953125,0.7019822210062294,6.424700454297661,-7.891178197237849
1761469421096912400,3.113912353515625,-0.708137163439393,4.67159655753076,-8.417488720974326
1761469421106867500,3.123867431640625,-2.00501237295568,1.1611293529868125,-6.562450636386871
1761469421116822500,3.133822509765625,-1.4708809463351964,-3.2955069415241476,-3.431235554657876
1761469421126777300,3.14377734375,1.3857811350680886,-6.662699063077569,-3.550277529145777
1761469421136733000,3.15373291015625,3.59595586899817,-10.418298381543158,-7.06786800969839
1761469421146687000,3.16368701171875,3.18237156073153,-14.88584360808134,-11.121196475285291
1761469421156642000,3.17364208984375,3.452822240304947,-14.951529839956759,-10.979185713142156
1761469421166597000,3.18359716796875,3.7054903026893733,-15.022422992825508,-10.844670859712362
1761469421176552000,3.193552001953125,3.881677767461538,-15.089772773998975,-10.661596265774964
1761469421186507000,3.203507080078125,3.944799117285013,-15.143095198863744,-10.425869109058379
1761469421196461800,3.2134619140625,3.8964889676243066,-15.168939249694347,-10.21498997787237
1761469421206417200,3.223417236328125,3.7710116993919014,-15.15913915569186,-10.106718988245724
1761469421216372000,3.2333720703125,3.598525719486177,-15.121960056376457,-10.091709635162353
1761469421226327000,3.2433271484375,3.389836499559879,-15.071501788771151,-10.122204142147302
1761469421236282000,3.2532822265625,3.14177008575201,-15.017202043306826,-10.162358457881211
1761469421246237000,3.26323681640625,2.8298084151387215,-14.962391425710916,-10.193686493080854
1761469421256192000,3.27319189453125,2.4419705425471068,-14.908206246536968,-10.236673401892185
1761469421266146800,3.283146728515625,1.9847049134641885,-14.85788943322897,-10.327262604355811
1761469421276102100,3.29310205078125,1.4704758726656435,-14.818745171320437,-10.489016177845
1761469421286057000,3.303056884765625,0.9256056098878384,-14.801384871196746,-10.723955399054288
1761469421296012000,3.313011962890625,-19.157927052795888,-9.269965381765365,-5.64744299288094
1761469421305967000,3.322967041015625,-15.22564839438796,-4.192510141783952,-2.9856442890167236
1761469421315922000,3.332921875,-12.600932343727349,0.19991116244792936,1.067281148727238
1761469421325877000,3.342876953125,-9.721258366179466,5.796153544923663,3.1982840001344677
1761469421335832000,3.35283203125,-7.370700617438555,9.419417107564211,5.137117973783612
1761469421345787100,3.362787109375,-4.8067549695611,11.902677691876887,5.564370157396793
1761469421355742000,3.372741943359375,-2.4442557308748363,13.746383650588989,4.946319507595897
1761469421365697000,3.382697021484375,-1.3181599896073342,15.133783765161036,3.769680743049085
1761469421375652000,3.392652099609375,-2.6879218638971447,17.120353887975217,3.66654565500617
1761469421385607000,3.40260693359375,-5.219958169555664,19.1886729041934,4.73008440233469
1761469421395562000,3.41256201171875,-7.000333519607782,20.113089596557614,5.47728048748672
1761469421405517000,3.42251708984375,-7.67712920384407,20.25312467471361,4.927520114579797
1761469421415472000,3.43247216796875,-7.845908730447292,20.103973393166065,3.5377976945400236
1761469421425427000,3.442427001953125,-7.674847230386733,19.984291367208957,2.9011019655019044
1761469421435382000,3.452382080078125,-7.021932187953591,19.54521021411419,2.597813430687785
1761469421445337000,3.462337158203125,-5.9018637441515915,18.532777384644746,2.0284353341192007
1761469421455292000,3.4722919921875,-4.657036994041502,17.19455309665203,1.5745003107637165
1761469421465246000,3.482245849609375,-3.5045763929396867,16.09300990509987,1.3827254007592797
1761469421475201000,3.492200927734375,-2.2569138348817823,15.561476093757152,1.4446312373131514
1761469421485156000,3.502156005859375,-1.5062836836278437,15.130241562509536,1.6145742547377944
1761469421495111000,3.51211083984375,-1.1186685138761996,14.843164157783985,1.266678516434133
1761469421505066000,3.52206591796875,-0.9757727855920791,14.749841730964183,0.24425094717293977
1761469421515021000,3.53202099609375,-1.1802397116482257,14.857639257860184,-1.1779814113274216
1761469421524976000,3.54197607421875,-1.6997577987655996,15.080019441747664,-2.069761031720042
1761469421534931000,3.551930908203125,-2.131645825485885,15.03579217748642,-2.6206550848320127
1761469421544886000,3.561885986328125,-2.552803199355304,15.054391664016245,-2.9614497589588162
1761469421554841000,3.571841064453125,-3.4402053353160618,14.802033690494298,-3.046634764291346
1761469421564796000,3.5817958984375,-4.282422467899322,14.160311657726764,-3.1092513794630765
1761469421574751000,3.5917509765625,-4.4930900021612645,13.655719629323482,-3.193233438746631
1761469421584706000,3.6017060546875,-3.7123581426322456,13.312708155930041,-3.7983383899956937
1761469421594661000,3.6116611328125,-2.5972306623637675,12.782642663574219,-4.659430318918824
1761469421604616000,3.621615966796875,-1.6733973228454588,12.26952012271285,-5.7035085789740085
1761469421614571000,3.631571044921875,-0.990044545115903,11.751461879014968,-6.908300548076629
1761469421624526000,3.641526123046875,-0.7660942623674869,11.303835015892982,-7.898642541769147
1761469421634481000,3.65148095703125,-0.9473007243454455,11.063788242411613,-8.470714115205407
1761469421644436200,3.661436279296875,-1.3055296406149863,10.72529278513789,-7.822334378114342
1761469421654391000,3.67139111328125,-0.7466267608314752,9.424633380907773,-6.655013769271969
1761469421664345900,3.681345947265625,1.0186404519379137,6.616547552755475,-6.276470379248261
1761469421674301000,3.691301025390625,4.216943156772851,3.6995179502815008,-6.613924803036451
1761469421684256000,3.701256103515625,6.7121607208609575,1.3119780861020087,-5.89651419981718
1761469421694211000,3.711211181640625,6.762233204019069,-0.5603536631137133,-2.594965055519342
1761469421704166000,3.721165771484375,4.925120652222633,-2.1756471720367667,1.6338316206544636
1761469421714121200,3.731121337890625,2.647825123569369,-7.501179347220063,2.49898685349375
1761469421724076000,3.741075927734375,-0.3446282609403133,-16.247121439403294,-4.250920829698443
1761469421734030800,3.75103076171875,0.018933248528838157,-16.433748757386205,-3.793004335491359
1761469421743986200,3.760986083984375,0.3382946740046143,-16.600936046361923,-3.503305642351508
1761469421753941000,3.77094091796875,0.5588213389798998,-16.71912520341277,-3.3414708203196524
1761469421763896000,3.78089599609375,0.6382242537796496,-16.77545207079053,-3.245673527818918
1761469421773851000,3.790850830078125,0.5670341637909412,-16.768329087042808,-3.1874212453365325
1761469421783806200,3.80080615234375,0.36684067727029324,-16.702319030040503,-3.1841034990906714
1761469421793760000,3.810760009765625,0.0768210816130042,-16.594957556474206,-3.2469974698990582
1761469421803715000,3.820715087890625,-0.25836627402603624,-16.472838074237107,-3.360356722575426
1761469421813670000,3.830669921875,-0.6018935879871249,-16.356163997924327,-3.5035809521615504
1761469421823625000,3.840625,-0.9391953054316341,-16.250239279162884,-3.6733763778090474
1761469421833580000,3.850580078125,-1.2668372141271829,-16.15298886524439,-3.883192263677716
1761469421843534800,3.860534912109375,-1.5872446415245531,-16.06407840964794,-4.140818532991409
1761469421853490200,3.870490234375,-1.8986387413829564,-15.985724419379233,-4.451238819381595
1761469421863445000,3.880445068359375,-2.1990870843350887,-15.921485463702679,-4.818151392844319
1761469421873400000,3.890400146484375,-15.801340496408939,-7.303276017463207,-13.571138142842054
1761469421883355000,3.90035498046875,-16.22456357063651,-2.1144307790517805,-10.67767997009158
1761469421893310000,3.91031005859375,-15.300315220576524,2.898264111727476,-7.2423805269956585
1761469421903265000,3.92026513671875,-13.32884446721673,7.185279752635956,-4.158752833610773
1761469421913219800,3.9302197265625,-10.763622223532199,10.31309028661847,-2.0746707233324644
1761469421923175200,3.940175048828125,-8.843381306672097,13.05696229353547,-0.3992553386628628
1761469421933130000,3.9501298828125,-7.497220380461216,15.591979953092336,0.9299173356071114
1761469421943085000,3.9600849609375,-5.784741924071311,17.450070995509623,1.069305494161695
1761469421953040100,3.9700400390625,-4.168018674606085,19.327542445701358,0.3943956236720085
1761469421962995000,3.979994873046875,-4.278412647736072,21.01190656824112,-0.29130466703176494
1761469421972950000,3.989949951171875,-5.942565172374248,22.37822648538351,-0.33116613729894157
1761469421990992100,4.0079921875,-6.9682502821266645,23.198780652213095,-0.03833031517714262
1761469422000947000,4.017947021484375,-6.611710634118318,23.12433828243017,0.07873685210645198
1761469422010902000,4.027902099609375,-5.761455741029978,22.282301767110823,0.5401087474644184
1761469422020857000,4.037857177734375,-4.846991118359566,21.266229704356192,1.2223176889210938
1761469422030812000,4.04781201171875,-4.0285038209319115,20.141939258944987,1.9115090366110206
1761469422040767000,4.05776708984375,-3.213059544461965,19.128630815684794,2.443038171778619
1761469422050722000,4.06772216796875,-2.239722023192793,18.2710109467864,2.6382512395381927
1761469422060677000,4.077677001953125,-1.2583775749482213,17.70446076712012,2.6094597370788453
1761469422070632000,4.0876318359375,-0.42439094896316526,17.382147213840483,2.381720656506717
1761469422080587000,4.0975869140625,-0.015723784963041543,17.063915961438415,1.8662240799903869
1761469422090542000,4.1075419921875,-0.2514319447182119,16.551363913941383,0.9741998371869325
1761469422100497000,4.117496826171875,-0.9289104966521262,15.821560277616976,-0.16760054595172405
1761469422110452000,4.127451904296875,-1.9882124831937251,15.09794906619191,-1.1490367641329764
1761469422120407000,4.137406982421875,-2.916358571344614,14.57892051615715,-1.6639233920574188
1761469422130362000,4.147362060546875,-3.620776421999931,14.054433700716494,-2.0051959128290413
1761469422140317000,4.15731689453125,-4.308879097670316,13.492844942849874,-2.3858131865173577
1761469422150272000,4.16727197265625,-4.5260476843893525,12.953219010466336,-2.9616330065712333
1761469422160226800,4.177226806640625,-4.26782461822629,12.392338693130016,-3.8125487016558646
1761469422170181600,4.187181640625,-4.04286786184907,11.826299385595322,-4.802662439550459
1761469422180137000,4.197136962890625,-3.996592432886362,11.115727688485384,-5.618075444099307
1761469422190091800,4.207091796875,-3.6963890046060084,10.420575678825378,-6.4365469594359395
1761469422200046800,4.217046875,-3.0239889249801633,9.68857540923953,-7.490666721034049
1761469422210002000,4.227001953125,-2.22428056230247,9.107034581190348,-8.096582111883164
1761469422219957000,4.23695703125,-1.6575778224229811,8.595227214580774,-8.254420557755232
1761469422229911800,4.246911865234375,-1.8576666795253753,8.368326338398456,-8.010172240930796
1761469422239866600,4.25686669921875,-2.487062314683199,7.9621713033497326,-7.522810164269805
1761469422249822000,4.266822021484375,-2.345440844118595,6.253139188021421,-6.762938137418032
1761469422259776800,4.27677685546875,-0.7169166822224855,4.66227167982459,-5.048650001257657
1761469422269731800,4.28673193359375,1.7269563329450786,3.5396132195293903,-1.5938900708884
1761469422279687000,4.29668701171875,3.293763312727213,1.5624708502739666,2.227992422432452
1761469422289642000,4.30664208984375,3.6699651080608366,-1.031463693153858,3.4379181011617184
1761469422299595800,4.316595703125,2.887147089907527,-4.2395384349405765,0.03733246324621141
1761469422309550800,4.32655078125,3.1307512636095285,-7.673613889199495,-6.42184974104166
1761469422319506000,4.336505859375,6.000635084027052,-12.37056642178297,-10.435535932070016
1761469422330083800,4.347083740234375,10.536289970195293,-23.89242108826637,-16.119648905700444
1761469422340038700,4.35703857421875,9.278712751844525,-29.40920882575512,-19.464803382968903
1761469422349994000,4.366993896484375,5.608982037061453,-34.940389830255505,-22.536007648110388
1761469422359948800,4.37694873046875,0.8512358669497072,-39.92630543518066,-26.426000823974608
1761469422369903900,4.38690380859375,-3.519577562716603,-44.35951584591865,-30.55575786472559
1761469422379858700,4.396858642578125,-6.286564487761258,-46.13497536687851,-32.8848414482832
1761469422389814000,4.40681396484375,-8.758958810144662,-45.26688554189205,-30.260464420318602
1761469422399768800,4.416768798828125,-11.153095003849268,-43.10476245281696,-24.513650952625273
1761469422409723600,4.4267236328125,-12.488346413511037,-39.805964068531985,-20.92294233663082
1761469422419679000,4.436678955078125,-12.56034898892641,-36.32497021123171,-20.219746136724947
1761469422429633800,4.4466337890625,-13.69188516768217,-32.63164994654655,-22.108560818707943
1761469422439588900,4.4565888671875,-15.849705006605387,-27.42724239734411,-23.988960723567008
1761469422449544000,4.4665439453125,-21.105794812250135,-21.979774279797077,-22.88541612906456
1761469422459499000,4.4764990234375,-27.185923704230785,-13.662685961204767,-20.531139652061462
1761469422469453800,4.486453857421875,-32.26346428440809,-5.633745891439914,-17.530339879488945
1761469422479408600,4.49640869140625,-34.25791843847036,2.343758590120077,-13.356726161354779
1761469422489364000,4.506364013671875,-34.4070931008935,9.88630396695137,-8.365851472717523
1761469422499318800,4.51631884765625,-31.67406748216152,16.32035501791835,-3.8064275884270664
1761469422509273900,4.52627392578125,-25.74611068085432,20.826421406030654,-1.1481019675008952
1761469422519229000,4.53622900390625,-19.228499887669084,23.843903433334827,0.9546901039443909
1761469422529183700,4.546183837890625,-14.561728558337688,26.285951717293262,2.490325700393319
1761469422539138800,4.556138916015625,-11.7439449275136,28.314778096556662,4.142728750526905
1761469422549094000,4.566093994140625,-8.24578833848834,29.388790307104586,4.817087270744144
1761469422559049000,4.576049072265625,-5.280432804262638,29.727920555150508,5.13141596274972
1761469422569002800,4.586002685546875,-3.326154008722305,29.657560486245153,5.944819088780879
1761469422578957800,4.595957763671875,-0.9742501060694455,29.339926615214345,6.839483616960048
1761469422588913000,4.605912841796875,1.034511390286684,28.331203161656855,7.37261083497405
1761469422598868000,4.615867919921875,1.9555740960478782,26.329393384134768,7.433864052838087
1761469422608822800,4.62582275390625,2.367969486790895,24.25438509941101,7.406019768100976
1761469422618777900,4.63577783203125,2.065892665854096,22.019954314494132,7.15097357840836
1761469422628733000,4.64573291015625,1.0272551355481148,19.922173056948182,6.457435433685779
1761469422638687700,4.655687744140625,0.39713878490030763,18.221597804319856,5.510536860400438
1761469422648642800,4.665642822265625,0.17476123136132954,16.582371631145477,3.734737439961731
1761469422658598000,4.675597900390625,-0.23316519727408885,15.519680440557002,1.3043433534398674
1761469422668553000,4.685552978515625,-0.8303262037813663,14.884842906606197,-1.0984943253755568
1761469422678507800,4.6955078125,-1.357075118935108,14.271843110454082,-3.467917518106103
1761469422688462800,4.705462890625,-2.075242385740578,13.615284743082523,-5.603537215659022
1761469422698418000,4.71541796875,-3.0701348823443055,13.17965928339958,-7.030952529755234
1761469422708372700,4.725372802734375,-3.9577676121905445,12.999287518680095,-7.762714898931979
1761469422718327800,4.735327880859375,-4.588918274322152,12.944148399782181,-7.959383133935928
1761469422728283000,4.745282958984375,-5.03238275706768,12.96955289015174,-7.7690055235087865
1761469422738238000,4.755238037109375,-5.420402415966987,13.026681721562147,-7.112194642680883
1761469422748192800,4.76519287109375,-5.344215832865238,12.816021201562881,-6.069865272119641
1761469422758147800,4.77514794921875,-4.741809911441803,12.438999906539916,-5.244003062009811
1761469422768103000,4.78510302734375,-4.135478633268177,12.258688932096957,-5.05166730325222
1761469422778057700,4.7950576171875,-3.3584733930468555,12.041473583626747,-5.351544568318128
1761469422788012800,4.8050126953125,-2.854856347155571,11.670961524367332,-6.152180567234754
1761469422797968000,4.8149677734375,-2.321146945339441,11.327379557609557,-6.713339701512456
1761469422807923000,4.8249228515625,-1.7810931429326533,10.816600949525833,-6.916923414993286
1761469422817877800,4.834877685546875,-0.9347628028769045,9.92125136169195,-6.386128439319133
1761469422827832800,4.844832763671875,-0.16551204923987387,8.260175760281086,-4.489619695702195
1761469422837788000,4.854787841796875,0.6360860727071762,6.866887756714225,-1.4920707416191696
1761469422847742700,4.86474267578125,1.5269517931252716,6.361035499116778,2.634934954597056
1761469422857698000,4.874697998046875,2.7306454455971716,4.786632803508639,7.243759998655319
1761469422867652900,4.88465283203125,4.960339265120029,1.0722253271311522,9.671163671189547
1761469422877608000,4.89460791015625,7.4979352507323025,-3.984210505697131,5.751878349867463
1761469422887562800,4.904562744140625,6.566479161250591,-10.76313590131998,-3.1231288059070703
1761469422897517800,4.914517822265625,2.126696532515436,-18.597480450701713,-11.94890635908842
1761469422907473000,4.924472900390625,-1.173995264300704,-24.407894576168058,-16.972806534492968
1761469422917427700,4.934427734375,-4.074210217835009,-29.715227077794072,-15.749810215657948
1761469422927383000,4.944383056640625,-7.3570409253984685,-34.200651659893985,-13.01026367072463
1761469422937337900,4.954337890625,-10.250880790942906,-37.018213172399996,-12.041553078603744
1761469422947293000,4.96429296875,-12.442263876771927,-37.70406076261997,-10.517119990301131
1761469422957247700,4.974247802734375,-15.129111097174881,-36.92904085099697,-8.107081878587604
1761469422967202800,4.984202880859375,-17.427316727387904,-34.54747421600818,-5.633222744348645
1761469422977158000,4.994157958984375,-17.397590282166004,-31.054001985406874,-5.045466695046424
1761469422987112700,5.00411279296875,-17.266890018588303,-28.36763290390968,-5.32912406219542
1761469422997068000,5.014068115234375,-16.811784782409667,-25.23662503519058,-6.131276310893893
1761469423007021800,5.024021728515625,-14.65560744999647,-21.729760239052773,-6.497783810687065
1761469423016977000,5.033976806640625,-12.396329808592796,-17.932133212196828,-4.914884504890441
1761469423026931700,5.043931640625,-11.249350561511516,-13.442116626131535,-1.6364809661194681
1761469423036887000,5.053886962890625,-10.761538987517357,-9.229051772096753,1.1666166983567177
1761469423046841900,5.063841796875,-10.23397758693695,-5.4039902103483675,2.269296638853848
1761469423056796700,5.073796630859375,-9.396007590404153,-1.898667382955551,2.704691504651308
1761469423066752000,5.083751953125,-7.129715686324238,1.25844990953207,2.185167280054092
1761469423076706800,5.093706787109375,-4.1264761193841695,2.8963153157472608,-0.20242307220362127
1761469423086662000,5.103661865234375,-0.789369339492917,3.9019665222525592,-3.0289596991300582
1761469423096616700,5.11361669921875,2.2220076489344236,6.184813839814066,-5.230052862590551
1761469423106572000,5.123572021484375,4.350282828943431,7.167429038646817,-5.257065957200527
1761469423116526800,5.13352685546875,6.643773997855186,9.050768504089117,-4.3138937109619375
1761469423126481700,5.143481689453125,8.4395257807374,11.757229941022395,-1.7120874112457036
1761469423136436700,5.153436767578125,8.812221613776684,13.155969780254363,0.38917635465376077
1761469423146391600,5.1633916015625,7.52430946291685,14.837075777781008,1.0954306269560008
1761469423156346600,5.1733466796875,5.465580697342753,15.435957032209634,0.07616868211887777
1761469423166301400,5.183301513671875,4.429372147749364,14.604945768773556,-0.4504834946621209
1761469423176256800,5.1932568359375,5.290114824843406,13.885990858721732,0.6946364613533019
1761469423186211600,5.203211669921875,7.385699449127912,13.009465213823317,1.6577200073726475
1761469423196166400,5.21316650390625,9.079442225387693,13.079447681587935,2.183041373941302
1761469423206121700,5.223121826171875,9.959673154544829,13.872832101941109,3.4399332403764125
1761469423216076500,5.23307666015625,10.725950956785677,13.637482546365261,3.2131884315386414
1761469423226031600,5.243031494140625,11.134204425418377,11.741132208180426,1.8442041174925863
1761469423235986700,5.252986572265625,10.120970800960063,10.797274317765234,-0.5846484386757016
1761469423245941800,5.262941650390625,7.761060117462277,10.629030213212966,-2.59318840123564
1761469423255896600,5.272896484375,4.600106607812643,9.237216373851895,-3.5888121347233652
1761469423265851400,5.282851318359375,2.2015321393996476,9.263141673225164,-3.286376125085354
1761469423275806700,5.292806640625,1.530071386450529,8.751058996805549,-2.756620137070119
1761469423285761500,5.302761474609375,1.2639812401741741,9.389266883972287,-1.8504057486116885
1761469423295716600,5.312716552734375,1.553816711436212,10.169898790258168,-1.0860776191338897
1761469423305671700,5.322671630859375,1.753342381697893,9.460070604991913,-0.2755563321493566
1761469423315626500,5.33262646484375,1.1636468887656926,8.883256220942735,-0.5836108392562717
1761469423325581600,5.34258154296875,1.5818091724723577,9.205510152989625,-1.578947353300452
1761469423335536400,5.352536376953125,3.771187932741642,8.907444321259856,-0.8595374660227447
1761469423345491700,5.36249169921875,5.630324684819579,9.203073865753412,0.11631284178495406
1761469423355446500,5.372446533203125,6.1644596185714,10.184260493087768,0.38396000824496146
1761469423365401600,5.382401611328125,5.6803387157887215,10.102079053485394,0.6932914764851331
1761469423375356700,5.392356689453125,4.961760822355747,9.6235982024163,0.3811503576517105
1761469423385311500,5.4023115234375,3.705325175255537,8.259585977694393,-0.3614163141340017
1761469423395266600,5.4122666015625,1.6104834782928228,6.903724910724162,-1.5468150159806011
1761469423405221600,5.4222216796875,0.19400047709941862,6.37114012902379,-2.5383701848551627
1761469423415175700,5.43217578125,-0.724071814674139,5.751985901895165,-3.1368998493671416
1761469423425130500,5.442130615234375,-0.7821884880781174,4.767521860325336,-2.562037183907628
1761469423435085600,5.45208544921875,1.3324918818205593,3.6659757461637255,-0.422723161881417
1761469423445040600,5.46204052734375,3.181245187050104,2.830471262961626,1.9362543324194847
1761469423454995700,5.47199560546875,2.345575284153223,1.4463468090593814,3.0393416846737265
1761469423464950500,5.481950439453125,-0.4217325434088707,0.5706991160392761,2.447322424969077
1761469423474905600,5.491905517578125,-5.835850180017948,-0.5769242741644383,-2.0336707505546507
1761469423484860700,5.501860595703125,-12.60206982332468,-4.250071519392729,-6.724284289374947
1761469423494815500,5.5118154296875,-13.62250826459527,-3.654844695818424,-4.688502684146165
1761469423504770600,5.5217705078125,-8.406352994453906,-6.124967566138506,3.1677208118274804
1761469423514725600,5.5317255859375,-12.363893519890308,-7.543094242885708,3.930225817531347
1761469423524680700,5.5416806640625,-18.032210373973847,-6.746855017623305,1.0735932544834912
1761469423534635500,5.551635498046875,-20.050045403623578,-8.223429791685938,1.8774892781093715
1761469423544590600,5.561590576171875,-19.253828390192986,-10.623463226735591,3.4340415519893166
1761469423554545700,5.571545654296875,-16.384903770196438,-13.52131232792139,4.107005987499654
1761469423564500500,5.58150048828125,-14.69339328303337,-15.922069985592364,3.8233728780090805
1761469423574455600,5.59145556640625,-15.780623871594667,-18.0472489531517,3.2784470856517554
1761469423584410600,5.60141064453125,-17.385943098992108,-18.353220443439483,2.441731473094225
1761469423594365700,5.61136572265625,-19.36372084354162,-17.5779784134984,1.8775234726399181
1761469423604320500,5.621320556640625,-22.150103958451748,-16.714480592477322,0.023541984433308242
1761469423614275600,5.631275634765625,-23.20311546654701,-15.692025550687312,-2.5081258532389996
1761469423624230700,5.641230712890625,-21.453945402097702,-14.118602513766287,-3.0207044964820144
1761469423634185500,5.651185546875,-17.325462619066236,-10.772773498237132,-2.344873565624654
1761469423644140500,5.661140625,-12.536208234882354,-7.600769017741084,-1.2942631273217498
1761469423654095600,5.671095703125,-6.711565677577257,-4.61728804423809,-0.877470889859274
1761469423664050700,5.68105078125,-1.796868219691515,-1.5350982747018336,-0.48981378066204484
1761469423674005500,5.691005615234375,0.9583774141550063,-0.11222586473226547,-0.3134106638452038
1761469423683960600,5.700960693359375,2.2323276751577854,1.6123358281612394,-1.3906385119713842
1761469423693915600,5.71091552734375,4.0280759509086606,2.962864301931858,-1.888810151938349
1761469423703870500,5.720870361328125,6.505443385529518,5.29851908057332,-1.7120966174654662
1761469423713825800,5.73082568359375,7.916313807538152,6.501359331086277,-0.5946576819168403
1761469423723780600,5.740780517578125,8.492271282497049,6.435909830576181,-0.2749985521361232
1761469423733735700,5.750735595703125,8.894918017163873,6.700282067018747,-1.9678838347837329
1761469423743690500,5.7606904296875,8.82039849049151,7.386696058949828,-2.6777070516139267
1761469423753645600,5.7706455078125,7.619954195204377,8.264680085963011,-1.7910111642263828
1761469423763600600,5.7806005859375,7.038070252805948,9.057992025601862,-0.5347670211102813
1761469423773555500,5.790555419921875,7.556032634913921,8.95585383964181,0.1606368078863248
1761469423783510800,5.8005107421875,10.034341149777173,9.209498930364846,0.647642801118642
1761469423793465600,5.810465576171875,11.456681644827126,8.234804587659239,0.6902673063583672
1761469423803419600,5.820419677734375,11.843014373552798,8.044409441575407,-0.17918620819672942
1761469423813374500,5.83037451171875,11.444847414648532,7.774248684859275,-1.8892218014791606
1761469423823329800,5.840329833984375,11.196771648490428,8.394472587046026,-2.250512151145935
1761469423833284600,5.85028466796875,10.310428373932838,8.114200186160206,-1.9313596922457217
1761469423843239400,5.860239501953125,7.609514634254574,7.110563826608657,-1.1973740209963173
1761469423853194800,5.87019482421875,4.817849779549241,6.80369158808887,-0.9880845701545476
1761469423863149600,5.880149658203125,2.977541646581888,7.36645581947565,-1.4246449726000427
1761469423873104600,5.890104736328125,2.4008266312539575,8.104298969870806,-2.117518808194995
1761469423883059500,5.9000595703125,2.579893158593774,8.635726982751487,-2.1716059338219464
1761469423893014800,5.910014892578125,2.8238147276818752,8.51166338070929,-1.874661068946123
1761469423902969600,5.919969482421875,2.8820319388508797,7.337118665832281,-0.6920479061648249
1761469423912924400,5.92992431640625,3.7277556182503697,7.218415129518508,-0.3971213223088532
1761469423922879700,5.939879638671875,4.576670787167549,7.2972040040731425,-0.44695963138490913
1761469423932834600,5.94983447265625,4.981196175187826,6.5337880210042,-0.4941083360508084
1761469423942789600,5.95978955078125,5.331712325122952,6.084352062633633,-0.998534506367892
1761469423952744400,5.969744384765625,4.9815989107698195,6.17712270078957,-1.4264520220220087
1761469423962699800,5.97969970703125,3.149157273393869,6.455776560562849,-2.2731056757479906
1761469423972654600,5.989654541015625,1.3301555478274822,6.955562065467238,-3.080699238717556
1761469423982609400,5.999609375,0.744419021654129,6.6842012853115795,-2.168169529632479
1761469423992564700,6.009564697265625,0.7235732175022364,6.379167368134856,-0.4118653755195439
1761469424002519600,6.01951953125,0.6039315235555172,6.085006142628193,0.7708861728191375
1761469424012474600,6.029474609375,0.6844704566478729,4.940746675899624,1.3479847806371748
1761469424022429700,6.0394296875,1.6646224802374838,3.006380203053355,1.407535870758444
1761469424032384500,6.049384521484375,2.7700807994067667,0.24756840115785597,1.2796981570050119
1761469424042339600,6.059339599609375,3.1694927899360654,-2.6698756273359057,1.0674283021129667
1761469424052294400,6.06929443359375,2.424373511058092,-3.706193774783611,-0.2524371762380004
1761469424062249700,6.079249755859375,-1.215683949995041,-2.1667484107881783,-0.6242382523946464
1761469424072204500,6.08920458984375,-9.871930573683976,-1.1427572454720736,1.4720520359411835
1761469424082159600,6.09915966796875,-18.20882015581131,-1.238387949234247,3.296360635744035
1761469424092114700,6.10911474609375,-19.480014980626105,-2.642606512138247,4.778468786275386
1761469424102069500,6.119069580078125,-14.856533342444896,-4.444718477702141,4.2458138619482515
1761469424112024600,6.129024658203125,-9.328266179564595,-7.242155486068129,2.178243764401227
1761469424121979600,6.138979736328125,-6.815594207328558,-10.333017806881665,1.2152234928764403
1761469424131934700,6.148934814453125,-7.851192808330058,-11.7670686134696,2.228529744179547
1761469424141889800,6.158889892578125,-9.298746070569752,-12.069804190576075,4.097015047100186
1761469424151844900,6.168844970703125,-7.30830641284585,-12.69845280675888,5.062212662664056
1761469424161798700,6.178798583984375,-4.817551088863611,-15.177278038972615,6.598494594192505
1761469424171753700,6.188753662109375,-3.069118691039085,-16.310607530885935,6.124811498793959
1761469424181708800,6.198708740234375,-3.7339971429884433,-14.790070865499972,3.129562638346851
1761469424191663600,6.20866357421875,-9.22594270016551,-13.22457160731554,0.8165099329400807
1761469424201618700,6.21861865234375,-14.747220734810828,-10.309618226593733,-1.1041863264720886
1761469424211573800,6.22857373046875,-17.813292897760867,-8.237175992965698,-1.0561421342711894
1761469424221528800,6.23852880859375,-17.41324611645937,-7.201612463277578,-1.3314417882457374
1761469424231483600,6.248483642578125,-13.461667714297771,-6.487235528665781,-2.3550822404280303
1761469424241439000,6.25843896484375,-8.83029970678091,-5.68164862934351,-3.2308085516422986
1761469424251393800,6.268393798828125,-6.389731432247162,-3.7818823452353474,-4.1636964274927974
1761469424261348600,6.2783486328125,-4.914213473761081,-1.6984207049429416,-4.002463955268263
1761469424271303700,6.2883037109375,-2.8329601571679115,-0.30521278087496756,-3.4293756060048937
1761469424281258800,6.2982587890625,-0.3176718649536371,1.180021100461483,-2.51858762602061
1761469424291213800,6.3082138671875,1.0031985526561737,4.129433215624093,-1.1805994118060916
1761469424301168600,6.318168701171875,0.9268430427283048,7.354058110195398,-0.26575463071167466
1761469424311124000,6.3281240234375,1.302729196241498,8.784511184552311,-0.10126213377788662
1761469424321078800,6.338078857421875,1.7982348318696022,9.309558556485175,-0.0980073697656393
1761469424331033600,6.34803369140625,2.5252502987802026,9.919249958741664,-0.22198826196044683
1761469424340989000,6.357989013671875,4.143081801748275,10.084565608626603,0.13322225633598864
1761469424350943700,6.36794384765625,6.335138256794214,9.700812959522008,0.6998880252059548
1761469424360898800,6.37789892578125,8.788325189882517,9.159727475979924,0.8613828746937214
1761469424370853600,6.387853515625,10.389469761943817,8.748921984776853,0.3617686347030103
1761469424380808700,6.39780859375,10.81781792410016,9.089165162500738,-0.3636251492898911
1761469424390763800,6.407763671875,10.402532657134532,9.39977775659263,-0.04346080993339419
1761469424400718600,6.417718505859375,9.020895928394793,9.428843692079186,0.7761800414435565
1761469424410674000,6.427673828125,7.470307823616266,9.912107101249694,1.0862442078724504
1761469424420628700,6.437628662109375,6.789865891832113,10.070148960739374,0.9256995717816054
1761469424430583800,6.447583740234375,6.92362905011177,9.31552067975998,-0.01310103524401784
1761469424440538600,6.45753857421875,7.458264919123053,8.469138828712701,-0.8052446617558598
1761469424450493700,6.46749365234375,6.592362375047802,7.797675153154135,-1.2279874051205812
1761469424460448800,6.47744873046875,4.742554592329263,7.230642158406972,-1.4920822859264908
1761469424470403600,6.487403564453125,3.587702419915795,7.257329089802504,-0.9982394689440727
1761469424480359000,6.49735888671875,2.8822558107346294,7.443173148453235,-0.3886706701539457
1761469424490313700,6.507313720703125,2.2637223458528517,7.120737430098653,-0.3892624985672533
1761469424500268800,6.517268798828125,1.3699299243330956,6.916202114981412,-0.9318268224902451
1761469424510224000,6.527223876953125,0.5848889694333076,6.6528241502732035,-1.3218746262162924
1761469424520178700,6.5371787109375,0.6833657102763653,6.353790934816002,-1.1641676977694033
1761469424530133800,6.5471337890625,1.6085674155384302,6.032763329693675,-0.8202280036151409
1761469424540088600,6.557088623046875,2.4540894348859785,5.445299541336298,-0.6151306707009673
1761469424550043000,6.56704296875,2.214280561813712,4.196987579458952,-1.41811805504933
1761469424559997700,6.576997802734375,0.2506505850821733,3.279842339402437,-2.7785487680226564
1761469424569952800,6.586952880859375,-3.6461636689737436,2.9793256073892116,-3.664971829818189
1761469424579907600,6.596907470703125,-6.3580632053077215,3.0701030259013176,-3.686133860312402
1761469424589863000,6.60686279296875,-6.835334096065163,2.7230905001729724,-2.3360779724895955
1761469424599817700,6.616817626953125,-5.496296738123894,1.5351228246212005,0.3778115686178207
1761469424609772800,6.626772705078125,-1.953852679082751,-0.40341128929853437,2.693749254876375
1761469424619728000,6.636727783203125,0.512863597664237,-2.63943138923347,2.2739326280914245
1761469424629682700,6.6466826171875,-0.193003867277503,-4.269772829684615,-0.13583221963867545
1761469424639637800,6.6566376953125,-2.42829389937222,-5.668292888686061,-1.9693733426891267
1761469424649592800,6.6665927734375,-5.25700282883644,-6.798509217014908,-2.3751877476066348
1761469424659548000,6.6765478515625,-7.192554712074995,-6.56152007753849,-1.5674232119843363
1761469424669502700,6.686502685546875,-7.811589112216233,-6.021642800742387,0.5240965009488165
1761469424679457800,6.696457763671875,-8.32698836583793,-6.131641637074947,2.7880092548072337
1761469424689412900,6.706412841796875,-7.876915863129496,-7.235456865212321,4.170791061928868
1761469424699367700,6.71636767578125,-5.183953374716639,-9.097298200073837,4.533651729652285
1761469424709322800,6.72632275390625,-2.690131648901105,-12.521247981637716,5.8322010098606345
1761469424719277800,6.73627783203125,-0.22139584902524947,-15.31043095639944,6.527585074710846
1761469424729233000,6.74623291015625,1.3244567516639827,-17.25837587274313,6.927966202533245
1761469424739187700,6.756187744140625,0.7903916682779788,-18.47245589467287,6.472147849649191
1761469424749142500,6.766142578125,-2.4845281200304625,-18.126286834031344,4.41412547877878
1761469424759097900,6.776097900390625,-6.237881413134932,-16.16870782790184,3.348896001884341
1761469424769052700,6.786052734375,-8.311243099695444,-13.390692728364467,4.238477527710796
1761469424779007700,6.7960078125,-8.815498443490267,-10.99282962309122,4.644821947851777
1761469424788962800,6.805962890625,-8.639878841733932,-8.914905743181706,3.304097075214982
1761469424798918000,6.81591796875,-7.502594474714994,-8.423025896835327,0.4489335618063807
1761469424808872700,6.825872802734375,-6.574006634145975,-7.983032305070758,-2.119081527467072
1761469424818827800,6.835827880859375,-6.42923400607407,-6.554879324349761,-3.5585663418024778
1761469424828782800,6.845782958984375,-6.152722419026493,-4.832985973882675,-3.760929865838587
1761469424838737700,6.855737548828125,-5.429600452423095,-2.8549481170922517,-3.262119927968085
1761469424848692700,6.865692626953125,-4.469422710847854,-0.9612065001010894,-2.157430985736102
1761469424858647800,6.875647705078125,-3.173016287887096,0.22483459130227565,-1.52113580032289
1761469424868601900,6.885601806640625,-3.3184754369184373,2.3123095588892695,-0.8864340215809643
1761469424878556700,6.895556640625,-4.7251983838588,5.525808663812279,-0.22197416036985812
1761469424888512800,6.9055126953125,-5.255123590961098,8.197906643372773,0.18594079702347516
1761469424898466800,6.915466796875,-4.462110342007875,9.958716876733302,-0.3318627412609756
1761469424908421600,6.925421630859375,-2.2018927894055844,10.69847492083907,-0.6142396401453762
1761469424918376700,6.935376708984375,0.7889496527761221,10.789006840157509,-0.5076001241780818
1761469424928331800,6.945331787109375,3.2658278425753116,10.707494093596935,-0.5612742120247334
1761469424938286800,6.955286865234375,6.061695409667491,10.451030438321828,-0.32334691491536793
1761469424948241700,6.96524169921875,8.129545054808258,10.24274073910713,0.11712262379787862
1761469424958197000,6.975197021484375,9.0776565110147,10.113951862108706,0.07708776972517371
1761469424968151800,6.98515185546875,9.970496161854266,10.776372984033822,0.6095267132140696
1761469424978106600,6.995106689453125,10.006332029867172,10.609096847730875,0.8264158984698354
1761469424988061700,7.005061767578125,9.245549902433156,11.084296777433156,0.014334084170311689
1761469424998016800,7.015016845703125,7.765801759031414,11.40788692651987,-0.952082844055444
1761469425007971800,7.024971923828125,6.188123402753472,11.420249564486742,-1.6238381960369646
1761469425017926700,7.0349267578125,4.446564982351661,11.226057364207506,-2.0976532472521066
1761469425027882000,7.044882080078125,3.138079414540529,11.256023463404178,-2.317830952659249
1761469425037836800,7.0548369140625,1.81252463850677,11.120164209628104,-2.4016066757157444
1761469425047791600,7.06479150390625,0.9932494786370545,10.805127953875065,-2.796686482259631
1761469425057746700,7.07474658203125,0.6176191265158355,10.61604330586791,-3.1985832753419876
1761469425067701800,7.08470166015625,0.7270236502170563,10.144875408160686,-2.99698985889554
1761469425077656800,7.09465673828125,1.0502918738730251,9.812470668977499,-2.76725872772336
1761469425087611600,7.104611572265625,0.9505594338804483,9.373609296113251,-2.8299808490961786
1761469425097566700,7.114566650390625,0.2991676554918289,8.68277982582748,-2.937002130922675
1761469425107521800,7.124521728515625,-0.585476560062915,8.235805873656272,-3.3096979639619586
1761469425117476600,7.1344765625,-2.0374108138658107,8.009409439864754,-3.260451994755864
1761469425127432000,7.144431884765625,-2.8793256025016305,7.600400768950581,-2.342754235383123
1761469425137386800,7.15438671875,-1.97556357563138,6.2220601591467855,-1.4528941848762333
1761469425147341800,7.164341796875,-0.5509411071240902,4.198478694799542,-1.276229311850667
1761469425157296600,7.174296630859375,0.18301015039905905,2.117967721006274,-1.0016416786029934
1761469425167251700,7.184251708984375,0.858139508858323,-0.10595979007482528,-1.1602321118861436
1761469425177206800,7.194206787109375,1.4813688764713704,-2.153490285286307,-2.0524135910779235
1761469425187161600,7.20416162109375,1.1493757868289947,-3.629747079440951,-2.5765105304181573
1761469425197116700,7.21411669921875,-1.4248673831790686,-3.73299585699141,-2.6375056818678972
1761469425207071700,7.22407177734375,-5.090847220996022,-3.7188363987356423,-1.2243383810937405
1761469425217026800,7.23402685546875,-6.413851143503189,-4.47998677496016,1.4358430968321858
1761469425226981600,7.243981689453125,-4.7680900156021115,-6.193004160532355,3.896310688447952
1761469425236935700,7.253935791015625,-3.1911639389961954,-8.02340523199141,4.676325339618325
1761469425246890800,7.263890869140625,-3.1835680770397183,-10.131839400976896,3.466371457707882
1761469425256845800,7.273845703125,-3.511356262338161,-12.331020008814335,1.2895540728479622
1761469425266800600,7.283800537109375,-5.681521203571558,-13.91518188189268,0.29574264947921036
1761469425276755700,7.293755615234375,-8.116342458885908,-16.260958241575956,1.4973907675981522
1761469425286710800,7.303710693359375,-7.960957835906743,-18.41866351420879,2.5416312324777244
1761469425296665600,7.31366552734375,-6.680035397803783,-17.53868919016123,2.2259743606083093
1761469425306621000,7.323620849609375,-7.980394357782602,-16.189942339110374,3.3751886732652783
1761469425316575700,7.33357568359375,-9.124511201170087,-14.921375524711609,4.44494351862967
1761469425326530800,7.34353076171875,-8.025341168490051,-14.321484216457604,4.4721652875542635
1761469425336485600,7.353485595703125,-6.826759744465351,-14.402905777603387,3.0953719071924684
1761469425346440700,7.363440673828125,-6.368664678820967,-13.47558401144743,0.545161939200759
1761469425356395800,7.373395751953125,-5.788087727367878,-12.222381939440965,-1.2890350174099205
1761469425366350600,7.3833505859375,-5.1630058637559415,-10.462898570770024,-2.4979236081764102
1761469425376306000,7.393305908203125,-4.36486840365678,-7.539765390723943,-2.5092431668311357
1761469425386260700,7.4032607421875,-2.7057871909335254,-3.814339676725864,-1.240789019026607
1761469425396215600,7.413215576171875,-1.1047072085410357,-0.5529191291987896,-0.19423896203041074
1761469425406170600,7.423170654296875,0.028840017776191232,1.968715317171812,-0.10088752831183373
1761469425416125700,7.433125732421875,0.9080570937156677,3.8474317989885805,-0.5718559579242021
1761469425426080800,7.443080810546875,1.2309236047029495,5.490079763305187,-1.1995970308080315
1761469425436035600,7.45303564453125,1.138772852011025,6.759260910210013,-1.5265677622437477
1761469425445991000,7.462990966796875,1.1133864818200467,8.312295823618769,-2.7744971545442936
1761469425455945700,7.47294580078125,0.8494722182780504,8.884385517233609,-2.954180644738674
1761469425465900500,7.482900634765625,0.6980453930139541,9.315571533164382,-2.5438968393221497
1761469425475856000,7.49285595703125,1.919956546960771,9.713664257788658,-1.9213593994960187
1761469425485810700,7.502810791015625,3.11985636010766,9.319107890596985,-1.0608042077980935
1761469425495765800,7.512765869140625,4.551565864266455,8.932647151577472,-0.009206767751835286
1761469425505720600,7.522720458984375,6.364430986773967,8.440474459764362,0.907597294184193
1761469425515676000,7.532676025390625,7.538735463154316,8.19631031409204,1.3321591427348554
1761469425525630700,7.542630615234375,8.552927118989825,8.304932016852497,1.0917583681840448
1761469425535585500,7.55258544921875,9.122136288732289,7.940602445620298,0.8281458640675992
1761469425545539600,7.56253955078125,8.901045560133456,7.692066076213121,0.3921009003309533
1761469425555495000,7.572494873046875,7.739535098874568,7.399175601294636,-0.4196151859287172
1761469425565449700,7.58244970703125,6.0839686162739985,7.2488482617050405,-1.3073939731821418
1761469425575404500,7.592404541015625,4.413991915526986,7.258205872637033,-2.103865692026168
1761469425585360000,7.60235986328125,3.2373937752515074,7.107300440898538,-2.3915626899547875
1761469425595314700,7.612314697265625,3.0529446780905127,6.771022075152397,-2.3358101153336466
1761469425605269800,7.622269775390625,3.0334736694231625,6.505113130661845,-2.4306889778152105
1761469425615224800,7.632224853515625,2.860991488909721,6.654245707508921,-2.3859333057656884
1761469425625179600,7.6421796875,2.5089699028477073,6.7734887575268745,-1.6895130297355352
1761469425635134700,7.652134765625,1.5308794879630208,7.198561259013414,-1.0321262487158178
1761469425645089500,7.662089599609375,0.5052870249301195,7.917468238270282,-0.3973864395184442
1761469425655044900,7.672044921875,0.2104401552468538,7.4712150015890595,0.029350889907777306
1761469425664999700,7.681999755859375,-0.46858898712992664,6.8271981358826155,-0.7892036275371909
1761469425674954800,7.691954833984375,-1.451795429854095,6.569492956113815,-2.113905293872952
1761469425684909800,7.701909912109375,-2.9870591242507096,5.974385959526896,-2.831557889154553
1761469425694864600,7.71186474609375,-4.9543093373060225,5.991259352916479,-2.4824042597442864
1761469425704819700,7.72181982421875,-5.510128279599547,6.124198919853567,-1.1476494744930417
1761469425714774500,7.7317744140625,-4.062139548552036,4.9273318985313175,-0.09167816674411296
1761469425724729900,7.741729736328125,-0.888630508711934,2.1727315768510103,0.10315919957086443
1761469425734684700,7.7516845703125,1.7947341302722692,-0.4830214171081781,-0.6231857476670295
1761469425744639700,7.7616396484375,1.6528683295577764,-1.3677256922870873,-1.749863453540951
1761469425754594800,7.7715947265625,-1.9743579992339013,-1.5976561454236506,-1.9586586180597543
1761469425764549600,7.781549560546875,-6.235529881572723,-2.8268162475854157,-1.2619143707722424
1761469425774504700,7.791504638671875,-6.519374880248308,-4.246498337081074,-0.22540121220909057
1761469425784459800,7.801459716796875,-3.7990316329568623,-6.607658728379011,1.6306098821289836
1761469425794414800,7.811414794921875,-0.9506526651218533,-8.699125395950675,2.115396116952598
1761469425804369700,7.82136962890625,-0.9395715913981199,-9.165318427854777,0.8750816566351801
1761469425814324700,7.83132470703125,-3.3092768159404393,-9.159459764954446,0.972361442778632
1761469425824279800,7.84127978515625,-4.573951591336727,-10.49252330918312,2.8838673375844954
1761469425834234600,7.851234619140625,-4.899280400784313,-13.599432509434223,5.989529168123006
1761469425844189700,7.861189697265625,-3.663531860142946,-15.249019917625187,6.888910203430056
1761469425854144800,7.871144775390625,-5.041759657222032,-15.427714104521273,7.238436757805943
1761469425864098800,7.881098876953125,-8.16563051366806,-16.12019251105785,7.490268077105283
1761469425874053600,7.8910537109375,-9.81395886170864,-17.172971379441023,4.92174971448481
1761469425884008700,7.9010087890625,-10.127696309822797,-17.67978809815645,2.1628348906062542
1761469425893963800,7.9109638671875,-9.61266939664483,-17.77335602416992,0.2929874142206274
