time,seconds_elapsed,z,y,x
1761469418040739800,0.05773974609375,0.20365668833255768,-0.007502258755266666,0.086525559425354
1761469418050694700,0.067694580078125,0.1616288125514984,0.1108933612704277,0.09789086878299713
1761469418060649700,0.077649658203125,0.11911630630493164,0.1569717675447464,0.11751022189855576
1761469418070604800,0.087604736328125,0.10100414603948593,0.12016661465167999,0.1301189512014389
1761469418080559600,0.0975595703125,0.10132890194654465,0.06430032104253769,0.13905523717403412
1761469418090514700,0.1075146484375,0.10769172757863998,0.016740528866648674,0.1370309591293335
1761469418100469800,0.1174697265625,0.10933727771043777,-0.03405209630727768,0.10873955488204956
1761469418110424800,0.1274248046875,0.10350362211465836,-0.0943085178732872,0.04398959130048752
1761469418120379600,0.137379638671875,0.09231916069984436,-0.11202090978622437,-0.028135355561971664
1761469418130334700,0.147334716796875,0.08913615345954895,-0.04266127943992615,-0.0759819746017456
1761469418140288800,0.157288818359375,0.0941927433013916,0.08837107568979263,-0.09060318768024445
1761469418150243800,0.167243896484375,0.09504255652427673,0.1824546903371811,-0.08636263012886047
1761469418160198700,0.17719873046875,0.08820728957653046,0.17849838733673096,-0.08117209374904633
1761469418170153700,0.18715380859375,0.08334515988826752,0.057736024260520935,-0.09099888801574707
1761469418180108800,0.19710888671875,0.09164030849933624,-0.08074759691953659,-0.12702098488807678
1761469418190063600,0.207063720703125,0.11794568598270416,-0.16384035348892212,-0.17561888694763184
1761469418200018700,0.217018798828125,0.1685699224472046,-0.1865522861480713,-0.2144058495759964
1761469418209973800,0.226973876953125,0.22825507819652557,-0.10882765799760818,-0.21995694935321808
1761469418219928800,0.2369287109375,0.29356759786605835,0.028916331008076668,-0.1809360384941101
1761469418229883600,0.246883544921875,0.3510923981666565,0.173329696059227,-0.11471547931432724
1761469418239838700,0.256838623046875,0.40869203209877014,0.3082194924354553,-0.04360470548272133
1761469418249793800,0.266793701171875,0.48705822229385376,0.37587976455688477,0.03618013858795166
1761469418259748600,0.27674853515625,0.5194787383079529,0.4091106057167053,0.09475058317184448
1761469418269703700,0.28670361328125,0.5186768770217896,0.3566564619541168,0.10417710989713669
1761469418279658800,0.29665869140625,0.5292999148368835,0.2102280557155609,0.1094282865524292
1761469418289613800,0.30661376953125,0.5087573528289795,0.04156579449772835,0.09450020641088486
1761469418299568600,0.316568603515625,0.46683913469314575,-0.12371262907981873,0.0792190209031105
1761469418309523700,0.326523681640625,0.4452398121356964,-0.2442646026611328,0.09119205921888351
1761469418319478800,0.336478759765625,0.438641756772995,-0.2956761121749878,0.10576557368040085
1761469418329433600,0.34643359375,0.4457510709762573,-0.33256247639656067,0.09980008751153946
1761469418339388700,0.356388671875,0.47505977749824524,-0.36583930253982544,0.06925621628761292
1761469418349342700,0.3663427734375,0.5185332298278809,-0.35949379205703735,0.01886787824332714
1761469418359297800,0.3762978515625,0.5346434712409973,-0.34383314847946167,-0.07243882864713669
1761469418369252600,0.386252685546875,0.5511159300804138,-0.3615804612636566,-0.17125941812992096
1761469418379207700,0.396207763671875,0.5595057606697083,-0.3549653887748718,-0.24579684436321259
1761469418389162800,0.406162841796875,0.5509572625160217,-0.3165644705295563,-0.27288731932640076
1761469418399117800,0.416117919921875,0.5256737470626831,-0.2562878131866455,-0.2594090700149536
1761469418409072600,0.42607275390625,0.4883645176887512,-0.17090100049972534,-0.2022818624973297
1761469418419027700,0.43602783203125,0.4378793239593506,-0.06820482760667801,-0.1205359399318695
1761469418428982800,0.445982666015625,0.3804458677768707,0.013031966984272003,-0.04163872078061104
1761469418438937600,0.4559375,0.32540979981422424,0.05198195204138756,0.028566008433699608
1761469418448893000,0.465892822265625,0.27719780802726746,0.05747498944401741,0.09115508943796158
1761469418458847700,0.47584765625,0.2511747479438782,0.04227348789572716,0.14119231700897217
1761469418468802800,0.485802734375,0.25157421827316284,0.012271649204194546,0.1761082112789154
1761469418478757600,0.495757568359375,0.2632954716682434,-0.03299655765295029,0.18884515762329102
1761469418488712700,0.505712646484375,0.2879755198955536,-0.0710802972316742,0.196242094039917
1761469418498667800,0.515667724609375,0.31625765562057495,-0.06857068836688995,0.2170848697423935
1761469418508622600,0.52562255859375,0.3307631015777588,-0.07322748750448227,0.2466648668050766
1761469418518578000,0.535577880859375,0.34393471479415894,-0.08130908757448196,0.27387693524360657
1761469418528532700,0.54553271484375,0.34336692094802856,-0.10012618452310562,0.2952594459056854
1761469418538487600,0.555487548828125,0.33001866936683655,-0.1011122539639473,0.3036290109157562
1761469418548443000,0.56544287109375,0.30107250809669495,-0.07870841771364212,0.2788192629814148
1761469418558397000,0.57539697265625,0.27292490005493164,-0.030188381671905518,0.23224018514156342
1761469418568351700,0.585351806640625,0.24869756400585175,0.03143396973609924,0.18411606550216675
1761469418578306600,0.595306640625,0.22864189743995667,0.08114814013242722,0.15076953172683716
1761469418588261600,0.60526171875,0.2127939611673355,0.10646441578865051,0.14076083898544312
1761469418598216700,0.615216796875,0.19982953369617462,0.09262482821941376,0.15186850726604462
1761469418608171800,0.625171875,0.18391022086143494,0.036533061414957047,0.16411052644252777
1761469418618126600,0.635126708984375,0.162260964512825,-0.048369400203228,0.16734443604946136
1761469418628082000,0.64508203125,0.13488154113292694,-0.11884623765945435,0.15533465147018433
1761469418638036700,0.65503662109375,0.1072404757142067,-0.13642379641532898,0.13332225382328033
1761469418647991600,0.664991455078125,0.07938966900110245,-0.11857583373785019,0.10122609883546829
1761469418657947000,0.67494677734375,0.06552499532699585,-0.09974745661020279,0.05562003329396248
1761469418667901700,0.684901611328125,0.053452614694833755,-0.0823839083313942,0.00634676031768322
1761469418677856800,0.694856689453125,0.04504677280783653,-0.05094980448484421,-0.03051481395959854
1761469418687811600,0.7048115234375,0.031223900616168976,0.011546596884727478,-0.044107586145401
1761469418697766700,0.7147666015625,0.019371723756194115,0.07671740651130676,-0.03873656317591667
1761469418707721700,0.7247216796875,0.016318675130605698,0.11022955924272537,-0.022824706509709358
1761469418717676500,0.734676513671875,0.022643186151981354,0.11424535512924194,-0.0010989443399012089
1761469418727632000,0.7446318359375,0.02773115411400795,0.09767410159111023,0.022966444492340088
1761469418737586700,0.754586669921875,0.02955787070095539,0.047466449439525604,0.039122626185417175
1761469418747541800,0.764541748046875,0.027165019884705544,-0.025808295235037804,0.039654988795518875
1761469418757496800,0.774496826171875,0.0242597833275795,-0.09349244087934494,0.04333871230483055
1761469418767451600,0.78445166015625,0.01915556937456131,-0.11394099146127701,0.05802444741129875
1761469418777406700,0.79440673828125,0.02357439324259758,-0.09301122277975082,0.08034995198249817
1761469418787360800,0.80436083984375,0.019339168444275856,-0.043487079441547394,0.0910864844918251
1761469418797315800,0.81431591796875,0.011815842241048813,-0.007184042129665613,0.08740752190351486
1761469418807270700,0.824270751953125,-0.0032272886019200087,0.02769644372165203,0.0714208334684372
1761469418817225700,0.834225830078125,-0.013289766386151314,0.06433533877134323,0.04659438878297806
1761469418827180500,0.8441806640625,-0.01628582365810871,0.08821084350347519,0.030387457460165024
1761469418837136000,0.854135986328125,-0.018476439639925957,0.08871451020240784,0.024079911410808563
1761469418847090700,0.864090576171875,-0.01807563565671444,0.05268833041191101,0.034034278243780136
1761469418857045800,0.874045654296875,-0.023281635716557503,0.004553965758532286,0.06632019579410553
1761469418867000800,0.884000732421875,-0.037679482251405716,-0.030862081795930862,0.11687258630990982
1761469418876955600,0.89395556640625,-0.05962404981255531,-0.058992691338062286,0.17094802856445312
1761469418886910700,0.90391064453125,-0.08265932649374008,-0.0902416929602623,0.20670416951179504
1761469418896865500,0.913865478515625,-0.10362125188112259,-0.10477583110332489,0.21980082988739014
1761469418906820900,0.92382080078125,-0.11999117583036423,-0.08989941328763962,0.2133392095565796
1761469418916775700,0.933775634765625,-0.130146786570549,-0.05332252383232117,0.1883295774459839
1761469418926730800,0.943730712890625,-0.12946687638759613,-0.015239587053656578,0.1598963439464569
1761469418936685800,0.953685791015625,-0.11415600031614304,0.007063289172947407,0.13349467515945435
1761469418946640600,0.963640625,-0.09366217255592346,0.022176196798682213,0.11943184584379196
1761469418956595700,0.973595703125,-0.06562764942646027,0.02598707005381584,0.11243998259305954
1761469418966550800,0.98355078125,-0.04141739010810852,0.02049802988767624,0.11133157461881638
1761469418976505900,0.993505859375,-0.028685446828603745,0.014030748046934605,0.1148286834359169
1761469418986460700,1.003460693359375,-0.028328049927949905,0.009711367078125477,0.11779624968767166
1761469418996415500,1.01341552734375,-0.04046300798654556,-0.005430473014712334,0.10565546900033951
1761469419006369800,1.023369873046875,-0.06022446230053902,-0.03687627986073494,0.0737428069114685
1761469419016324900,1.033324951171875,-0.08324486017227173,-0.06212317571043968,0.035336557775735855
1761469419026279700,1.04327978515625,-0.10336291044950485,-0.0869012251496315,-0.0003375471569597721
1761469419036234500,1.053234375,-0.11197829991579056,-0.10424339771270752,-0.028742440044879913
1761469419046189800,1.06318994140625,-0.11001954972743988,-0.1023983582854271,-0.04320580139756203
1761469419056144600,1.07314453125,-0.10410208255052567,-0.0866810753941536,-0.04046468809247017
1761469419066099700,1.083099609375,-0.10105782002210617,-0.05897754430770874,-0.02271844819188118
1761469419076054800,1.0930546875,-0.09937252104282379,-0.022776536643505096,0.0014376024482771754
1761469419086009900,1.103009765625,-0.10317471623420715,0.00390087952837348,0.029631957411766052
1761469419095964700,1.112964599609375,-0.11272948980331421,0.006256885826587677,0.043772049248218536
1761469419105919700,1.122919677734375,-0.12525060772895813,-0.014926430769264698,0.045379798859357834
1761469419115874800,1.132874755859375,-0.13233233988285065,-0.03241619095206261,0.03767158091068268
1761469419125829600,1.14282958984375,-0.13771991431713104,-0.04850807413458824,0.022008733823895454
1761469419135785200,1.15278515625,-0.13317903876304626,-0.06565719842910767,0.00020984956063330173
1761469419145740000,1.162739990234375,-0.13555005192756653,-0.07718842476606369,-0.015997882932424545
1761469419155695000,1.172695068359375,-0.14111298322677612,-0.06866692006587982,-0.02986815758049488
1761469419165650200,1.182650146484375,-0.14202484488487244,-0.03561336174607277,-0.03811889886856079
1761469419175605000,1.19260498046875,-0.1396694928407669,0.003446984337642789,-0.03577204421162605
1761469419185560000,1.20256005859375,-0.1300533413887024,0.03732265904545784,-0.023824572563171387
1761469419195515100,1.21251513671875,-0.11233144998550415,0.052484411746263504,-0.01721692830324173
1761469419205470200,1.22247021484375,-0.10405168682336807,0.02159014530479908,-0.02087770774960518
1761469419215424000,1.232424072265625,-0.09863349795341492,-0.036235447973012924,-0.03034619800746441
1761469419225379000,1.242379150390625,-0.09817569702863693,-0.08169721066951752,-0.03912530839443207
1761469419235334100,1.252334228515625,-0.10248371213674545,-0.0908144861459732,-0.04370914027094841
1761469419245289000,1.2622890625,-0.1095496118068695,-0.08150221407413483,-0.03690875694155693
1761469419255244000,1.272244140625,-0.11817149817943573,-0.05300295725464821,-0.03758775070309639
1761469419265199000,1.28219921875,-0.1265825629234314,-0.024400344118475914,-0.04988250136375427
1761469419275154200,1.292154296875,-0.13765336573123932,0.00067338184453547,-0.07574502378702164
1761469419285109000,1.30210888671875,-0.145689457654953,0.01423313282430172,-0.10470636934041977
1761469419295064300,1.312064208984375,-0.14806152880191803,0.02675638161599636,-0.11280450969934464
1761469419305019100,1.32201904296875,-0.13901983201503754,0.0337543711066246,-0.09998804330825806
1761469419314974000,1.331973876953125,-0.13082508742809296,0.03275101259350777,-0.07252762466669083
1761469419324929000,1.341928955078125,-0.11536917090415955,0.027092328295111656,-0.03631316125392914
1761469419334884000,1.351884033203125,-0.1041526049375534,0.028959739953279495,0.001111252699047327
1761469419344839200,1.361839111328125,-0.09365949034690857,0.028846820816397667,0.03824503719806671
1761469419354794000,1.3717939453125,-0.07982474565505981,0.014847836457192898,0.059035804122686386
1761469419364749300,1.381749267578125,-0.06825251132249832,-0.012864219024777412,0.06264598667621613
1761469419374704000,1.3917041015625,-0.061517488211393356,-0.03893309086561203,0.056535933166742325
1761469419384659000,1.401658935546875,-0.05859147384762764,-0.04625598341226578,0.04414903745055199
1761469419394614000,1.411614013671875,-0.0617661252617836,-0.040862925350666046,0.019896885380148888
1761469419404569000,1.421569091796875,-0.07013750821352005,-0.01879570633172989,-0.006487851031124592
1761469419414524200,1.431524169921875,-0.0718236044049263,0.005626781843602657,-0.04033750295639038
1761469419424479000,1.44147900390625,-0.06919160485267639,0.015747591853141785,-0.06655552983283997
1761469419434433000,1.45143310546875,-0.07043401896953583,0.010833497159183025,-0.07737841457128525
1761469419444388000,1.46138818359375,-0.07578936964273453,-0.017304928973317146,-0.08040589839220047
1761469419454343200,1.47134326171875,-0.07873992621898651,-0.06517527997493744,-0.07375393062829971
1761469419464298000,1.481298095703125,-0.08106033504009247,-0.10746628046035767,-0.06431356072425842
1761469419474253000,1.491253173828125,-0.08327241986989975,-0.1388339102268219,-0.05409858748316765
1761469419484208000,1.5012080078125,-0.0891561433672905,-0.15493431687355042,-0.056124188005924225
1761469419494163000,1.511162841796875,-0.08933734148740768,-0.15138821303844452,-0.07325436174869537
1761469419504118300,1.5211181640625,-0.08804836869239807,-0.13581830263137817,-0.09816370159387589
1761469419514073000,1.531072998046875,-0.08714375644922256,-0.10815414041280746,-0.11881187558174133
1761469419524028200,1.541028076171875,-0.08684707432985306,-0.08268740028142929,-0.12905067205429077
1761469419533983000,1.55098291015625,-0.07652045786380768,-0.05782141536474228,-0.1209082081913948
1761469419543938000,1.56093798828125,-0.06784361600875854,-0.04358468949794769,-0.09462627023458481
1761469419553893000,1.57089306640625,-0.05856696516275406,-0.05229593440890312,-0.06356273591518402
1761469419563848000,1.580847900390625,-0.04937347024679184,-0.0862128883600235,-0.03671647980809212
1761469419573803300,1.59080322265625,-0.04855770990252495,-0.11829251796007156,-0.016217101365327835
1761469419583758000,1.600758056640625,-0.05601935461163521,-0.13822627067565918,-0.01053045317530632
1761469419593713200,1.610713134765625,-0.06957040727138519,-0.14001207053661346,-0.016902673989534378
1761469419603668200,1.620668212890625,-0.0946137085556984,-0.1223587691783905,-0.03287551552057266
1761469419613623000,1.630623046875,-0.11365333199501038,-0.09357462078332901,-0.04977110028266907
1761469419623578000,1.640578125,-0.12551531195640564,-0.07451117783784866,-0.06793812662363052
1761469419633533000,1.650532958984375,-0.12193795293569565,-0.06514258682727814,-0.08544517308473587
1761469419643488300,1.66048828125,-0.10878992825746536,-0.05590514838695526,-0.09927736967802048
1761469419653442000,1.670442138671875,-0.10368484258651733,-0.041667383164167404,-0.10769215226173401
1761469419663397000,1.680397216796875,-0.09389239549636841,-0.023601029068231583,-0.10036206990480423
1761469419673352000,1.69035205078125,-0.09676441550254822,-0.004719800781458616,-0.0848834365606308
1761469419683307300,1.700307373046875,-0.10214932262897491,-0.01775437593460083,-0.06507457792758942
1761469419693262000,1.710261962890625,-0.0951494351029396,-0.059827953577041626,-0.03502453491091728
1761469419703217200,1.720217041015625,-0.09723681956529617,-0.11796130239963531,-0.011673138476908207
1761469419713172200,1.730172119140625,-0.10393013805150986,-0.16952824592590332,-0.00205962173640728
1761469419723127000,1.740126953125,-0.10970786958932877,-0.18599511682987213,-0.009293566457927227
1761469419733082000,1.75008203125,-0.11770621687173843,-0.1654128134250641,-0.036202408373355865
1761469419743037000,1.760036865234375,-0.11290107667446136,-0.13161996006965637,-0.07270129770040512
1761469419752992300,1.7699921875,-0.10890411585569382,-0.09419815987348557,-0.10008411109447479
1761469419762947000,1.779947021484375,-0.10965485870838165,-0.06166711449623108,-0.11104541271924973
1761469419772902000,1.78990185546875,-0.09996307641267776,-0.033977240324020386,-0.09765896201133728
1761469419782857200,1.799857177734375,-0.07642658799886703,-0.005736545193940401,-0.058338720351457596
1761469419792812000,1.80981201171875,-0.044956646859645844,0.010515601374208927,0.0010080775246024132
1761469419802767000,1.81976708984375,-0.01301123108714819,0.00881810300052166,0.0668262392282486
1761469419812722200,1.82972216796875,0.007973186671733856,-0.03591996803879738,0.11288294196128845
1761469419822677200,1.83967724609375,0.009633667767047882,-0.10520903021097183,0.12318911403417587
1761469419832632000,1.849632080078125,-0.003719052067026496,-0.1792609989643097,0.09562904387712479
1761469419842587000,1.8595869140625,-0.03614596650004387,-0.229055717587471,0.026010552421212196
1761469419852542200,1.869542236328125,-0.07449882477521896,-0.23500894010066986,-0.06852839142084122
1761469419862497000,1.8794970703125,-0.10886931419372559,-0.19528575241565704,-0.14485910534858704
1761469419872452000,1.8894521484375,-0.11465335637331009,-0.09906686842441559,-0.17968420684337616
1761469419882407200,1.8994072265625,-0.11943133920431137,0.032175567001104355,-0.15739887952804565
1761469419892362200,1.9093623046875,-0.12400908023118973,0.18318389356136322,-0.08428791165351868
1761469419902316000,1.91931591796875,-0.08625824004411697,0.24626432359218597,0.006651313044130802
1761469419912271000,1.92927099609375,-0.034853216260671616,0.2753623127937317,0.09908860176801682
1761469419922226200,1.93922607421875,0.10645651072263718,0.22246259450912476,0.17827370762825012
1761469419932181000,1.949180908203125,0.37634381651878357,0.12490250170230865,0.27644506096839905
1761469419942136000,1.959135986328125,0.5629720091819763,0.11024153232574463,0.3040708303451538
1761469419952091000,1.9690908203125,0.597038984298706,0.15304870903491974,0.249258354306221
1761469419962046200,1.979046142578125,0.5693492889404297,-0.016560038551688194,0.10824797302484512
1761469419972001000,1.9890009765625,0.47007739543914795,-0.19206608831882477,-0.05844942852854729
1761469419981956000,1.9989560546875,0.3342644274234772,-0.4372100830078125,-0.15444226562976837
1761469419991911200,2.0089111328125,0.23518508672714233,-0.6273580193519592,-0.12092380225658417
1761469420001866000,2.018865966796875,0.24061927199363708,-0.5615268349647522,0.031145092099905014
1761469420011821000,2.028821044921875,0.3039030134677887,-0.495313823223114,0.1518019288778305
1761469420021776100,2.038776123046875,0.5144091248512268,-0.3859061002731323,0.30274698138237
1761469420031731200,2.048731201171875,0.7984310984611511,0.056884635239839554,0.48099255561828613
1761469420041686000,2.05868603515625,0.9617276191711426,0.9479863047599792,0.6530151963233948
1761469420051641000,2.06864111328125,0.9232497811317444,1.342868447303772,0.8656711578369141
1761469420061596200,2.07859619140625,0.83405601978302,0.9005075097084045,1.1875579357147217
1761469420071551000,2.088551025390625,0.8289111852645874,-0.14371681213378906,1.5400772094726562
1761469420081506000,2.098506103515625,0.9656714797019958,-1.7022764682769775,1.5362249612808228
1761469420091461000,2.108461181640625,1.2200534343719482,-2.427340030670166,1.5674254894256592
1761469420101416200,2.118416259765625,1.485040545463562,-2.4835121631622314,1.9041941165924072
1761469420111371000,2.12837109375,1.972061276435852,-1.5848878622055054,2.275087356567383
1761469420121326300,2.138326416015625,2.5572566986083984,-0.3181058168411255,2.6178600788116455
1761469420131280400,2.1482802734375,3.2151753902435303,0.8966429829597473,2.9528110027313232
1761469420141235700,2.158235595703125,3.9919939041137695,1.6690363883972168,3.3175721168518066
1761469420151190500,2.1681904296875,4.512042045593262,0.9987534880638123,3.294609308242798
1761469420161145300,2.178145263671875,4.424171447753906,-0.40466180443763733,2.6329903602600098
1761469420171100400,2.188100341796875,3.990772008895874,-1.42678701877594,1.8311234712600708
1761469420181055500,2.198055419921875,3.5696568489074707,-2.2557222843170166,1.2783479690551758
1761469420191009500,2.208009521484375,3.0539941787719727,-3.2525084018707275,0.7461416125297546
1761469420200964400,2.21796435546875,2.2900102138519287,-4.055212497711182,0.09593614935874939
1761469420210919400,2.22791943359375,1.4055472612380981,-4.445556640625,-0.5470080375671387
1761469420220874500,2.23787451171875,0.6151601076126099,-4.145725727081299,-1.0707330703735352
1761469420230829600,2.24782958984375,0.011665135622024536,-3.3126323223114014,-1.3863674402236938
1761469420240784400,2.257784423828125,-0.14380541443824768,-1.9352079629898071,-1.1242623329162598
1761469420250739500,2.267739501953125,-0.20917023718357086,-0.3678242564201355,-0.6685857772827148
1761469420260694500,2.277694580078125,-0.35497406125068665,0.18852020800113678,-0.5238943696022034
1761469420270649300,2.2876494140625,-0.5751766562461853,-0.3015124499797821,-0.6675881743431091
1761469420280604400,2.2976044921875,-0.5948038697242737,-0.892720639705658,-0.952640950679779
1761469420290559500,2.3075595703125,-0.04265216365456581,-0.931477963924408,-1.1442227363586426
1761469420300514600,2.3175146484375,1.2583467960357666,0.26853254437446594,-0.9514365196228027
1761469420310469400,2.327469482421875,1.8622883558273315,0.7964251041412354,-0.6354125142097473
1761469420320424400,2.337424560546875,1.332605004310608,1.1242659091949463,-0.2709575593471527
1761469420330379500,2.347379638671875,0.8286265730857849,1.2959450483322144,0.19712288677692413
1761469420340334300,2.357334228515625,0.44681259989738464,1.2958382368087769,0.9000767469406128
1761469420350289700,2.36728955078125,-0.288582444190979,1.0822786092758179,1.7710602283477783
1761469420360244500,2.377244384765625,-1.1440253257751465,0.5970921516418457,2.485194683074951
1761469420370199600,2.387199462890625,-1.9300787448883057,0.1807071566581726,2.845625400543213
1761469420380154400,2.397154296875,-2.399000406265259,0.07790566980838776,2.8519182205200195
1761469420390109400,2.407109375,-2.5750741958618164,0.1703653484582901,2.5470352172851562
1761469420400064500,2.417064453125,-2.5852608680725098,0.36727094650268555,2.0459539890289307
1761469420410019300,2.427019287109375,-2.549250364303589,0.6457279324531555,1.4427002668380737
1761469420419974700,2.436974609375,-2.4976792335510254,0.5593403577804565,0.821478009223938
1761469420429929500,2.446929443359375,-2.478940963745117,0.37831729650497437,0.23363322019577026
1761469420439884500,2.456884521484375,-2.552994966506958,-0.04546220228075981,-0.18070857226848602
1761469420449839400,2.46683935546875,-2.668452262878418,-0.7204983234405518,-0.364246666431427
1761469420459794400,2.47679443359375,-2.7898671627044678,-1.4441180229187012,-0.38953152298927307
1761469420469749500,2.48674951171875,-3.0048716068267822,-1.896116018295288,-0.3667600750923157
1761469420479704300,2.496704345703125,-3.432389259338379,-1.5322680473327637,-0.5095654726028442
1761469420489659600,2.50665966796875,-3.8175952434539795,-1.36147141456604,-0.61280357837677
1761469420499613400,2.516613525390625,-3.9906044006347656,-1.2451168298721313,-0.900397539138794
1761469420509568500,2.526568603515625,-3.948342800140381,-1.5712342262268066,-1.2902073860168457
1761469420519523300,2.5365234375,-3.906248092651367,-2.607508897781372,-1.6824043989181519
1761469420529478700,2.546478759765625,-3.9528183937072754,-3.9979629516601562,-1.8893723487854004
1761469420539433500,2.55643359375,-4.043503284454346,-5.086390495300293,-1.867085337638855
1761469420549388300,2.56638818359375,-4.365348815917969,-5.335107803344727,-1.8911705017089844
1761469420559343600,2.576343505859375,-4.831844806671143,-4.646378517150879,-2.3083038330078125
1761469420569298400,2.58629833984375,-5.145723342895508,-3.6948773860931396,-3.1261000633239746
1761469420579253500,2.59625341796875,-4.993315696716309,-2.9929006099700928,-3.7411773204803467
1761469420589208300,2.606208251953125,-4.420172691345215,-2.860154151916504,-3.4885358810424805
1761469420599163600,2.61616357421875,-3.6777236461639404,-3.264023780822754,-2.181305170059204
1761469420609118500,2.626118408203125,-3.069188117980957,-4.164188385009766,-0.1007208377122879
1761469420619073300,2.6360732421875,-2.4976966381073,-5.583698272705078,1.8228689432144165
1761469420629028600,2.646028564453125,-1.8354346752166748,-6.731581211090088,3.0516200065612793
1761469420638983400,2.6559833984375,-1.2762105464935303,-7.12259578704834,3.6369993686676025
1761469420648938500,2.6659384765625,-1.0452666282653809,-7.139030933380127,3.9299793243408203
1761469420658893600,2.6758935546875,-1.0772764682769775,-7.209061622619629,4.356759548187256
1761469420668848600,2.6858486328125,-1.030965805053711,-7.192395210266113,5.085635185241699
1761469420678803500,2.695803466796875,-1.1568111181259155,-7.375800609588623,5.691670894622803
1761469420688758300,2.70575830078125,-1.4131778478622437,-7.197620391845703,6.057028770446777
1761469420698713600,2.715713623046875,-1.4806016683578491,-6.5109028816223145,6.24719762802124
1761469420708668400,2.72566845703125,-1.564526915550232,-5.998203754425049,6.073211669921875
1761469420718623500,2.73562353515625,-1.747348427772522,-5.52264404296875,5.59336519241333
1761469420728578600,2.74557861328125,-1.9551911354064941,-5.090020179748535,4.890979766845703
1761469420738533400,2.755533447265625,-2.1811776161193848,-4.617996692657471,4.027949810028076
1761469420748488400,2.765488525390625,-2.4363555908203125,-4.033071517944336,3.070025682449341
1761469420758443300,2.775443359375,-2.766345262527466,-3.289806842803955,2.1025350093841553
1761469420768398600,2.785398681640625,-3.1776745319366455,-2.3652753829956055,1.265931248664856
1761469420778353400,2.795353515625,-3.5304582118988037,-1.4511892795562744,0.7010344862937927
1761469420788308500,2.80530859375,-3.712432861328125,-0.8022327423095703,0.4758908748626709
1761469420798263600,2.815263671875,-3.64534592628479,-0.5066942572593689,0.5385401248931885
1761469420808217600,2.825217529296875,-3.3987607955932617,-0.5698203444480896,0.8393621444702148
1761469420818172400,2.83517236328125,-3.1079180240631104,-0.981109619140625,1.2524641752243042
1761469420828127500,2.84512744140625,-2.809861660003662,-1.5625427961349487,1.6468286514282227
1761469420838082600,2.85508251953125,-2.4805872440338135,-2.0045320987701416,1.9408906698226929
1761469420848037400,2.865037353515625,-2.1113624572753906,-2.2229342460632324,2.0283589363098145
1761469420857992400,2.874992431640625,-1.7235966920852661,-2.2093663215637207,1.9058679342269897
1761469420867947500,2.884947509765625,-1.3334078788757324,-1.9943970441818237,1.5779308080673218
1761469420877902600,2.894902587890625,-0.9671761393547058,-1.7019579410552979,1.1285088062286377
1761469420887857400,2.904857421875,-0.6043176651000977,-1.422054648399353,0.6436188220977783
1761469420897812500,2.9148125,-0.23669646680355072,-1.2506769895553589,0.2258377969264984
1761469420907767600,2.924767578125,0.13472145795822144,-1.27625572681427,-0.1682240515947342
1761469420917722400,2.934722412109375,0.43869549036026,-1.3814358711242676,-0.46125325560569763
1761469420927677400,2.944677490234375,0.658632755279541,-1.499038577079773,-0.6648547649383545
1761469420937632500,2.954632568359375,0.7861630320549011,-1.5059665441513062,-0.7726389765739441
1761469420947587600,2.964587646484375,0.8858194351196289,-1.503662109375,-0.86480313539505
1761469420957542400,2.97454248046875,0.9628838300704956,-1.4333008527755737,-1.0007847547531128
1761469420967497500,2.98449755859375,0.9923728704452515,-1.2897934913635254,-1.1710718870162964
1761469420977452500,2.99445263671875,0.9899909496307373,-1.1249619722366333,-1.3643091917037964
1761469420987407400,3.004407470703125,0.991251528263092,-0.9987382888793945,-1.5521646738052368
1761469420997362400,3.014362548828125,0.9850226640701294,-0.993915319442749,-1.7326524257659912
1761469421007317500,3.0243173828125,0.9632062911987305,-1.1344093084335327,-1.8854533433914185
1761469421017272600,3.0342724609375,0.9271252751350403,-1.4615459442138672,-1.9998042583465576
1761469421027227400,3.044227294921875,0.8745608329772949,-1.8575292825698853,-2.1041054725646973
1761469421037182500,3.054182373046875,0.8414798378944397,-2.122269630432129,-2.230621576309204
1761469421047137500,3.064137451171875,0.8302876353263855,-2.240739107131958,-2.3019297122955322
1761469421057092400,3.07409228515625,0.8920220732688904,-2.310662031173706,-2.42940616607666
1761469421067047400,3.08404736328125,0.8775804042816162,-2.015165090560913,-2.661966323852539
1761469421077002500,3.09400244140625,0.6768909692764282,-1.6364768743515015,-2.951706886291504
1761469421086957600,3.10395751953125,0.32861417531967163,-1.341729998588562,-2.9758403301239014
1761469421096912400,3.113912353515625,0.010358693078160286,-1.1944444179534912,-2.6516640186309814
1761469421106867500,3.123867431640625,0.07980487495660782,-1.4348549842834473,-2.1098430156707764
1761469421116822500,3.133822509765625,0.7066081762313843,-2.2807674407958984,-1.7573717832565308
1761469421126777300,3.14377734375,1.321812391281128,-3.359912872314453,-1.9716906547546387
1761469421136733000,3.15373291015625,1.4276446104049683,-3.701678514480591,-2.500626564025879
1761469421146687000,3.16368701171875,1.088156819343567,-3.3486204147338867,-3.0340256690979004
1761469421156642000,3.17364208984375,0.7497736811637878,-2.890437364578247,-3.1901800632476807
1761469421166597000,3.18359716796875,0.8879980444908142,-3.0153486728668213,-2.7469863891601562
1761469421176552000,3.193552001953125,1.368773102760315,-3.745694637298584,-1.8591344356536865
1761469421186507000,3.203507080078125,1.4846047163009644,-4.322364330291748,-0.7651690244674683
1761469421196461800,3.2134619140625,0.7391361594200134,-4.077549457550049,0.22193828225135803
1761469421206417200,3.223417236328125,-0.2654096186161041,-3.4515764713287354,0.9372164011001587
1761469421216372000,3.2333720703125,-0.8634287714958191,-3.0540425777435303,1.4172292947769165
1761469421226327000,3.2433271484375,-1.0269418954849243,-3.0636682510375977,1.7901673316955566
1761469421236282000,3.2532822265625,-0.9820026755332947,-3.2927465438842773,2.2570688724517822
1761469421246237000,3.26323681640625,-0.8234567046165466,-3.7984795570373535,2.965329647064209
1761469421256192000,3.27319189453125,-1.0764261484146118,-4.281959056854248,3.6491804122924805
1761469421266146800,3.283146728515625,-1.5228039026260376,-4.653797626495361,4.249236583709717
1761469421276102100,3.29310205078125,-2.040235996246338,-4.455132961273193,4.877314567565918
1761469421286057000,3.303056884765625,-2.5693306922912598,-4.2264204025268555,5.0832085609436035
1761469421296012000,3.313011962890625,-3.0885581970214844,-3.9366836547851562,4.864422798156738
1761469421305967000,3.322967041015625,-3.277763605117798,-3.5721969604492188,4.401866912841797
1761469421315922000,3.332921875,-3.2631311416625977,-3.1773905754089355,3.7799932956695557
1761469421325877000,3.342876953125,-3.0381665229797363,-2.8534812927246094,3.166184663772583
1761469421335832000,3.35283203125,-2.740673542022705,-2.793839931488037,2.589677095413208
1761469421345787100,3.362787109375,-2.527397632598877,-2.9655861854553223,2.0225865840911865
1761469421355742000,3.372741943359375,-2.4513895511627197,-3.2008538246154785,1.4594115018844604
1761469421365697000,3.382697021484375,-2.336853504180908,-3.181316375732422,1.0013301372528076
1761469421375652000,3.392652099609375,-1.976238489151001,-2.94873046875,0.8077390193939209
1761469421385607000,3.40260693359375,-1.471055507659912,-2.761962890625,0.9380649328231812
1761469421395562000,3.41256201171875,-1.0551488399505615,-2.823988199234009,1.3139890432357788
1761469421405517000,3.42251708984375,-0.84006267786026,-3.0449564456939697,1.796220302581787
1761469421415472000,3.43247216796875,-0.7254868149757385,-3.1929662227630615,2.2352006435394287
1761469421425427000,3.442427001953125,-0.6043720245361328,-3.2072806358337402,2.514284372329712
1761469421435382000,3.452382080078125,-0.5088796019554138,-3.118356943130493,2.5684211254119873
1761469421445337000,3.462337158203125,-0.47759810090065,-2.9395620822906494,2.388049602508545
1761469421455292000,3.4722919921875,-0.43838784098625183,-2.719407796859741,2.0162596702575684
1761469421465246000,3.482245849609375,-0.28716182708740234,-2.5249383449554443,1.449701189994812
1761469421475201000,3.492200927734375,0.017740555107593536,-2.332322835922241,0.752921462059021
1761469421485156000,3.502156005859375,0.4108814299106598,-2.1183204650878906,0.01009447779506445
1761469421495111000,3.51211083984375,0.7780616283416748,-1.9279261827468872,-0.7219163775444031
1761469421505066000,3.52206591796875,1.0500731468200684,-1.7900208234786987,-1.348299264907837
1761469421515021000,3.53202099609375,1.2898787260055542,-1.7547762393951416,-1.8154011964797974
1761469421524976000,3.54197607421875,1.5311899185180664,-1.811791181564331,-2.1478004455566406
1761469421534931000,3.551930908203125,1.767167568206787,-1.8846101760864258,-2.3796887397766113
1761469421544886000,3.561885986328125,2.0119190216064453,-1.9261821508407593,-2.465399980545044
1761469421554841000,3.571841064453125,2.272991895675659,-1.8700534105300903,-2.4014313220977783
1761469421564796000,3.5817958984375,2.5654382705688477,-1.7295570373535156,-2.269850730895996
1761469421574751000,3.5917509765625,2.8306093215942383,-1.6571393013000488,-2.1980490684509277
1761469421584706000,3.6017060546875,2.9544994831085205,-1.669378399848938,-2.1727607250213623
1761469421594661000,3.6116611328125,2.897367000579834,-1.787282943725586,-2.184454917907715
1761469421604616000,3.621615966796875,2.6807382106781006,-2.0577566623687744,-2.210937738418579
1761469421614571000,3.631571044921875,2.3901586532592773,-2.500011920928955,-2.1881954669952393
1761469421624526000,3.641526123046875,2.1679346561431885,-2.8482959270477295,-2.021888256072998
1761469421634481000,3.65148095703125,2.1826608180999756,-2.8945581912994385,-1.7975845336914062
1761469421644436200,3.661436279296875,2.4153714179992676,-2.785548686981201,-1.658713936805725
1761469421654391000,3.67139111328125,2.5207297801971436,-2.7003467082977295,-1.7283813953399658
1761469421664345900,3.681345947265625,2.3141818046569824,-2.9001524448394775,-2.0486137866973877
1761469421674301000,3.691301025390625,1.948193073272705,-3.1572985649108887,-2.5622615814208984
1761469421684256000,3.701256103515625,1.9624966382980347,-3.233576536178589,-3.1480050086975098
1761469421694211000,3.711211181640625,2.951521158218384,-3.2233612537384033,-3.6376051902770996
1761469421704166000,3.721165771484375,4.591149806976318,-3.2621676921844482,-3.9868502616882324
1761469421714121200,3.731121337890625,5.74470853805542,-3.003145217895508,-4.212314605712891
1761469421724076000,3.741075927734375,5.185173511505127,-2.4026849269866943,-4.392690181732178
1761469421734030800,3.75103076171875,3.456789016723633,-2.2070600986480713,-4.334855079650879
1761469421743986200,3.760986083984375,1.6313999891281128,-2.2966063022613525,-3.733558416366577
1761469421753941000,3.77094091796875,0.41099148988723755,-2.7098777294158936,-2.5251200199127197
1761469421763896000,3.78089599609375,-0.21664026379585266,-3.0473949909210205,-0.9700332880020142
1761469421773851000,3.790850830078125,-0.7086400985717773,-3.2079544067382812,0.612909197807312
1761469421783806200,3.80080615234375,-1.4439228773117065,-3.405221700668335,1.7896575927734375
1761469421793760000,3.810760009765625,-2.0835981369018555,-3.664674997329712,2.463752508163452
1761469421803715000,3.820715087890625,-2.391512155532837,-3.9287667274475098,2.6587109565734863
1761469421813670000,3.830669921875,-2.5184316635131836,-4.023618221282959,2.6251165866851807
1761469421823625000,3.840625,-2.6653685569763184,-3.99119234085083,2.58127498626709
1761469421833580000,3.850580078125,-2.977505683898926,-3.9162962436676025,2.5700628757476807
1761469421843534800,3.860534912109375,-3.316498279571533,-3.6764614582061768,2.6274373531341553
1761469421853490200,3.870490234375,-3.733281373977661,-3.3680970668792725,2.654231071472168
1761469421863445000,3.880445068359375,-4.181190013885498,-3.163113594055176,2.6850593090057373
1761469421873400000,3.890400146484375,-4.525711536407471,-3.1558678150177,2.8194937705993652
1761469421883355000,3.90035498046875,-4.686732292175293,-3.231337785720825,2.9324402809143066
1761469421893310000,3.91031005859375,-4.6080708503723145,-3.1134188175201416,2.8590431213378906
1761469421903265000,3.92026513671875,-4.391930103302002,-2.8812530040740967,2.5610077381134033
1761469421913219800,3.9302197265625,-4.099420070648193,-2.610013484954834,2.132723093032837
1761469421923175200,3.940175048828125,-3.700165033340454,-2.284330368041992,1.719136357307434
1761469421933130000,3.9501298828125,-3.238933801651001,-1.9372285604476929,1.3261629343032837
1761469421943085000,3.9600849609375,-2.8421285152435303,-1.6970845460891724,0.9284830689430237
1761469421953040100,3.9700400390625,-2.6093130111694336,-1.8640881776809692,0.6418108344078064
1761469421962995000,3.979994873046875,-2.442378044128418,-2.3922438621520996,0.6858444213867188
1761469421972950000,3.989949951171875,-2.230264902114868,-2.897584915161133,1.0478780269622803
1761469421990992100,4.0079921875,-1.990925908088684,-3.5239145755767822,1.9359501600265503
1761469422000947000,4.017947021484375,-1.9239195585250854,-3.6976325511932373,2.280226945877075
1761469422010902000,4.027902099609375,-1.7991118431091309,-3.644228458404541,2.434329032897949
1761469422020857000,4.037857177734375,-1.5931516885757446,-3.3908140659332275,2.429927110671997
1761469422030812000,4.04781201171875,-1.2725419998168945,-3.0702433586120605,2.29203462600708
1761469422040767000,4.05776708984375,-0.8706868290901184,-2.75108003616333,2.011566162109375
1761469422050722000,4.06772216796875,-0.37131643295288086,-2.459484577178955,1.5914247035980225
1761469422060677000,4.077677001953125,0.21919648349285126,-2.2310314178466797,1.035262942314148
1761469422070632000,4.0876318359375,0.8089278936386108,-2.0701019763946533,0.4124278426170349
1761469422080587000,4.0975869140625,1.3093554973602295,-1.9984039068222046,-0.16084401309490204
1761469422090542000,4.1075419921875,1.6562325954437256,-2.0138778686523438,-0.5911328196525574
1761469422100497000,4.117496826171875,1.8754435777664185,-2.0522232055664062,-0.8499206304550171
1761469422110452000,4.127451904296875,2.056144952774048,-2.0520083904266357,-0.9643737077713013
1761469422120407000,4.137406982421875,2.239914894104004,-1.9783222675323486,-0.9674021601676941
1761469422130362000,4.147362060546875,2.449446201324463,-1.8235836029052734,-0.8838989734649658
1761469422140317000,4.15731689453125,2.6531496047973633,-1.6076444387435913,-0.806570827960968
1761469422150272000,4.16727197265625,2.816070556640625,-1.3727017641067505,-0.7809336185455322
1761469422160226800,4.177226806640625,2.894352674484253,-1.0848525762557983,-0.820217490196228
1761469422170181600,4.187181640625,2.9111521244049072,-0.7299667000770569,-0.9118318557739258
1761469422180137000,4.197136962890625,2.896260976791382,-0.44137972593307495,-1.0802254676818848
1761469422190091800,4.207091796875,2.7747058868408203,-0.27180054783821106,-1.2698822021484375
1761469422200046800,4.217046875,2.6030678749084473,-0.2724785804748535,-1.4791465997695923
1761469422210002000,4.227001953125,2.4907965660095215,-0.3200184106826782,-1.690165400505066
1761469422219957000,4.23695703125,2.490039587020874,-0.26574841141700745,-1.7975988388061523
1761469422229911800,4.246911865234375,2.4897873401641846,-0.15702593326568604,-1.8079231977462769
1761469422239866600,4.25686669921875,2.262096405029297,-0.03870570287108421,-1.6899629831314087
1761469422249822000,4.266822021484375,1.9735562801361084,-0.2444058656692505,-1.5170023441314697
1761469422259776800,4.27677685546875,2.136423349380493,-0.9494757056236267,-1.411605954170227
1761469422269731800,4.28673193359375,2.869370460510254,-1.8810664415359497,-1.3121070861816406
1761469422279687000,4.29668701171875,3.92053484916687,-2.8529694080352783,-1.1639294624328613
1761469422289642000,4.30664208984375,4.654337406158447,-3.3064510822296143,-0.8601980209350586
1761469422299595800,4.316595703125,4.654479026794434,-3.183807611465454,-0.7051030397415161
1761469422309550800,4.32655078125,4.507867336273193,-2.916703224182129,-1.1352291107177734
1761469422319506000,4.336505859375,4.4465436935424805,-2.772749662399292,-2.025413751602173
1761469422330083800,4.347083740234375,4.11625337600708,-2.8912265300750732,-3.0353775024414062
1761469422340038700,4.35703857421875,3.716599225997925,-3.0044312477111816,-3.6990318298339844
1761469422349994000,4.366993896484375,3.1602704524993896,-2.873304605484009,-3.8119068145751953
1761469422359948800,4.37694873046875,2.368171215057373,-2.5937983989715576,-3.28550386428833
1761469422369903900,4.38690380859375,1.139888048171997,-2.3806169033050537,-2.2179930210113525
1761469422379858700,4.396858642578125,-0.45516568422317505,-2.589118719100952,-0.7586268186569214
1761469422389814000,4.40681396484375,-1.768770456314087,-3.3767330646514893,0.9370208382606506
1761469422399768800,4.416768798828125,-2.5388882160186768,-4.274060249328613,2.5167438983917236
1761469422409723600,4.4267236328125,-3.0145843029022217,-4.841972827911377,3.595567226409912
1761469422419679000,4.436678955078125,-3.3947508335113525,-5.1293134689331055,3.997234582901001
1761469422429633800,4.4466337890625,-3.9492228031158447,-5.055247783660889,3.836167097091675
1761469422439588900,4.4565888671875,-4.639483451843262,-4.724358558654785,3.341176986694336
1761469422449544000,4.4665439453125,-5.1745710372924805,-4.34110164642334,2.9291462898254395
1761469422459499000,4.4764990234375,-5.6270670890808105,-3.7459702491760254,2.7517447471618652
1761469422469453800,4.486453857421875,-6.080991268157959,-3.2110538482666016,2.8427584171295166
1761469422479408600,4.49640869140625,-6.32158899307251,-2.6565396785736084,3.030669927597046
1761469422489364000,4.506364013671875,-6.26699686050415,-1.9173024892807007,3.3062734603881836
1761469422499318800,4.51631884765625,-6.034136772155762,-1.265462040901184,3.5406761169433594
1761469422509273900,4.52627392578125,-5.6507487297058105,-0.7419564723968506,3.457564115524292
1761469422519229000,4.53622900390625,-5.210475921630859,-0.276665061712265,3.079416513442993
1761469422529183700,4.546183837890625,-4.673640727996826,0.0748695582151413,2.757538080215454
1761469422539138800,4.556138916015625,-4.047847270965576,0.21749334037303925,2.6993215084075928
1761469422549094000,4.566093994140625,-3.4227705001831055,0.02442215010523796,2.7641077041625977
1761469422559049000,4.576049072265625,-2.826491117477417,-0.38585618138313293,2.8979601860046387
1761469422569002800,4.586002685546875,-2.223092555999756,-0.8590477108955383,3.016055107116699
1761469422578957800,4.595957763671875,-1.5974596738815308,-1.2746894359588623,2.8964650630950928
1761469422588913000,4.605912841796875,-0.9787093997001648,-1.5436646938323975,2.511791229248047
1761469422598868000,4.615867919921875,-0.4316096305847168,-1.634077548980713,1.9620245695114136
1761469422608822800,4.62582275390625,0.1244744062423706,-1.5798430442810059,1.2933117151260376
1761469422618777900,4.63577783203125,0.6608938574790955,-1.37814199924469,0.6219121813774109
1761469422628733000,4.64573291015625,1.1741400957107544,-1.137535810470581,0.0804651603102684
1761469422638687700,4.655687744140625,1.676181435585022,-1.1015138626098633,-0.3707154095172882
1761469422648642800,4.665642822265625,2.104109525680542,-1.2392067909240723,-0.77498459815979
1761469422658598000,4.675597900390625,2.438844680786133,-1.3964755535125732,-1.1541600227355957
1761469422668553000,4.685552978515625,2.669966697692871,-1.475043535232544,-1.5187371969223022
1761469422678507800,4.6955078125,2.7471580505371094,-1.555245041847229,-1.871533751487732
1761469422688462800,4.705462890625,2.652484178543091,-1.5894056558609009,-2.1877944469451904
1761469422698418000,4.71541796875,2.4457764625549316,-1.4711805582046509,-2.3961355686187744
1761469422708372700,4.725372802734375,2.2032313346862793,-1.304593801498413,-2.5054068565368652
1761469422718327800,4.735327880859375,1.9530307054519653,-1.165128231048584,-2.5047359466552734
1761469422728283000,4.745282958984375,1.7328588962554932,-1.0016239881515503,-2.3907406330108643
1761469422738238000,4.755238037109375,1.5636690855026245,-0.831692636013031,-2.1770219802856445
1761469422748192800,4.76519287109375,1.463661789894104,-0.8426251411437988,-1.9120184183120728
1761469422758147800,4.77514794921875,1.4377814531326294,-1.0284241437911987,-1.6418853998184204
1761469422768103000,4.78510302734375,1.4759151935577393,-1.309857964515686,-1.4362601041793823
1761469422778057700,4.7950576171875,1.473945140838623,-1.5859763622283936,-1.3140345811843872
1761469422788012800,4.8050126953125,1.4133113622665405,-1.7884349822998047,-1.2656002044677734
1761469422797968000,4.8149677734375,1.3293323516845703,-1.8049768209457397,-1.3812319040298462
1761469422807923000,4.8249228515625,1.1861381530761719,-1.6089617013931274,-1.6610031127929688
1761469422817877800,4.834877685546875,1.0580427646636963,-1.2803624868392944,-2.034574508666992
1761469422827832800,4.844832763671875,0.9573503136634827,-0.8642290830612183,-2.3747243881225586
1761469422837788000,4.854787841796875,0.9880735874176025,-0.6838296055793762,-2.463808536529541
1761469422847742700,4.86474267578125,1.3845425844192505,-1.1102330684661865,-2.3267436027526855
1761469422857698000,4.874697998046875,2.4421145915985107,-1.8867404460906982,-2.198195695877075
1761469422867652900,4.88465283203125,3.893751382827759,-2.7859883308410645,-2.4550623893737793
1761469422877608000,4.89460791015625,4.9549784660339355,-3.368216037750244,-3.2119781970977783
1761469422887562800,4.904562744140625,5.026270389556885,-3.123826742172241,-4.022559642791748
1761469422897517800,4.914517822265625,4.187102317810059,-2.0884554386138916,-4.495197296142578
1761469422907473000,4.924472900390625,2.98710298538208,-1.1670562028884888,-4.776881217956543
1761469422917427700,4.934427734375,2.1391379833221436,-0.5456121563911438,-4.729842185974121
1761469422927383000,4.944383056640625,1.5783979892730713,-0.3995007276535034,-4.459371089935303
1761469422937337900,4.954337890625,0.9722639918327332,-0.28288596868515015,-3.946098566055298
1761469422947293000,4.96429296875,0.39020776748657227,-0.28252992033958435,-3.2993898391723633
1761469422957247700,4.974247802734375,-0.048169370740652084,-0.4904003143310547,-2.426530122756958
1761469422967202800,4.984202880859375,-0.16202403604984283,-0.8370389342308044,-1.4301552772521973
1761469422977158000,4.994157958984375,-0.2663330137729645,-0.9678664207458496,-0.6421982645988464
1761469422987112700,5.00411279296875,-0.4745245575904846,-0.752582848072052,-0.03811824321746826
1761469422997068000,5.014068115234375,-0.8379148840904236,-0.22912682592868805,0.3620453476905823
1761469423007021800,5.024021728515625,-1.1215120553970337,0.21263566613197327,0.4363166391849518
1761469423016977000,5.033976806640625,-1.3057646751403809,0.5682076811790466,0.3879213333129883
1761469423026931700,5.043931640625,-1.0961555242538452,0.7981404662132263,0.29672032594680786
1761469423036887000,5.053886962890625,-0.7343461513519287,0.7656461000442505,0.4120211601257324
1761469423046841900,5.063841796875,-0.27964282035827637,0.3462049067020416,0.7362492680549622
1761469423056796700,5.073796630859375,0.1767481118440628,-0.30715736746788025,1.1562480926513672
1761469423066752000,5.083751953125,0.4532603919506073,-0.756329357624054,1.5701349973678589
1761469423076706800,5.093706787109375,0.49342837929725647,-0.8698333501815796,1.6916807889938354
1761469423086662000,5.103661865234375,0.16984765231609344,-0.4905020594596863,1.3266297578811646
1761469423096616700,5.11361669921875,-0.26363593339920044,0.202549546957016,0.6850231289863586
1761469423106572000,5.123572021484375,-0.7173227071762085,0.8902506828308105,0.04452884942293167
1761469423116526800,5.13352685546875,-1.0620315074920654,1.029371976852417,-0.48054826259613037
1761469423126481700,5.143481689453125,-1.177785038948059,0.9500111937522888,-0.8810349702835083
1761469423136436700,5.153436767578125,-1.1811524629592896,0.6251887679100037,-1.1682242155075073
1761469423146391600,5.1633916015625,-1.1087180376052856,0.12597741186618805,-1.0612413883209229
1761469423156346600,5.1733466796875,-1.2703644037246704,-0.4689062833786011,-0.534406304359436
1761469423166301400,5.183301513671875,-1.5889079570770264,-1.0952932834625244,0.21041619777679443
1761469423176256800,5.1932568359375,-1.7794116735458374,-1.6423585414886475,0.7926018834114075
1761469423186211600,5.203211669921875,-1.9298282861709595,-1.9965879917144775,1.0105032920837402
1761469423196166400,5.21316650390625,-1.8673851490020752,-2.1050002574920654,0.8911718726158142
1761469423206121700,5.223121826171875,-1.4859366416931152,-1.9279922246932983,0.42711445689201355
1761469423216076500,5.23307666015625,-0.9806400537490845,-1.5676639080047607,-0.364499032497406
1761469423226031600,5.243031494140625,-0.7232196927070618,-1.3501414060592651,-1.3148502111434937
1761469423235986700,5.252986572265625,-0.7997581958770752,-1.0967342853546143,-2.0734848976135254
1761469423245941800,5.262941650390625,-1.0359104871749878,-0.6642910242080688,-2.5717103481292725
1761469423255896600,5.272896484375,-1.565553903579712,-0.12348903715610504,-2.695676326751709
1761469423265851400,5.282851318359375,-1.8401401042938232,0.04790562018752098,-2.4543447494506836
1761469423275806700,5.292806640625,-2.2113382816314697,-0.019572434946894646,-2.1206963062286377
1761469423285761500,5.302761474609375,-2.3201961517333984,-0.5744596123695374,-1.5832111835479736
1761469423295716600,5.312716552734375,-2.1725120544433594,-1.1820815801620483,-1.015952229499817
1761469423305671700,5.322671630859375,-2.0437042713165283,-1.788831353187561,-0.6111977100372314
1761469423315626500,5.33262646484375,-2.0562856197357178,-2.061690092086792,-0.2660854458808899
1761469423325581600,5.34258154296875,-2.0673446655273438,-1.961409330368042,-0.09624367952346802
1761469423335536400,5.352536376953125,-2.003066301345825,-1.8949044942855835,-0.30848532915115356
1761469423345491700,5.36249169921875,-1.8010447025299072,-1.796905279159546,-0.7413361072540283
1761469423355446500,5.372446533203125,-1.4399621486663818,-1.5675866603851318,-1.23185133934021
1761469423365401600,5.382401611328125,-1.1064774990081787,-1.5251697301864624,-1.569247841835022
1761469423375356700,5.392356689453125,-0.7951813340187073,-1.8031952381134033,-1.6326024532318115
1761469423385311500,5.4023115234375,-0.6226322054862976,-2.098544120788574,-1.4288077354431152
1761469423395266600,5.4122666015625,-0.6659116744995117,-2.066676378250122,-1.1619981527328491
1761469423405221600,5.4222216796875,-0.8529004454612732,-1.613680124282837,-0.8491361141204834
1761469423415175700,5.43217578125,-1.135542631149292,-1.0187171697616577,-0.5623024702072144
1761469423425130500,5.442130615234375,-1.6214025020599365,-0.4456171691417694,-0.45020097494125366
1761469423435085600,5.45208544921875,-1.8728457689285278,-0.3179478049278259,-0.6597387790679932
1761469423445040600,5.46204052734375,-1.6114228963851929,-0.45822155475616455,-1.0954461097717285
1761469423454995700,5.47199560546875,-0.8587874174118042,-0.8085152506828308,-1.5578914880752563
1761469423464950500,5.481950439453125,-0.0850227102637291,-1.0190911293029785,-2.1174702644348145
1761469423474905600,5.491905517578125,0.04744642600417137,-0.6152797341346741,-2.3588364124298096
1761469423484860700,5.501860595703125,-0.7197772860527039,1.4046416282653809,-2.4697763919830322
1761469423494815500,5.5118154296875,-0.7246139049530029,1.575074315071106,-1.8515113592147827
1761469423504770600,5.5217705078125,-0.46454450488090515,0.09453359991312027,-1.556801676750183
1761469423514725600,5.5317255859375,-0.3623303472995758,-1.3636713027954102,-0.7867723107337952
1761469423524680700,5.5416806640625,-0.2040075659751892,-1.6900150775909424,0.04682532697916031
1761469423534635500,5.551635498046875,0.049229878932237625,-1.7268553972244263,0.7662543058395386
1761469423544590600,5.561590576171875,0.27071940898895264,-1.6485261917114258,1.1000198125839233
1761469423554545700,5.571545654296875,0.5079503059387207,-1.6307379007339478,0.9529509544372559
1761469423564500500,5.58150048828125,0.6495175361633301,-1.3364479541778564,0.38495516777038574
1761469423574455600,5.59145556640625,0.6677042841911316,-0.8206778764724731,-0.24901030957698822
1761469423584410600,5.60141064453125,0.6547375917434692,-0.46565160155296326,-0.7740315198898315
1761469423594365700,5.61136572265625,0.7227295637130737,-0.365189790725708,-0.9590426087379456
1761469423604320500,5.621320556640625,0.6764249205589294,0.0863470509648323,-0.5170361399650574
1761469423614275600,5.631275634765625,0.384780615568161,-0.003536397125571966,0.20707999169826508
1761469423624230700,5.641230712890625,0.11736141890287399,0.19296814501285553,1.0463682413101196
1761469423634185500,5.651185546875,0.1687413454055786,0.19532039761543274,1.7106934785842896
1761469423644140500,5.661140625,0.16917836666107178,0.0025975508615374565,2.0998504161834717
1761469423654095600,5.671095703125,0.2417614758014679,-0.2933219075202942,2.136305332183838
1761469423664050700,5.68105078125,0.2471916675567627,-0.6901115775108337,1.8773008584976196
1761469423674005500,5.691005615234375,0.24080505967140198,-0.7524850964546204,1.5152919292449951
1761469423683960600,5.700960693359375,0.22049099206924438,-0.4926721751689911,1.2660093307495117
1761469423693915600,5.71091552734375,0.07360595464706421,-0.44369199872016907,1.0789401531219482
1761469423703870500,5.720870361328125,-0.09411167353391647,-0.547221839427948,0.8218271136283875
1761469423713825800,5.73082568359375,-0.08144743740558624,-0.7953976988792419,0.6258045434951782
1761469423723780600,5.740780517578125,-0.1684206873178482,-1.0558685064315796,0.5631118416786194
1761469423733735700,5.750735595703125,-0.5104626417160034,-1.3236411809921265,0.5439941883087158
1761469423743690500,5.7606904296875,-0.9589693546295166,-1.5073723793029785,0.6217041611671448
1761469423753645600,5.7706455078125,-1.18608820438385,-1.475119948387146,0.8363203406333923
1761469423763600600,5.7806005859375,-1.2232270240783691,-0.9694586992263794,1.0011374950408936
1761469423773555500,5.790555419921875,-1.1186134815216064,-0.42366302013397217,1.0368813276290894
1761469423783510800,5.8005107421875,-0.993377685546875,-0.19141885638237,0.8196179270744324
1761469423793465600,5.810465576171875,-0.9157384037971497,-0.26793739199638367,0.507585883140564
1761469423803419600,5.820419677734375,-0.9500234127044678,-0.48242732882499695,0.1483621895313263
1761469423813374500,5.83037451171875,-1.133010745048523,-0.9092807769775391,-0.20293770730495453
1761469423823329800,5.840329833984375,-1.3072032928466797,-1.326731562614441,-0.6420255899429321
1761469423833284600,5.85028466796875,-1.429428219795227,-1.5691159963607788,-1.0067938566207886
1761469423843239400,5.860239501953125,-1.5065557956695557,-1.5903009176254272,-1.105660080909729
1761469423853194800,5.87019482421875,-1.508819341659546,-1.296096682548523,-1.0254154205322266
1761469423863149600,5.880149658203125,-1.5400587320327759,-0.9479445219039917,-0.8373776078224182
1761469423873104600,5.890104736328125,-1.6341798305511475,-0.7586170434951782,-0.6271294951438904
1761469423883059500,5.9000595703125,-1.7046641111373901,-0.6766356229782104,-0.47893521189689636
1761469423893014800,5.910014892578125,-1.7475758790969849,-0.6341352462768555,-0.31975695490837097
1761469423902969600,5.919969482421875,-1.7136131525039673,-0.7127187848091125,-0.20501147210597992
1761469423912924400,5.92992431640625,-1.5990742444992065,-0.8624095320701599,-0.199470654129982
1761469423922879700,5.939879638671875,-1.473594069480896,-1.0567257404327393,-0.2720300853252411
1761469423932834600,5.94983447265625,-1.3877456188201904,-1.1960049867630005,-0.41984719038009644
1761469423942789600,5.95978955078125,-1.3495559692382812,-1.3107882738113403,-0.6160343289375305
1761469423952744400,5.969744384765625,-1.3221369981765747,-1.179749608039856,-0.6757925152778625
1761469423962699800,5.97969970703125,-1.3906532526016235,-0.7628416419029236,-0.4933933913707733
1761469423972654600,5.989654541015625,-1.5439454317092896,-0.2583214342594147,-0.1206703782081604
1761469423982609400,5.999609375,-1.6364699602127075,-0.04374844208359718,0.2546156346797943
1761469423992564700,6.009564697265625,-1.5487066507339478,-0.17100654542446136,0.6213681697845459
1761469424002519600,6.01951953125,-1.3354790210723877,-0.5628893375396729,0.9734700322151184
1761469424012474600,6.029474609375,-1.1266975402832031,-1.0812245607376099,1.2715576887130737
1761469424022429700,6.0394296875,-0.9941009283065796,-1.6099046468734741,1.3413537740707397
1761469424032384500,6.049384521484375,-0.9409908652305603,-2.0409343242645264,1.0563077926635742
1761469424042339600,6.059339599609375,-0.9466407895088196,-2.381371259689331,0.3913257420063019
1761469424052294400,6.06929443359375,-1.0499767065048218,-2.685535192489624,-0.612831711769104
1761469424062249700,6.079249755859375,-1.0752534866333008,-2.4797496795654297,-1.4682968854904175
1761469424072204500,6.08920458984375,-1.0042506456375122,-1.0666321516036987,-1.3316317796707153
1761469424082159600,6.09915966796875,-0.8061022162437439,0.2818126082420349,-0.2645018994808197
1761469424092114700,6.10911474609375,-0.47217997908592224,0.6723206639289856,0.974405825138092
1761469424102069500,6.119069580078125,-0.34538739919662476,-0.08886457234621048,1.6874045133590698
1761469424112024600,6.129024658203125,-0.5874757766723633,-1.240376353263855,1.672654151916504
1761469424121979600,6.138979736328125,-0.9958614110946655,-2.0341334342956543,1.240111231803894
1761469424131934700,6.148934814453125,-1.1112732887268066,-2.0030405521392822,0.776607871055603
1761469424141889800,6.158889892578125,-0.8951412439346313,-1.3558599948883057,0.5260382890701294
1761469424151844900,6.168844970703125,-0.5945720076560974,-1.0870929956436157,0.20849670469760895
1761469424161798700,6.178798583984375,-0.23098132014274597,-1.1738132238388062,-0.2939957082271576
1761469424171753700,6.188753662109375,0.08829667419195175,-1.7452044486999512,-1.0357743501663208
1761469424181708800,6.198708740234375,0.2548944354057312,-2.025320053100586,-1.6513794660568237
1761469424191663600,6.20866357421875,0.22582389414310455,-1.8106945753097534,-1.738394021987915
1761469424201618700,6.21861865234375,0.06722624599933624,-1.3383266925811768,-1.1819981336593628
1761469424211573800,6.22857373046875,0.01399683766067028,-1.0885361433029175,-0.20050454139709473
1761469424221528800,6.23852880859375,-0.06952042877674103,-1.1944655179977417,0.8350544571876526
1761469424231483600,6.248483642578125,-0.23581098020076752,-1.8408936262130737,1.4661543369293213
1761469424241439000,6.25843896484375,-0.5043867826461792,-2.476022481918335,1.661097764968872
1761469424251393800,6.268393798828125,-0.7493000030517578,-2.579451560974121,1.6388928890228271
1761469424261348600,6.2783486328125,-0.9669801592826843,-2.254925012588501,1.5673391819000244
1761469424271303700,6.2883037109375,-1.2667680978775024,-1.8056093454360962,1.3602228164672852
1761469424281258800,6.2982587890625,-1.5567456483840942,-1.49958074092865,1.03668212890625
1761469424291213800,6.3082138671875,-1.5878149271011353,-1.0975055694580078,0.8684758543968201
1761469424301168600,6.318168701171875,-1.4302177429199219,-0.5673235058784485,0.9356216192245483
1761469424311124000,6.3281240234375,-1.3507615327835083,-0.3769964873790741,1.1218637228012085
1761469424321078800,6.338078857421875,-1.3708741664886475,-0.369083434343338,1.4178277254104614
1761469424331033600,6.34803369140625,-1.3813108205795288,-0.3277948796749115,1.7582623958587646
1761469424340989000,6.357989013671875,-1.3280839920043945,-0.27555885910987854,1.9765236377716064
1761469424350943700,6.36794384765625,-1.258808970451355,-0.3593401312828064,2.0160655975341797
1761469424360898800,6.37789892578125,-1.2052873373031616,-0.5385889410972595,1.8139728307724
1761469424370853600,6.387853515625,-1.2500214576721191,-0.7502918243408203,1.4908339977264404
1761469424380808700,6.39780859375,-1.3788795471191406,-0.9124591946601868,1.1184428930282593
1761469424390763800,6.407763671875,-1.382413387298584,-0.8995742797851562,0.7298521399497986
1761469424400718600,6.417718505859375,-1.2331913709640503,-0.7214340567588806,0.4216383993625641
1761469424410674000,6.427673828125,-0.9646240472793579,-0.36618858575820923,0.20222438871860504
1761469424420628700,6.437628662109375,-0.7864905595779419,-0.08732765913009644,0.017358670011162758
1761469424430583800,6.447583740234375,-0.809136152267456,-0.15064392983913422,-0.17390970885753632
1761469424440538600,6.45753857421875,-0.9066818356513977,-0.3517562747001648,-0.413943350315094
1761469424450493700,6.46749365234375,-1.00517737865448,-0.4424108862876892,-0.5388278365135193
1761469424460448800,6.47744873046875,-1.126163125038147,-0.5502111315727234,-0.4218197762966156
1761469424470403600,6.487403564453125,-1.153774380683899,-0.7023377418518066,-0.16003863513469696
1761469424480359000,6.49735888671875,-1.060355544090271,-0.8571275472640991,0.14869949221611023
1761469424490313700,6.507313720703125,-0.9719057679176331,-1.0087686777114868,0.43848326802253723
1761469424500268800,6.517268798828125,-0.9345956444740295,-1.0088573694229126,0.7042225003242493
1761469424510224000,6.527223876953125,-0.9594992995262146,-0.8806185126304626,0.8890456557273865
1761469424520178700,6.5371787109375,-0.9406545162200928,-0.7340275049209595,0.9362280964851379
1761469424530133800,6.5471337890625,-0.8163538575172424,-0.7038191556930542,0.8254987001419067
1761469424540088600,6.557088623046875,-0.637971043586731,-0.8079969882965088,0.6209258437156677
1761469424550043000,6.56704296875,-0.6039798259735107,-1.0518156290054321,0.507444441318512
1761469424559997700,6.576997802734375,-0.7639117240905762,-1.3977365493774414,0.6604771614074707
1761469424569952800,6.586952880859375,-0.9811707735061646,-1.4870020151138306,1.208839774131775
1761469424579907600,6.596907470703125,-1.1629085540771484,-1.3296765089035034,1.8757126331329346
1761469424589863000,6.60686279296875,-1.207574725151062,-1.2191786766052246,2.457773447036743
1761469424599817700,6.616817626953125,-1.0165517330169678,-1.3112300634384155,2.8298470973968506
1761469424609772800,6.626772705078125,-0.7235854864120483,-1.8072900772094727,2.7802910804748535
1761469424619728000,6.636727783203125,-0.577915370464325,-2.5780863761901855,2.406635046005249
1761469424629682700,6.6466826171875,-0.6864171624183655,-2.934974431991577,1.907015323638916
1761469424639637800,6.6566376953125,-0.8915807008743286,-2.691277265548706,1.418160319328308
1761469424649592800,6.6665927734375,-1.1553232669830322,-2.16206693649292,1.1008740663528442
1761469424659548000,6.6765478515625,-1.327339768409729,-1.7248377799987793,0.9646582007408142
1761469424669502700,6.686502685546875,-1.2069998979568481,-1.5230745077133179,0.9753243923187256
1761469424679457800,6.696457763671875,-0.8612815737724304,-1.3495222330093384,1.1569621562957764
1761469424689412900,6.706412841796875,-0.48609909415245056,-1.3184655904769897,1.3731242418289185
1761469424699367700,6.71636767578125,-0.15949329733848572,-1.3772634267807007,1.4510594606399536
1761469424709322800,6.72632275390625,0.0395883284509182,-1.5662286281585693,1.4119473695755005
1761469424719277800,6.73627783203125,0.1542358100414276,-1.966360330581665,1.1979740858078003
1761469424729233000,6.74623291015625,0.21345217525959015,-2.4549145698547363,0.8086972832679749
1761469424739187700,6.756187744140625,0.1721113920211792,-2.956646203994751,0.4021873474121094
1761469424749142500,6.766142578125,-0.051132719963788986,-3.130675792694092,0.19068579375743866
1761469424759097900,6.776097900390625,-0.12163697928190231,-2.7556803226470947,0.22509968280792236
1761469424769052700,6.786052734375,0.08998770266771317,-2.4020228385925293,0.386427104473114
1761469424779007700,6.7960078125,0.4291386008262634,-2.3233723640441895,0.6986249089241028
1761469424788962800,6.805962890625,0.7520699501037598,-2.3272454738616943,1.0284764766693115
1761469424798918000,6.81591796875,0.7624714970588684,-2.5641157627105713,1.201803207397461
1761469424808872700,6.825872802734375,0.5024808049201965,-2.818124294281006,1.2418746948242188
1761469424818827800,6.835827880859375,0.20103517174720764,-2.847764492034912,1.256805181503296
1761469424828782800,6.845782958984375,-0.0662202388048172,-2.674555778503418,1.2144492864608765
1761469424838737700,6.855737548828125,-0.22923845052719116,-2.2507433891296387,1.090394377708435
1761469424848692700,6.865692626953125,-0.29787635803222656,-1.7298312187194824,0.8647037148475647
1761469424858647800,6.875647705078125,-0.44157707691192627,-1.505854845046997,0.6011250615119934
1761469424868601900,6.885601806640625,-0.6211177706718445,-1.4908555746078491,0.5413815379142761
1761469424878556700,6.895556640625,-0.6764058470726013,-1.473384976387024,0.8845615386962891
1761469424888512800,6.9055126953125,-0.652126669883728,-1.5203770399093628,1.4729890823364258
1761469424898466800,6.915466796875,-0.6645015478134155,-1.4831687211990356,2.1100800037384033
1761469424908421600,6.925421630859375,-0.6684475541114807,-1.3700051307678223,2.5483574867248535
1761469424918376700,6.935376708984375,-0.7052944898605347,-1.2410492897033691,2.7349932193756104
1761469424928331800,6.945331787109375,-0.8009336590766907,-1.1656575202941895,2.754875659942627
1761469424938286800,6.955286865234375,-0.8844479918479919,-1.290977954864502,2.551071882247925
1761469424948241700,6.96524169921875,-0.9125260710716248,-1.3193151950836182,2.1626150608062744
1761469424958197000,6.975197021484375,-0.9227246046066284,-1.2357302904129028,1.639154076576233
1761469424968151800,6.98515185546875,-0.8070037364959717,-1.1177161931991577,1.0314936637878418
1761469424978106600,6.995106689453125,-0.6717391014099121,-1.0887738466262817,0.42559686303138733
1761469424988061700,7.005061767578125,-0.651658296585083,-1.1142067909240723,-0.0438278391957283
1761469424998016800,7.015016845703125,-0.6977208256721497,-1.2383862733840942,-0.3380613327026367
1761469425007971800,7.024971923828125,-0.8200675249099731,-1.4923853874206543,-0.484371155500412
1761469425017926700,7.0349267578125,-0.9508236646652222,-1.7831075191497803,-0.48933476209640503
1761469425027882000,7.044882080078125,-1.0158779621124268,-2.0469160079956055,-0.44098523259162903
1761469425037836800,7.0548369140625,-1.0443085432052612,-2.2341678142547607,-0.351141095161438
1761469425047791600,7.06479150390625,-1.0478737354278564,-2.2463326454162598,-0.28253549337387085
1761469425057746700,7.07474658203125,-1.0155107975006104,-2.1056926250457764,-0.2697392702102661
1761469425067701800,7.08470166015625,-0.9559241533279419,-2.0349512100219727,-0.3546604514122009
1761469425077656800,7.09465673828125,-0.8524720668792725,-2.02823543548584,-0.4858962297439575
1761469425087611600,7.104611572265625,-0.7301660776138306,-2.0137884616851807,-0.5761709213256836
1761469425097566700,7.114566650390625,-0.6523360013961792,-2.0220820903778076,-0.5891836285591125
1761469425107521800,7.124521728515625,-0.6450740694999695,-2.052112579345703,-0.5362015962600708
1761469425117476600,7.1344765625,-0.6109733581542969,-1.9464017152786255,-0.3567649722099304
1761469425127432000,7.144431884765625,-0.47237923741340637,-1.844699740409851,-0.1364695131778717
1761469425137386800,7.15438671875,-0.35400572419166565,-1.9649510383605957,-0.02715313993394375
1761469425147341800,7.164341796875,-0.2896610200405121,-2.2007927894592285,-0.013506077229976654
1761469425157296600,7.174296630859375,-0.19110965728759766,-2.380923271179199,-0.03389044478535652
1761469425167251700,7.184251708984375,-0.14242349565029144,-2.4889585971832275,-0.1653297245502472
1761469425177206800,7.194206787109375,-0.27533069252967834,-2.6580443382263184,-0.41831645369529724
1761469425187161600,7.20416162109375,-0.4811226725578308,-2.8061039447784424,-0.6869677305221558
1761469425197116700,7.21411669921875,-0.6068009734153748,-2.6546263694763184,-0.748666524887085
1761469425207071700,7.22407177734375,-0.5690929889678955,-2.1152772903442383,-0.5001963376998901
1761469425217026800,7.23402685546875,-0.3150172531604767,-1.7993206977844238,-0.12488368898630142
1761469425226981600,7.243981689453125,0.01665935292840004,-2.138489246368408,0.12410763651132584
1761469425236935700,7.253935791015625,0.3151448667049408,-2.708387851715088,0.17401234805583954
1761469425246890800,7.263890869140625,0.4604063928127289,-3.0231616497039795,-0.004875377751886845
1761469425256845800,7.273845703125,0.39337649941444397,-3.0571138858795166,-0.40606382489204407
1761469425266800600,7.283800537109375,0.2627479135990143,-2.6410233974456787,-0.7472012639045715
1761469425276755700,7.293755615234375,0.2133992612361908,-1.8642951250076294,-0.8671092987060547
1761469425286710800,7.303710693359375,0.17035561800003052,-1.477906584739685,-0.9829610586166382
1761469425296665600,7.31366552734375,0.10748370736837387,-1.3149000406265259,-0.9863861203193665
1761469425306621000,7.323620849609375,0.20588985085487366,-1.5157685279846191,-0.6968721747398376
1761469425316575700,7.33357568359375,0.408454954624176,-1.896005392074585,-0.16680720448493958
1761469425326530800,7.34353076171875,0.6428659558296204,-2.431403160095215,0.3109457790851593
1761469425336485600,7.353485595703125,0.764829158782959,-2.916910171508789,0.6686288118362427
1761469425346440700,7.363440673828125,0.7043111324310303,-3.097886562347412,0.9010869860649109
1761469425356395800,7.373395751953125,0.564015805721283,-3.0089609622955322,0.9661808013916016
1761469425366350600,7.3833505859375,0.37419819831848145,-2.6957905292510986,0.9209190607070923
1761469425376306000,7.393305908203125,0.23464536666870117,-2.3723413944244385,0.8307444453239441
1761469425386260700,7.4032607421875,0.2860924303531647,-2.170292377471924,0.650091826915741
1761469425396215600,7.413215576171875,0.45006006956100464,-1.9591529369354248,0.4020628035068512
1761469425406170600,7.423170654296875,0.5788471102714539,-1.69808828830719,0.07655917853116989
1761469425416125700,7.433125732421875,0.6146317720413208,-1.4213134050369263,-0.2210160344839096
1761469425426080800,7.443080810546875,0.6199977397918701,-1.2326016426086426,-0.4100705683231354
1761469425436035600,7.45303564453125,0.6152206063270569,-1.0519216060638428,-0.4641591012477875
1761469425445991000,7.462990966796875,0.48776334524154663,-0.9129606485366821,-0.370282381772995
1761469425455945700,7.47294580078125,0.3094114661216736,-0.9455966353416443,-0.11253100633621216
1761469425465900500,7.482900634765625,0.1401592642068863,-0.9914417862892151,0.2635861337184906
1761469425475856000,7.49285595703125,-0.006573730614036322,-1.012058973312378,0.550804853439331
1761469425485810700,7.502810791015625,-0.11675218492746353,-0.9399781823158264,0.7351287603378296
1761469425495765800,7.512765869140625,-0.16748647391796112,-0.7554916739463806,0.7541913986206055
1761469425505720600,7.522720458984375,-0.19125322997570038,-0.5836511254310608,0.5991531014442444
1761469425515676000,7.532676025390625,-0.21501608192920685,-0.5191291570663452,0.3402152955532074
1761469425525630700,7.542630615234375,-0.31385537981987,-0.5611742734909058,-0.00285499170422554
1761469425535585500,7.55258544921875,-0.4322608411312103,-0.7781769037246704,-0.3869219720363617
1761469425545539600,7.56253955078125,-0.5233373641967773,-1.0249828100204468,-0.7248232364654541
1761469425555495000,7.572494873046875,-0.5990201234817505,-1.1363815069198608,-0.913493275642395
1761469425565449700,7.58244970703125,-0.6753594279289246,-1.106088638305664,-0.9269423484802246
1761469425575404500,7.592404541015625,-0.7875013947486877,-1.0940271615982056,-0.7925205826759338
1761469425585360000,7.60235986328125,-0.9156517386436462,-1.1602933406829834,-0.5648882985115051
1761469425595314700,7.612314697265625,-1.0360300540924072,-1.304970622062683,-0.3963909149169922
1761469425605269800,7.622269775390625,-1.1776225566864014,-1.3872205018997192,-0.3115314245223999
1761469425615224800,7.632224853515625,-1.2772375345230103,-1.365562915802002,-0.29912054538726807
1761469425625179600,7.6421796875,-1.2971359491348267,-1.3307968378067017,-0.34314239025115967
1761469425635134700,7.652134765625,-1.243262529373169,-1.2733250856399536,-0.2997911870479584
1761469425645089500,7.662089599609375,-1.0634351968765259,-1.2943365573883057,-0.1619267463684082
1761469425655044900,7.672044921875,-0.8584370017051697,-1.5183355808258057,-0.05600803345441818
1761469425664999700,7.681999755859375,-0.7644514441490173,-1.6070301532745361,0.07314778864383698
1761469425674954800,7.691954833984375,-0.8195288181304932,-1.6706136465072632,0.20132599771022797
1761469425684909800,7.701909912109375,-1.0029631853103638,-1.8056204319000244,0.4147492051124573
1761469425694864600,7.71186474609375,-1.0918978452682495,-1.8073726892471313,0.7776152491569519
1761469425704819700,7.72181982421875,-0.9769876599311829,-1.7123421430587769,1.1420989036560059
1761469425714774500,7.7317744140625,-0.7699263095855713,-1.6450514793395996,1.297186017036438
1761469425724729900,7.741729736328125,-0.6876968145370483,-1.7595537900924683,1.0377155542373657
1761469425734684700,7.7516845703125,-0.7522606253623962,-1.907694697380066,0.3962407112121582
1761469425744639700,7.7616396484375,-0.8484253883361816,-1.7651901245117188,-0.2830406129360199
1761469425754594800,7.7715947265625,-0.869314968585968,-1.330547571182251,-0.5465297698974609
1761469425764549600,7.781549560546875,-0.9073787927627563,-0.8524462580680847,-0.31005600094795227
1761469425774504700,7.791504638671875,-0.9818034768104553,-0.6482941508293152,0.07180508971214294
1761469425784459800,7.801459716796875,-1.0190993547439575,-1.0270469188690186,0.22790662944316864
1761469425794414800,7.811414794921875,-1.036000370979309,-1.7039180994033813,0.0029456764459609985
1761469425804369700,7.82136962890625,-0.9952114224433899,-2.01876163482666,-0.34994494915008545
1761469425814324700,7.83132470703125,-0.7223138213157654,-1.7414884567260742,-0.60169917345047
1761469425824279800,7.84127978515625,-0.2976316809654236,-1.2095636129379272,-0.8102349042892456
1761469425834234600,7.851234619140625,0.14840251207351685,-0.8924543261528015,-0.9428925514221191
1761469425844189700,7.861189697265625,0.38940638303756714,-1.1803728342056274,-1.0701384544372559
1761469425854144800,7.871144775390625,0.685151994228363,-1.5292719602584839,-0.9838330745697021
1761469425864098800,7.881098876953125,0.9906846880912781,-1.876213550567627,-0.6541270613670349
1761469425874053600,7.8910537109375,0.9993636012077332,-2.1259310245513916,-0.21768291294574738
1761469425884008700,7.9010087890625,0.8693920373916626,-2.3082308769226074,0.12449806183576584
1761469425893963800,7.9109638671875,0.6887322068214417,-2.4648005962371826,0.26182395219802856
