time,seconds_elapsed,z,y,x
1761507959386982000,0.07498193359375,0.17675006709098814,-0.053823360124230384,-0.2708011004462838
1761507959396953900,0.084953857421875,0.15882511882185935,-0.09541443066298962,-0.18627748163193464
1761507959406925000,0.094925048828125,0.16246932054311036,-0.11134382120072842,-0.09576952771097422
1761507959416896800,0.104896728515625,0.1625087757706642,-0.05761924527585506,-0.02261135251969099
1761507959426868000,0.114867919921875,0.16805471946001052,-0.033815175840258595,0.062491819748282426
1761507959436840000,0.12483984375,0.16644903782904147,-0.09198270264863967,0.1243500177681446
1761507959446812000,0.13481201171875,0.17483751146793364,-0.1486491772443056,0.11237170294374227
1761507959456783000,0.144783203125,0.1642822151839733,-0.19014321714937685,0.10611264254897833
1761507959466754800,0.1547548828125,0.17760259226709604,-0.22929624688625333,0.15155658912360667
1761507959476726000,0.16472607421875,0.2602528184249997,-0.239968447548151,0.22305092275589702
1761507959486698000,0.174697998046875,0.3033589697018266,-0.27408231407403943,0.24408757330477238
1761507959496669000,0.1846689453125,0.3018982494994998,-0.30045477269291876,0.25611469570696355
1761507959506641000,0.194640869140625,0.2919420881524682,-0.30891572704613207,0.2788353538200259
1761507959516613000,0.204613037109375,0.2780766444072127,-0.31350480840206146,0.32390111473202704
1761507959526583800,0.214583740234375,0.25464053150117394,-0.2995680529862642,0.39534371817708014
1761507959536556000,0.22455615234375,0.23514146578311917,-0.2657487854927778,0.4438742325901985
1761507959546527000,0.23452685546875,0.23533114313632247,-0.23479367525875566,0.487699053530395
1761507959556499000,0.2444990234375,0.22284663235545157,-0.22440262962579727,0.5014519768118858
1761507959566470000,0.254469970703125,0.2202019630655646,-0.2386696399092674,0.4672022089466452
1761507959576442000,0.264442138671875,0.18820552708506583,-0.2784574604183435,0.37369565773159263
1761507959586412800,0.274412841796875,0.0743704735904932,-0.3770896840840578,0.26674013461768625
1761507959596385000,0.284385009765625,-0.024338614703714845,-0.5405184973090886,0.16458616656661032
1761507959606356700,0.294356689453125,-0.04574117595553398,-0.7477613178193568,0.07464666018337011
1761507959616328000,0.304327880859375,-0.019881927555799483,-0.9838274972319603,-0.003956044149398804
1761507959626300000,0.3142998046875,0.005856617073714733,-1.2548983545303345,0.016816694766283034
1761507959636271000,0.32427099609375,0.023280337822437287,-1.5503443591505288,0.06932809550911188
1761507959646242800,0.334242919921875,0.030246961964666842,-1.8066285662055015,0.11543839703798293
1761507959656214000,0.344214111328125,-0.010616963343322277,-2.042002671700716,0.193130708527565
1761507959666185700,0.354185791015625,-0.03787526488602161,-2.252578436025977,0.31555151179879903
1761507959676157000,0.364156982421875,-0.03189560595452785,-2.434362405630946,0.4083902467548847
1761507959686129000,0.37412890625,0.022116847001016137,-2.527662620618939,0.41156566192060706
1761507959696100900,0.384100830078125,0.07989917388409376,-2.607491359615326,0.3610270225554704
1761507959706071800,0.39407177734375,0.12236264334321022,-2.647822200959921,0.2478130235686898
1761507959716044000,0.4040439453125,0.14937281534373759,-2.5137585984289643,0.046244157041609286
1761507959726015000,0.414014892578125,0.11222820281982421,-2.261166816151142,-0.1087494207933545
1761507959735987000,0.423987060546875,0.04309358405619859,-1.9163971009135246,-0.19849223556071519
1761507959745958000,0.4339580078125,-0.07551584423333406,-1.4985989743441341,-0.2930506339162588
1761507959755929900,0.443929931640625,-0.32423692255765196,-1.0722036998212336,-0.33212036928385497
1761507959765902000,0.453902099609375,-0.6496060640156268,-0.7239163318514823,-0.29946576165556904
1761507959775873000,0.463873046875,-0.9570078793674707,-0.3288081759959459,-0.303567059494555
1761507959785845000,0.473844970703125,-1.208708265763521,0.16192776101231574,-0.4173474601924419
1761507959795816000,0.48381591796875,-1.4561214763596653,0.643096828252077,-0.5237932802185415
1761507959805788200,0.4937880859375,-1.6388596779495477,1.021695163333416,-0.5405804566293955
1761507959815758600,0.503758544921875,-1.7287272881403564,1.3567951329499481,-0.5556275113746524
1761507959825730300,0.513730224609375,-1.7767188733711838,1.6137515401780604,-0.5701479118973016
1761507959835701500,0.523701416015625,-1.7792831709012389,1.7608932354688642,-0.5168725410446524
1761507959845673200,0.533673095703125,-1.7755740872502326,1.7995792322158812,-0.4852174658477306
1761507959855645400,0.5436455078125,-1.773104190005362,1.7819781090736388,-0.5226274513095617
1761507959865616400,0.553616455078125,-1.7776809964016078,1.7923796761006117,-0.6086626437306404
1761507959875588400,0.56358837890625,-1.8034665950432418,1.7476538146674632,-0.6583288841754198
1761507959885559300,0.573559326171875,-1.8273539588481187,1.6218980217546224,-0.6441343546062708
1761507959895531500,0.583531494140625,-1.7310566078707574,1.4421739072889088,-0.5746405471414328
1761507959905502200,0.593502197265625,-1.4397346974432468,1.254806000071764,-0.483060872335732
1761507959915474400,0.603474365234375,-1.0031313326388598,1.046134023541212,-0.3746750241577625
1761507959925446400,0.6134462890625,-0.5340186138957739,0.8220546345204115,-0.27928514341413974
1761507959935417300,0.623417236328125,-0.14866262124776838,0.6057043784469366,-0.22952742529362438
1761507959945389600,0.6333896484375,0.0770458302795887,0.48541503424644467,-0.24151772281676528
1761507959955360500,0.643360595703125,0.1868058894202113,0.4451794699698686,-0.28266747932881114
1761507959965332500,0.65333251953125,0.29326573797166344,0.5326788897246122,-0.27719021696150303
1761507959975303400,0.663303466796875,0.34410686741471286,0.6565700578093528,-0.22251111679077148
1761507959985275400,0.673275390625,0.250914204454422,0.7133733105272054,-0.11962649637758731
1761507959995246300,0.683246337890625,0.05308247862905264,0.7451455823630094,-0.07417027484327554
1761507960005218600,0.693218505859375,-0.22677695754170415,0.6800619925558566,-0.05875789391696453
1761507960015190300,0.703190185546875,-0.48825142671614885,0.5638461814045905,-0.09946312153190373
1761507960025161500,0.713161376953125,-0.5907260050237179,0.4715601118952036,-0.1297629827275872
1761507960035133400,0.723133544921875,-0.5778872739776969,0.4358955087959766,-0.07054097843021154
1761507960045104400,0.7331044921875,-0.5298489269956946,0.42112405612170695,0.05238631305843591
1761507960055076400,0.743076416015625,-0.3744496909692883,0.42509588236212725,0.19709055206924675
1761507960065047600,0.753047607421875,-0.16700024197101593,0.4045329868048429,0.2936053451895714
1761507960075019300,0.763019287109375,0.03066401833295822,0.2638584417015314,0.39714755272865293
1761507960084991500,0.772991455078125,0.15090426269471643,0.07371873168349266,0.4881766079142689
1761507960094962400,0.78296240234375,0.2938946835249662,-0.059362289550900456,0.49040334405303
1761507960104934400,0.792934326171875,0.454043159905076,-0.1319791974723339,0.4767258240953087
1761507960114905300,0.8029052734375,0.548059998729825,-0.19855916331708431,0.5372893061295151
1761507960124877600,0.812877685546875,0.6200102594360709,-0.2500415132731199,0.5920972933769225
1761507960134848300,0.82284814453125,0.6955462696745991,-0.24860592751204966,0.5976531739383936
1761507960144820500,0.832820556640625,0.6906421310201287,-0.18299919061362743,0.5914192479848861
1761507960154791400,0.84279150390625,0.5948384087786078,-0.09914718745052814,0.5499161479905247
1761507960164763400,0.852763427734375,0.47630993677079675,-0.033811668708920474,0.5153875631839037
1761507960174735400,0.8627353515625,0.3487435873046517,0.025932898157835005,0.4757096327900886
1761507960184706600,0.87270654296875,0.1490630187422037,0.10453706379532814,0.5099938874468207
1761507960194678300,0.88267822265625,-0.16507716495394706,0.19459201325178146,0.6030962417751551
1761507960204649500,0.8926494140625,-0.48709787276685235,0.33044425276517864,0.6860904590651392
1761507960214621200,0.90262109375,-0.7233101826518774,0.48071898538470265,0.7106216737315059
1761507960224592400,0.91259228515625,-0.6544482433497906,0.6638204673290252,0.8262336737707257
1761507960234564400,0.922564453125,-0.14392331776618958,0.8444698799461126,0.9433104856655001
1761507960244535600,0.93253564453125,0.28847207395434377,0.836628518795967,0.6968564754903316
1761507960254507300,0.94250732421875,0.5390113076165318,0.7348942374616861,0.33660452896058557
1761507960264479500,0.9524794921875,0.5982952712342142,0.639072395041585,-0.025955694511532783
1761507960274450200,0.9624501953125,0.5178817180871963,0.6117874977529049,-0.30404490613937374
1761507960284422400,0.97242236328125,0.4426765472382307,0.6511123769253492,-0.4648261274650693
1761507960294393300,0.982393310546875,0.43270548058301206,0.6477770950227976,-0.477059293833375
1761507960304365300,0.992365234375,0.4414657101437449,0.5661883606165647,-0.3760726159960031
1761507960314336300,1.002336181640625,0.45613341018259523,0.42324119440615177,-0.23102789298444984
1761507960324308500,1.01230859375,0.43079818565696476,0.29391981796622274,-0.10816723699122667
1761507960334280400,1.022280517578125,0.4271741499409079,0.19190905777812003,-0.005317980152368545
1761507960344251400,1.03225146484375,0.40820027714073653,0.1071399397701025,0.10516162543445826
1761507960354223600,1.0422236328125,0.3657791855186224,0.016000117686390876,0.21914719331562518
1761507960364194300,1.0521943359375,0.3284557092964649,-0.09375848014950752,0.31097236731499434
1761507960374166500,1.06216650390625,0.3061567837268114,-0.22260697838068008,0.3809755856066942
1761507960384137500,1.072137451171875,0.3481090887933969,-0.36943595446050165,0.40905835527479645
1761507960394109400,1.082109375,0.4315241618439555,-0.5380214197963475,0.43244390703737734
1761507960404080400,1.092080322265625,0.4859437342956662,-0.7022656410574912,0.45644817522019143
1761507960414052600,1.102052490234375,0.5001327109068632,-0.8149357424259185,0.47999447050243615
1761507960424024300,1.1120244140625,0.46777942431271075,-0.9137719642311334,0.5055044670730829
1761507960433995500,1.12199560546875,0.4100687013611197,-0.978686042690277,0.5127919937327504
1761507960443967200,1.13196728515625,0.3189399851933121,-0.9871937587946653,0.49439475177675485
1761507960453938400,1.1419384765625,0.1789586830511689,-0.9450789566427469,0.4465615719780326
1761507960463910400,1.151910400390625,-0.0028752631753683087,-0.9018027094960213,0.385944313929975
1761507960473881600,1.161881591796875,-0.201661220985651,-0.9097586369365454,0.2911693502143025
1761507960483853300,1.171853271484375,-0.37036242165565486,-1.0449088656604288,0.15734335583150386
1761507960493825500,1.181825439453125,-0.4281912180289626,-1.1955460018515587,-0.01886427494585514
1761507960503796200,1.191796142578125,-0.31063100653141734,-1.287065178641677,-0.16936814014613627
1761507960513768400,1.2017685546875,-0.048425008212029934,-1.3744301583617924,-0.2001712746888399
1761507960523739400,1.211739501953125,0.29627251857221126,-1.4018103327184914,-0.1752671350568533
1761507960533711400,1.22171142578125,0.5948927693143486,-1.3677268613308666,-0.1544935193583369
1761507960543682300,1.231682373046875,0.828732212588191,-1.3363356977671383,-0.07556874346435069
1761507960553654500,1.241654541015625,1.0209224253952502,-1.3002666055202483,0.03798077108711004
1761507960563625200,1.251625244140625,1.1334770836904644,-1.219995383453369,0.14495938281565904
1761507960573597400,1.261597412109375,1.0957532099738716,-1.0303478408664464,0.20269144081622362
1761507960583568400,1.271568359375,0.9275658040449023,-0.8351169451892375,0.2092269800648093
1761507960593540400,1.281540283203125,0.7735606527253985,-0.6760960115343332,0.21135522426515815
1761507960603512300,1.29151220703125,0.6288797945901751,-0.5665075095683336,0.18984744907319545
1761507960613483500,1.3014833984375,0.47717210655808445,-0.599808306145668,0.18627222093492746
1761507960623455200,1.311455322265625,0.42234921400249004,-0.7837304568231105,0.16517828724086284
1761507960633426400,1.321426513671875,0.45715573896765704,-0.981034067121148,0.13739128564894199
1761507960643398400,1.3313984375,0.5607467540845275,-1.127929678696394,0.1418605400174856
1761507960653369300,1.341369384765625,0.7105535769313573,-1.2246014159440994,0.2420098902478814
1761507960663341300,1.35134130859375,0.8448805065736175,-1.2984464043557644,0.3474333814889192
1761507960673313300,1.361313232421875,0.9415911145269871,-1.4098422480046748,0.44260523556768894
1761507960683284200,1.3712841796875,1.0311495126381516,-1.5274731866508722,0.4609276587218046
1761507960693256400,1.38125634765625,1.1334253535032273,-1.5967933911144732,0.42993806169629095
1761507960703227400,1.391227294921875,1.2333289122790096,-1.5754437290936707,0.3410939493343234
1761507960713199400,1.401199462890625,1.3026555464833973,-1.3810375938028097,0.23071342020779848
1761507960723170300,1.41117041015625,1.3306149820327757,-1.0836731883406638,0.08993483020812272
1761507960733142300,1.421142333984375,1.288430037254095,-0.7238765843629836,0.04331804046183824
1761507960743113200,1.43111328125,1.0614008585169912,-0.32171383382081986,0.03698825291842222
1761507960753085400,1.44108544921875,0.6603241496458649,0.08776011651754378,0.061604515519738196
1761507960763057400,1.451057373046875,0.20345336509943007,0.534747512692213,0.08495616501271724
1761507960773028400,1.4610283203125,-0.27231559666246175,0.8682564137250185,0.12097703420370816
1761507960783000600,1.47100048828125,-0.7751824087083339,0.9706810154110193,0.15383154831826687
1761507960792971300,1.48097119140625,-1.2331985638976097,0.9122060300886631,0.15680968734622
1761507960802943500,1.490943603515625,-1.5544538402959704,0.7607008788913487,0.04797346505224705
1761507960812915200,1.500915283203125,-1.6538161318019031,0.5533668729662895,-0.17739567151814697
1761507960822887200,1.51088720703125,-1.5258949775487183,0.34812896253764625,-0.40263504422903057
1761507960832858000,1.520858154296875,-1.1866618536502123,0.20259528696537016,-0.5787514895915985
1761507960842830000,1.530830078125,-0.7665630489230155,0.16807517772614955,-0.7418778127387166
1761507960852802000,1.540802001953125,-0.4022983596205711,0.3294838833004236,-0.8422299920648336
1761507960862773200,1.550773193359375,-0.1791091974377632,0.6134457863539456,-0.8251292196601628
1761507960872745000,1.560744873046875,-0.15840952375829218,0.8705547537952661,-0.6482558184504509
1761507960882716200,1.570716064453125,-0.2876154571250081,1.0929267543762922,-0.42482466420531273
1761507960892688100,1.580688232421875,-0.433970093691349,1.267670742341876,-0.266087808188796
1761507960902659000,1.5906591796875,-0.6025456221550702,1.3735609743118284,-0.17039456058442592
1761507960912631000,1.600631103515625,-0.7304489484906196,1.3967746766388416,-0.1357522862702608
1761507960922602200,1.610602294921875,-0.7713362546741962,1.3390209913283586,-0.12168576699495315
1761507960932574000,1.620573974609375,-0.7186375146657228,1.1949193943858145,-0.15488018058836459
1761507960942546200,1.630546142578125,-0.5462929890573024,1.0414140092819928,-0.19680150599479673
1761507960952517000,1.64051708984375,-0.3188537682145834,0.9718722710222005,-0.25453297947347164
1761507960962489000,1.650489013671875,-0.13668313737958668,0.879212107503414,-0.2913859155744314
1761507960972460000,1.6604599609375,0.004480944806337356,0.7434381939232348,-0.3122556851238012
1761507960982432000,1.670431884765625,0.06102233171761035,0.6263906081229448,-0.3717641051471233
1761507960992403000,1.68040283203125,0.11176058530807495,0.5614677618354559,-0.47673196157515046
1761507961002375200,1.690375244140625,0.11510755764842033,0.5270587117552757,-0.5255407084077597
1761507961012347000,1.700346923828125,-0.016151508855819702,0.5510486591517925,-0.5278975006669759
1761507961022318000,1.710318115234375,-0.23840981992930171,0.5561135413259267,-0.4942717099189758
1761507961032290000,1.7202900390625,-0.48799423708468675,0.46051966244280335,-0.41623979121148585
1761507961042261200,1.73026123046875,-0.6286632292300462,0.3097422409981489,-0.34591771622896195
1761507961052233000,1.74023291015625,-0.6760965960562229,0.13296294781267642,-0.2876712789654732
1761507961062204200,1.7502041015625,-0.6273582841113209,-0.03949146791100502,-0.2004986069470644
1761507961072175900,1.76017578125,-0.4967474523827433,-0.1486672974228859,-0.12121347330808639
1761507961082147000,1.77014697265625,-0.33779870718121524,-0.184493813085556,-0.04215571868419647
1761507961092119000,1.780119140625,-0.23493045338094234,-0.1523924554258585,0.039893618971109386
1761507961102091000,1.790091064453125,-0.1724669829443097,-0.09062135116755962,0.1203629939585924
1761507961112062000,1.80006201171875,-0.1252905134886503,-0.0056336219727993,0.18515607638657092
1761507961122034200,1.8100341796875,-0.053610594156384465,0.0595259556800127,0.2619990775704384
1761507961132004900,1.8200048828125,0.02698708338588476,0.11191197647750377,0.3520265544980764
1761507961141977000,1.82997705078125,0.09340952058136463,0.0872714562177658,0.45963235821425913
1761507961151948000,1.839947998046875,0.13966682936549185,0.042616321933269495,0.5513479343593121
1761507961161920000,1.849919921875,0.162645261631906,0.04935118314623833,0.5834183123588562
1761507961171891000,1.859890869140625,0.14625760593265294,0.1326543202549219,0.6096551618993282
1761507961181863200,1.86986328125,0.05874795704483986,0.25432781229019163,0.625174218070507
1761507961191833900,1.879833740234375,-0.01971475429534912,0.4057563911199569,0.6007330197751521
1761507961201806000,1.88980615234375,-0.03772445823848247,0.5124380657285451,0.5249830745249986
1761507961211778000,1.899778076171875,-0.04795680617839098,0.5465957713961601,0.4226116643309593
1761507961221749000,1.9097490234375,-0.054576516579091544,0.5358160187065601,0.3016618103951216
1761507961231721200,1.91972119140625,-0.09414484911859035,0.5078846402078867,0.15045593440532684
1761507961241692200,1.929692138671875,-0.17468290542811155,0.5015004921287298,0.029360534518957135
1761507961251664100,1.9396640625,-0.27307226024866105,0.5438491030365228,-0.05012158299684524
1761507961261635000,1.949635009765625,-0.3873977276086807,0.5861889461159706,-0.060359483894705766
1761507961271607000,1.95960693359375,-0.4913017541974783,0.5607224964261055,-0.06062193422317504
1761507961281579000,1.9695791015625,-0.5860536292985081,0.5507692576885223,-0.0901473039150238
1761507961291550200,1.97955029296875,-0.6608247926443814,0.5847942768871783,-0.12097557289898395
1761507961301522000,1.98952197265625,-0.7036889518588781,0.5527724142044782,-0.12572890490591526
1761507961311493000,1.9994931640625,-0.6457032113581895,0.4772925180673599,-0.11683248174488543
1761507961321465000,2.009465087890625,-0.477296025198698,0.40064474719464777,-0.09289338775277137
1761507961331436000,2.01943603515625,-0.2945601616963744,0.24220015212297438,-0.025129180559515952
1761507961341408000,2.029407958984375,-0.1543272228807211,0.06405833841264248,0.02708469854146242
1761507961351379200,2.039379150390625,0.000706102442741394,-0.045399815171957014,0.05689414587169885
1761507961361351000,2.049350830078125,0.16904051562696695,-0.11396540187597275,0.095225337831676
1761507961371322000,2.059322021484375,0.32854367984086275,-0.25626141070127484,0.1667529892116785
1761507961381294000,2.069294189453125,0.4429077256456017,-0.4202238924115896,0.19024492395818232
1761507961391266000,2.07926611328125,0.5549892134711146,-0.5613672240704297,0.15475158577263354
1761507961401237000,2.089237060546875,0.6312605522468686,-0.7181459317564964,0.126494044059515
1761507961411209200,2.099209228515625,0.6424374875605106,-0.8641770354568957,0.09409341119229793
1761507961421180000,2.109179931640625,0.6136003923937678,-0.9509399576306342,0.03453150741606951
1761507961431152000,2.119152099609375,0.5503983785495161,-1.0443494782119989,0.03541588903516531
1761507961441123000,2.129123046875,0.4342164696678519,-1.1397311756491662,0.08748714479506016
1761507961451095000,2.139094970703125,0.2908195138633251,-1.214127952724695,0.11564005708992481
1761507961461067000,2.14906689453125,0.23323183276951312,-1.270568801870942,0.16282237176448106
1761507961471038200,2.1590380859375,0.2077592455998063,-1.348885967260599,0.17504793934822083
1761507961481010000,2.169010009765625,0.20155951417684553,-1.4011094909727573,0.15638795480281115
1761507961490981000,2.178981201171875,0.2064563463076949,-1.3951339236944913,0.12948036639392374
1761507961500952800,2.188952880859375,0.21219927387386558,-1.3838807082742453,0.1300201723590493
1761507961510924000,2.198924072265625,0.1760679300457239,-1.3369956229805946,0.17786854972690344
1761507961520896000,2.20889599609375,0.11359627630263566,-1.3186802140891551,0.251658300819993
1761507961530867200,2.2188671875,0.15965747799277305,-1.3277695294737815,0.34942543208897114
1761507961540839000,2.2288388671875,0.2977572041720152,-1.36195763027966,0.4408627758145332
1761507961550811100,2.23881103515625,0.45125352918654676,-1.441378957518935,0.5388482260093093
1761507961560782000,2.248781982421875,0.5815770684063434,-1.5269868644386528,0.5934966387808323
1761507961570754000,2.258754150390625,0.6598284750834107,-1.6182698943853377,0.6235282044291496
1761507961580725000,2.26872509765625,0.7147235560923815,-1.6437497880786656,0.6432227927193045
1761507961590697000,2.278697021484375,0.7729179709076881,-1.5587281566143034,0.6189651342973113
1761507961600668000,2.28866796875,0.7796475714236497,-1.4770798009753225,0.5988210486739873
1761507961610640100,2.29864013671875,0.742783237145841,-1.4391864159107208,0.5644570067793131
1761507961620611000,2.308611083984375,0.6642085898637772,-1.388112646755576,0.5041337632417678
1761507961630583000,2.3185830078125,0.5926967205747962,-1.2990116370230913,0.4017033163368702
1761507961640555300,2.32855517578125,0.5464014178678394,-1.2163789465218782,0.34245354724973437
1761507961650526000,2.33852587890625,0.4541384369730949,-1.1849573878198862,0.31820670248270033
1761507961660498200,2.348498291015625,0.3775792211666703,-1.0913058751761913,0.2519885556876659
1761507961670469000,2.35846923828125,0.32661709569245573,-0.8760936832219361,0.12839870863705874
1761507961680441000,2.368441162109375,0.41444618579298254,-0.49101650751531123,-0.002129997766017914
1761507961690412000,2.378412109375,0.5517980162143707,0.058415948611497875,-0.13220657648742198
1761507961700384300,2.38838427734375,0.5638789146304131,0.7854249857813119,-0.3342372153073549
1761507961710355000,2.39835498046875,0.4625827324524522,1.5328104560256004,-0.49445583431422707
1761507961720327200,2.4083271484375,0.14218173479586838,2.1432015309840438,-0.6341577349931001
1761507961730299000,2.418298828125,-0.32038609234839677,2.6875048075288532,-0.8538514562755822
1761507961740270000,2.42827001953125,-0.7566618326336145,3.3263866484344002,-1.2576526216745376
1761507961750242000,2.438241943359375,-1.142672489798069,4.108552924680709,-1.7648592164903878
1761507961760213200,2.448213134765625,-1.5138631789714097,4.996572023496031,-2.2706541909426448
1761507961770185000,2.45818505859375,-1.8662743488729,5.971293254208565,-2.738971959915757
1761507961780156200,2.46815625,-2.199808384346962,6.942450070437789,-3.0885388463020322
1761507961790127900,2.4781279296875,-2.4797224733144043,7.817462972685695,-3.29154855928719
1761507961800099000,2.48809912109375,-2.7233739932894707,8.597641874507069,-3.413250692895055
1761507961810070800,2.49807080078125,-2.906460277664661,9.224788269433379,-3.4521780971825122
1761507961820041700,2.508041748046875,-3.0870942004516717,9.622063247933983,-3.3782349090933796
1761507961830013700,2.518013671875,-3.2939404228597877,9.719428812664747,-3.145992087361216
1761507961839985700,2.527985595703125,-3.3859494289934635,9.36824104707837,-2.7093624190717933
1761507961849956900,2.537956787109375,-3.2518177296623585,8.570065300795436,-2.417944354793429
1761507961859928600,2.547928466796875,-2.778771470862627,7.732458876878023,-2.5051643730849027
1761507961869899800,2.557899658203125,-2.0364415304422376,7.1723115499913686,-2.9542285755336284
1761507961879871500,2.56787158203125,-1.1557657801270484,6.631609512808919,-3.3364848486006258
1761507961889842700,2.5778427734375,-0.4353180011689663,5.579293001240491,-3.093674455624819
1761507961899814700,2.587814697265625,-0.06166209092587232,3.8747260486274957,-2.2544757940799
1761507961909785900,2.597785888671875,0.006386193905770778,1.8611580287724732,-1.046725559693575
1761507961919757600,2.607757568359375,-0.1412467920333147,-0.13837678955495356,0.2685530292585492
1761507961929729800,2.617729736328125,-0.31437545375674963,-1.7623638925433158,1.4314531913101671
1761507961939700500,2.627700439453125,-0.30048107617795466,-2.927333554345369,2.336635606372356
1761507961949672700,2.637672607421875,-0.07453735458999872,-4.098989562043547,3.1505686014965173
1761507961959643600,2.6476435546875,0.14748685546666382,-5.605623958805203,3.8703637617647644
1761507961969615600,2.65761572265625,0.3896639189749956,-7.2695222164213655,4.2055411805316805
1761507961979586600,2.667586669921875,0.9546434883236885,-8.6389681566298,3.9022219583183526
1761507961989558800,2.677558837890625,1.6937413149550555,-9.750068865600229,3.1803038145467637
1761507961999529700,2.68752978515625,2.443319911329448,-10.660683242583275,2.4253949630603193
1761507962009501700,2.697501708984375,3.0608871615275737,-11.303566135823726,1.8453408664375544
1761507962019473700,2.7074736328125,3.497092759186029,-11.592177325987816,1.3916884594157337
1761507962029444600,2.717444580078125,3.6878321886628864,-11.530687961280345,1.042291961160302
1761507962039416600,2.72741650390625,3.6576594609782096,-11.214562156724929,0.9025222559422253
1761507962049387800,2.7373876953125,3.4041540709868072,-10.768511164617538,1.014148985737562
1761507962059359500,2.747359375,3.088997988246381,-10.100402644705772,1.3229796648487449
1761507962069330700,2.75733056640625,2.7749825999736784,-9.192069072136283,1.6885700497969984
1761507962079302700,2.767302734375,2.5009110995545982,-8.361011631470918,2.115185981333256
1761507962089273600,2.777273681640625,2.1947230439066887,-7.760581394034624,2.6200214631035923
1761507962099245600,2.78724560546875,1.882943744122982,-7.375098560136556,3.0257229091659186
1761507962109217500,2.797217529296875,1.6672995904922485,-7.1085612546145915,3.200035227715969
1761507962119188500,2.8071884765625,1.5498141977965831,-6.856198604917526,3.10965528408885
1761507962129160700,2.81716064453125,1.4595041045352817,-6.52287675088942,2.88881940703392
1761507962139131600,2.827131591796875,1.3400380594164132,-6.16403057950437,2.665013281996548
1761507962149103600,2.837103515625,1.256079673269391,-5.80335777721405,2.2312816732361913
1761507962159074600,2.847074462890625,1.3769269436135887,-4.922132576322555,1.3192094986602663
1761507962169046500,2.857046630859375,1.5012299073696136,-3.299607362580299,0.020978490620851515
1761507962179017500,2.867017578125,1.4094398046836256,-0.939858591645956,-1.4058867883771657
1761507962188989700,2.87698974609375,0.8898758325979113,2.3633085092425343,-2.859816599911451
1761507962198961700,2.886961669921875,-0.4023921753838658,6.225175660818815,-3.941813087211549
1761507962208932600,2.8969326171875,-2.4657307728409767,9.469036586257815,-4.51525448769629
1761507962218904800,2.90690478515625,-4.405498520208895,12.086135732173918,-4.643871515259146
1761507962228875500,2.91687548828125,-5.797658688789606,14.165759401738644,-4.449812001448869
1761507962238847700,2.92684765625,-6.494402936077117,15.056498280906677,-3.6937498882740734
1761507962248818700,2.936818603515625,-6.6141732248395675,14.052199658054112,-1.7042454655736683
1761507962258790700,2.946790771484375,-5.90414221047759,11.360772124123573,0.5912473985493183
1761507962268761600,2.95676171875,-4.210068594828248,8.33664992815256,1.483974236664176
1761507962278733800,2.96673388671875,-2.045508633995056,6.221713537666202,0.8107336145609617
1761507962288705500,2.97670556640625,0.04036649717986583,4.305545569333434,-0.24708733964264393
1761507962298676700,2.9866767578125,1.626146911370754,2.2450094620764256,-1.017467316505313
1761507962308648700,2.996648681640625,2.782501305040717,0.3754939393252134,-1.4278008062824605
1761507962318619600,3.00661962890625,3.376801953680813,-1.0949871940374374,-1.4227189729735255
1761507962328591600,3.016591552734375,3.4383725669309495,-2.0977485243201253,-1.0311223323702812
1761507962338562800,3.026562744140625,3.1467773925200104,-2.686681216186285,-0.42012686177790165
1761507962348534500,3.036534423828125,2.5397207226812837,-3.0838439664840696,-0.04039338518679142
1761507962358505700,3.046505615234375,1.8685092683181166,-3.2731460566341877,0.10395984842926263
1761507962368477700,3.056477783203125,1.3338181619882583,-3.2802292928934094,0.1315560036242008
1761507962378449700,3.06644970703125,0.9416244322746992,-3.216118932032585,0.2250935344994068
1761507962388420600,3.076420654296875,0.7439993349373341,-3.094661713096499,0.49084202773123975
1761507962398392600,3.086392578125,0.8068231631189584,-2.963641716045141,0.7916156571149826
1761507962408363500,3.096363525390625,0.9517229247018695,-2.8149861090600488,1.0978306007698178
1761507962418335700,3.106335693359375,0.949946270418167,-2.6512077517449852,1.4022671365752815
1761507962428306700,3.116306640625,0.8064730345070361,-2.42538473392725,1.6319468298211692
1761507962438278700,3.126278564453125,0.5317763879269362,-2.1151941646397114,1.6672472757831216
1761507962448249600,3.13624951171875,0.16920856567025183,-1.717176258817315,1.475206700579822
1761507962458221600,3.1462216796875,-0.32898324030190707,-1.3833096303880215,1.1794199196979402
1761507962468193500,3.156193603515625,-0.911447028414905,-1.1440268270164728,0.8733224649429321
1761507962478164700,3.166164794921875,-1.4303601353764532,-0.9062819007366895,0.5172919355005026
1761507962488136400,3.176136474609375,-1.8358453083395956,-0.7567991952776908,0.07164250993132591
1761507962498107600,3.186107666015625,-2.0722961031556126,-0.6528519140690565,-0.33577947631329297
1761507962508079600,3.19607958984375,-2.187873616403341,-0.6355430518716574,-0.62471156899482
1761507962518050600,3.206050537109375,-2.135062940452993,-0.7445528771668672,-0.7281298578932881
1761507962528022500,3.2160224609375,-1.9908897395789622,-0.9656997198671102,-0.7081263497844338
1761507962537993700,3.22599365234375,-1.7496920424968003,-1.2659762133836745,-0.5166586060330272
1761507962547965700,3.235965576171875,-1.449197230054438,-1.6614239764571188,-0.024998832178115844
1761507962557936600,3.2459365234375,-1.1332678248539567,-2.1043232265353202,0.5373898438945413
1761507962567908900,3.255908935546875,-0.7208885084629059,-2.339515545722842,0.7908122317776084
1761507962577880600,3.265880615234375,-0.18741700705587863,-2.317592467728257,0.8335086332097649
1761507962587851800,3.275851806640625,0.26812749732285734,-2.2849597796708343,0.8943705136686563
1761507962597823700,3.28582373046875,0.573905218604207,-2.325052720606327,0.9996686249643564
1761507962607794700,3.295794677734375,0.819312057814002,-2.279706681448221,0.9822849439650774
1761507962617766700,3.3057666015625,0.9294304288730024,-1.9578180755823849,0.6402782637000084
1761507962627737900,3.31573779296875,1.023738944120705,-1.330959849947691,0.21642507487535476
1761507962637709600,3.32570947265625,1.1098904563978313,-0.5144412222445011,-0.083960724234581
1761507962647680800,3.3356806640625,0.9603168577849864,0.3459364209294319,-0.32088089012801646
1761507962657652700,3.34565283203125,0.5856394955396652,1.0712614505350588,-0.6030448038488626
1761507962667624700,3.355624755859375,0.040949850025773046,1.709395687943697,-1.0226993719398976
1761507962677595600,3.365595703125,-0.6690569066777825,2.5491116513609886,-1.5651619890540838
1761507962687567600,3.375567626953125,-1.4442112583354114,3.6928234210789204,-2.165226900309324
1761507962697538600,3.38553857421875,-2.1516730067312717,5.030941326087713,-2.822003878867626
1761507962707510800,3.3955107421875,-2.651761878496408,6.595296674934029,-3.4723698213398455
1761507962717481700,3.405481689453125,-3.04117153044939,8.265944406810402,-3.911264511951804
1761507962727453700,3.41545361328125,-3.3992221675425767,9.66177566511929,-4.009168421342968
1761507962737424600,3.425424560546875,-3.617659751284122,10.866455990540981,-4.009086003756523
1761507962747396600,3.435396728515625,-3.57488034774363,12.164494398617745,-4.231650312039256
1761507962757368600,3.44536865234375,-3.52162543515712,13.130733632189035,-4.47099858186245
1761507962767339800,3.45533984375,-3.558494737870991,13.132771275496482,-4.231019612920284
1761507962777311500,3.4653115234375,-3.6730256646752357,11.638789439558982,-3.4285213272631165
1761507962787282700,3.47528271484375,-3.7952968303427097,9.066206311717629,-2.458175242894888
1761507962797254700,3.485254638671875,-3.748477211500704,6.236509540259838,-1.8604057491004466
1761507962807225600,3.4952255859375,-3.221350110684335,4.063037958696484,-1.832243484455347
1761507962817197300,3.505197265625,-2.2116525513976812,2.6388164722055194,-1.8640543347358702
1761507962827168500,3.51516845703125,-0.9629854924723505,1.2787275584071873,-1.311252109915018
1761507962837140200,3.52514013671875,0.5238453026667237,-0.2569645905345678,-0.14959464140087364
1761507962847111400,3.535111328125,1.9558681105583906,-1.8526164103984832,1.0875137894168496
1761507962857083400,3.54508349609375,2.9933953415349124,-3.460520393592119,2.109364435572922
1761507962867055400,3.555055419921875,3.6122359726697204,-5.15467233517468,2.9766227781713006
1761507962877026300,3.5650263671875,3.907657427370548,-6.844281372630595,3.6446982725962993
1761507962886998500,3.57499853515625,4.066270072485506,-8.34159381429553,3.9260193057522175
1761507962896969500,3.584969482421875,4.333950410562753,-9.269256356713175,3.7048333000853657
1761507962906941400,3.59494140625,4.796847615791857,-9.490801258820294,3.1507518491089344
1761507962916912600,3.60491259765625,5.233962729510664,-9.365494378718733,2.6140456035643815
1761507962926884400,3.61488427734375,5.460163348469138,-9.228948311722277,2.314955104961991
1761507962936855600,3.62485546875,5.378726589754224,-9.084400140056013,2.0524647367432713
1761507962946827500,3.63482763671875,5.013567581960559,-8.801637091398238,1.7897817685618995
1761507962956799500,3.644799560546875,4.4740185142055156,-8.342592177683114,1.695465654529631
1761507962966770400,3.6547705078125,3.759733057269454,-7.899905109050869,1.8581822278320788
1761507962976742400,3.664742431640625,3.0345690634444353,-7.461773219504952,2.1578879357233642
1761507962986713300,3.67471337890625,2.3967735564708708,-6.994494730451702,2.5620830688759684
1761507962996685600,3.684685546875,1.7888924185067414,-6.663668784892558,3.057145344650745
1761507963006656500,3.694656494140625,1.3870529085695742,-6.525598284807801,3.5461572343453764
1761507963016628500,3.70462841796875,1.3003759111136197,-6.48035512150228,3.7956671249598264
1761507963026599400,3.714599365234375,1.4851462030529976,-6.403848220404982,3.7541517500057813
1761507963036571400,3.7245712890625,1.7638515007525681,-6.41808308198452,3.6046573541089892
1761507963046543400,3.73454345703125,2.028423643681407,-6.531564499735832,3.351693815909326
1761507963056514600,3.7445146484375,2.300370991553366,-6.296495514667034,2.8220108931303023
1761507963066486300,3.754486328125,2.455510992121696,-5.555251031395793,1.9625287374913691
1761507963076457500,3.76445751953125,2.4604440646097063,-4.228786154779791,0.8286378123030066
1761507963086429400,3.774429443359375,2.2653815112367273,-2.26982416985929,-0.36457740851342674
1761507963096400400,3.784400390625,1.647093253287673,0.038192075750231744,-1.500865165710449
1761507963106372400,3.794372314453125,0.6601476240351796,2.580097741255164,-2.383350595796108
1761507963116343600,3.804343505859375,-0.6278519128471612,5.130462023025751,-3.1032962704509495
1761507963126315300,3.814315185546875,-1.8365189698174595,8.019107242536544,-3.884690393280983
1761507963136287500,3.82428759765625,-2.7600901512682436,11.488837363022565,-4.651377945366502
1761507963146258400,3.834258544921875,-3.47329453496933,15.253963803768157,-5.175063381296396
1761507963156230400,3.84423046875,-4.546535761144757,18.08125409860611,-4.233200464090705
1761507963166201300,3.854201416015625,-6.201169346809387,17.2889428604424,-1.0064128385275601
1761507963176173600,3.864173583984375,-7.449909763231873,12.942553824067115,2.3951275428295133
1761507963186144300,3.874144287109375,-7.19084673911333,8.007244955307245,3.309846432521939
1761507963196116500,3.884116455078125,-5.248657609817386,4.613642965734004,1.5927689579039812
1761507963206087400,3.89408740234375,-2.4688290311172603,2.2444471520185467,-0.8040735721498727
1761507963216059400,3.904059326171875,-0.05491875414550304,-0.006382979035377502,-2.6361884617894886
1761507963226031600,3.914031494140625,1.7652835793823003,-1.7915940786808728,-3.6304227867454286
1761507963236002600,3.92400244140625,2.887153811909258,-2.888945079240203,-3.778073308341205
1761507963245974500,3.933974609375,3.3243519277364015,-3.2705197997838256,-3.0940394895449277
1761507963255945500,3.943945556640625,2.930174915251136,-3.409555345508456,-2.2511130396485326
1761507963265917400,3.95391748046875,2.146293651780486,-3.3530753333956,-1.686077648459375
1761507963275888400,3.963888427734375,1.3251999712467193,-3.017866642707586,-1.5255492328509688
1761507963285860600,3.973860595703125,0.5526049486830831,-2.79596167511642,-1.3931106011733412
1761507963295831600,3.98383154296875,0.02780979794561863,-2.707326529330015,-1.076039332461357
1761507963305803500,3.993803466796875,-0.19714052869081497,-2.5364251882672306,-0.7320604753404856
1761507963315775500,4.003775390625,-0.08069090878367424,-2.255193002438545,-0.2248378061726689
1761507963325746400,4.013746337890625,0.3395405824124813,-1.9532740024119615,0.40511166347563266
1761507963335718400,4.023718505859375,0.7781897738307714,-1.6510294236928225,0.9948784680783748
1761507963345689600,4.033689697265625,1.0599024366527796,-1.284064243260026,1.5057009153038263
1761507963355661300,4.043661376953125,1.091367542235553,-0.8402601532965898,1.8564535043433308
1761507963365632500,4.053632568359375,0.8184045875802636,-0.42614217654466624,1.9888038732156157
1761507963375604500,4.0636044921875,0.30395167489796876,-0.12903671427965163,1.9301944478586315
1761507963385575400,4.073575439453125,-0.3889502177476883,0.05665419963598251,1.641716236424446
1761507963395547400,4.08354736328125,-1.0357716194808482,0.16631401327252388,1.292379943923652
1761507963405518600,4.0935185546875,-1.5604966275915502,0.1758896508693695,0.9044014938175677
1761507963415490300,4.103490234375,-1.8960998705551027,0.070950436013937,0.4665098427683115
1761507963425462500,4.113462646484375,-1.9667714896276591,-0.07185702946484089,0.061174891930818556
1761507963435433500,4.12343359375,-1.6945903329998253,-0.3018032646924257,-0.254558406175673
1761507963445405400,4.133405517578125,-1.158064120197296,-0.5533762253165245,-0.43818361973315473
1761507963455376400,4.14337646484375,-0.5507242495030165,-0.7283961076140403,-0.48797874725461005
1761507963465348600,4.1533486328125,-0.14309475798755883,-0.8962608574599027,-0.480214835254848
1761507963475319300,4.1633193359375,-0.011677870573103427,-1.126247424697876,-0.4662766185343265
1761507963485291500,4.17329150390625,-0.06078852296173572,-1.3421429227411745,-0.4811392566233873
1761507963495262500,4.183262451171875,-0.16502718833237887,-1.4905530305325985,-0.41786271623820065
1761507963505234400,4.193234375,-0.33612697457671165,-1.633420701766014,-0.20132395185530186
1761507963515206400,4.203206298828125,-0.5017550514116883,-1.8136837454140184,0.12045008772015571
1761507963525177600,4.213177490234375,-0.6105185007303953,-2.059742326530814,0.42399084372967477
1761507963535149300,4.2231494140625,-0.6415759022951125,-2.2909832777440546,0.65126932105273
1761507963545120500,4.23312060546875,-0.5556006233677268,-2.483504914462566,0.8376941022008657
1761507963555092200,4.24309228515625,-0.3098325496301055,-2.7050591689199206,1.0405413181006908
1761507963565063400,4.2530634765625,0.04649725501984357,-2.8974352596879003,1.1788596554666757
1761507963575035400,4.263035400390625,0.4455748990282416,-2.997784808665514,1.2091603934451938
1761507963585006600,4.273006591796875,0.8983741963520645,-3.0311493181288243,1.1970248422324656
1761507963594978300,4.282978271484375,1.3111013032674788,-3.012738632169366,1.294245153273642
1761507963604949500,4.292949462890625,1.4972329466879366,-2.9370798723340035,1.3317480777159332
1761507963614921200,4.302921142578125,1.452722189310193,-2.6243700137019155,1.2278037191167472
1761507963624893400,4.3128935546875,1.1788076330184936,-2.0612199978679415,0.9905632352277636
1761507963634864400,4.322864501953125,0.7867156101137399,-1.238860242921114,0.6030024260118604
1761507963644836400,4.33283642578125,0.39270021793097254,-0.04848842883706093,0.0036290041521191596
1761507963654807300,4.342807373046875,0.0772524587675929,1.6845242815375328,-0.8034852508679032
1761507963664779500,4.352779541015625,-0.34352731396108865,3.9396933185786005,-1.7426076371937989
1761507963674750200,4.362750244140625,-0.9545707153484224,6.322476343619823,-2.583566878670454
1761507963684722400,4.372722412109375,-1.9059630929216742,8.310761453658342,-3.0448773992300033
1761507963694693400,4.382693359375,-2.9580849587008355,9.652558923962712,-3.230309369948506
1761507963704665300,4.392665283203125,-3.64433323867619,10.747784018409252,-3.610946225120127
1761507963714637600,4.402637451171875,-3.738530987025797,11.902834343743324,-4.219481735339761
1761507963724608500,4.4126083984375,-3.4970687937885523,12.87551500853896,-4.692615087901055
1761507963734580500,4.42258056640625,-3.327073753915727,13.6472569214046,-4.830263563181459
1761507963744551400,4.432551513671875,-3.4789942079156635,14.001934282672405,-4.589296459984779
1761507963754523400,4.4425234375,-3.989012645281851,13.271889823329447,-3.831919757080078
1761507963764494300,4.452494384765625,-4.756349016664922,11.255595593380928,-2.743287777288258
1761507963774466600,4.462466552734375,-5.225004931551218,8.501630646994709,-1.8279048707291483
1761507963784437500,4.4724375,-4.9919899564027785,5.756477368095517,-1.2530889670208096
1761507963794409500,4.482409423828125,-4.137246811984479,3.289343158197403,-0.8454156363636255
1761507963804381400,4.49238134765625,-2.936888441415131,1.0527198316723108,-0.32651860375404357
1761507963814353000,4.502352783203125,-1.6397776695773005,-0.9546949262499809,0.23968436990976333
1761507963824324900,4.512324951171875,-0.40015988628715277,-2.8889637839406728,0.7317290514290332
1761507963834296000,4.522296142578125,0.750049428756535,-4.9154316173791885,1.2333046546205877
1761507963844267800,4.532267822265625,1.7824635545030236,-6.903070246207713,1.6108704317837952
1761507963854239000,4.542239013671875,2.6921950111716986,-8.568460788208245,1.6508181190297007
1761507963864211000,4.5522109375,3.500970185141265,-9.786755797484517,1.4159399803578854
1761507963874182000,4.562181884765625,4.198894874384999,-10.519483796823025,1.2187027132943271
1761507963884153900,4.57215380859375,4.684752099440992,-10.803280864703655,1.2421902641266584
1761507963894125000,4.582125,4.934914901006222,-10.782443828380107,1.5564952829957008
1761507963904096800,4.5920966796875,4.943839965739846,-10.628553243350982,2.0256217380031942
1761507963914069000,4.602069091796875,4.674064993470907,-10.453156928956508,2.4432465538322923
1761507963924040000,4.6120400390625,4.279452512177825,-10.182759440875053,2.737278600001335
1761507963934012000,4.622011962890625,3.8613238384798168,-9.917789823061227,2.9004186594128605
1761507963943982800,4.63198291015625,3.3205168796181677,-9.712478847396373,2.914294040030241
1761507963953954800,4.641954833984375,2.8511212522804734,-9.448328144749999,2.8489731343358753
1761507963963925800,4.65192578125,2.554507957446575,-9.11946736178398,2.7882316653862596
1761507963973898000,4.66189794921875,2.468936290884018,-8.824550349473952,2.7919895566150545
1761507963983869000,4.671868896484375,2.487534023848176,-8.598083773055672,2.8993557063564657
1761507963993841000,4.6818408203125,2.503350601661205,-8.418699265807867,2.9144927774727343
1761507964003813000,4.691813232421875,2.497792967534065,-8.169429905951022,2.7615771749556064
1761507964013783800,4.70178369140625,2.4200302211567757,-7.821471039283275,2.505667061910033
1761507964023756000,4.711756103515625,2.315196220241487,-7.407303378170728,2.1286691477626563
1761507964033727000,4.72172705078125,2.2408312996089457,-6.630420595285296,1.5329934113770722
1761507964043699000,4.731698974609375,2.108646934953332,-5.280815666100382,0.7416714765116572
1761507964053670000,4.741669921875,1.761787553960085,-3.5417981623530386,0.003406593573093414
1761507964063642000,4.75164208984375,1.3406997381955383,-1.3712147034466267,-0.9001075960159302
1761507964073613000,4.761613037109375,0.8987322160094976,1.8623738343030214,-2.1311498586624857
1761507964083585000,4.7715849609375,0.0984016297802329,6.117565180927515,-3.3474835047379132
1761507964093557000,4.781556884765625,-1.1542442696481943,10.46066920428276,-4.256671356049179
1761507964103528000,4.79152783203125,-2.6470520933702586,14.973817659610509,-4.816851123900712
1761507964113500000,4.8015,-4.392592861406505,19.294630356180665,-4.584840065097809
1761507964123471000,4.81147119140625,-6.396012704473733,21.306823580551146,-2.8141972967699167
1761507964133442800,4.82144287109375,-7.6497046058237546,19.877508570313452,0.14694003523886204
1761507964143414000,4.8314140625,-7.373725518217682,15.898291635119914,2.3049270474225283
1761507964153386000,4.841385986328125,-5.9790931143045425,11.011936474621296,2.344083292029798
1761507964163357000,4.85135693359375,-4.071619616819918,6.399004287505149,1.0375243083670735
1761507964173329000,4.861328857421875,-2.207947267138958,2.2913778300195933,-0.6333870428815483
1761507964183300000,4.871300048828125,-0.7320487849026918,-0.8800929819911718,-2.326304474233091
1761507964193271800,4.881271728515625,0.23103519950807094,-2.9203000024467705,-3.5312896278202532
1761507964203244000,4.891244140625,0.3900283683732152,-4.127752130669355,-4.028487162058055
1761507964213215000,4.901215087890625,-0.20639526377022266,-4.718948091292381,-3.8651448580726977
1761507964223187000,4.91118701171875,-0.8847706184133887,-4.634152085277438,-3.3492171966627238
1761507964233158000,4.921157958984375,-1.1838839133694767,-4.1027381009221076,-2.7865903279200195
1761507964243129900,4.9311298828125,-1.066803886604309,-3.5229426552355285,-2.091822349141538
1761507964253100800,4.941100830078125,-0.526959343034029,-3.235693401074409,-1.3452742065042256
1761507964263073000,4.951072998046875,0.3654451312586665,-3.1561563385009763,-0.7302560562670231
1761507964273044000,4.9610439453125,1.2680167793005703,-3.1673762361735105,-0.18977993679493665
1761507964283016000,4.971015869140625,2.1021476360619067,-3.1893384771347044,0.46946138605028387
1761507964292988000,4.98098779296875,2.7956217756375668,-3.1374802796036003,1.2183970083460212
1761507964302958800,4.990958740234375,3.3013547907695173,-2.9769512794733046,1.961074447029829
1761507964312930800,5.000930908203125,3.498161849722266,-2.818063032287359,2.525062082731724
1761507964322902000,5.010902099609375,3.3861025737285613,-2.5358459270745515,2.771055781918764
1761507964332873700,5.020873779296875,3.0434204784199594,-1.8297738794714211,2.570564189234376
1761507964342845000,5.030844970703125,2.6119515538945794,-0.6032540626853704,1.9250135380893945
1761507964352817000,5.04081689453125,2.125382673437893,1.056296521115303,1.0751502746671437
1761507964362787800,5.050787841796875,1.479051977831125,2.6195786877721545,0.3735807991802692
1761507964372759800,5.060759765625,0.6575292582303285,3.569147357049584,-0.02682809343189001
1761507964382732000,5.07073193359375,-0.3074173051819205,3.756611125856638,-0.16695435700267552
1761507964392703000,5.080702880859375,-1.3280930623397231,3.089080113571882,-0.12263152341246604
1761507964402675000,5.090675048828125,-2.026535637977719,1.7756734559714793,-0.02817658543139696
1761507964412646100,5.100646240234375,-2.1541540098920464,0.230156663107872,-0.009513386015594006
1761507964422617900,5.110617919921875,-1.8349913218587637,-1.3174895429998636,0.038540743057429785
1761507964432589000,5.120589111328125,-1.195032499371469,-2.705292393153906,0.17049071443527936
1761507964442561000,5.13056103515625,-0.3856353941112757,-3.8294992519348856,0.25405542508959766
1761507964452532000,5.140531982421875,0.5028460615187883,-4.724298804670572,0.2420551906943321
1761507964462504000,5.15050390625,1.3471341551572085,-5.391202040445804,0.25421909121870995
1761507964472475100,5.16047509765625,2.1055963152110575,-5.754639046752453,0.31342794377356764
1761507964482446800,5.17044677734375,2.6610435015827414,-5.806166404893994,0.44198827271312474
1761507964492419000,5.180419189453125,2.9475007285833357,-5.560376703846455,0.6530772472575307
1761507964502390000,5.19039013671875,3.02270882204175,-4.819554245379567,0.7379065710201859
1761507964512362000,5.200362060546875,2.9706404888913034,-3.4761896718889473,0.5714090178743004
1761507964522333000,5.2103330078125,2.715338278611004,-1.53777187782526,0.13760814327001572
1761507964532305000,5.220304931640625,2.165007412339747,1.0749012683421373,-0.5190051691591739
1761507964542275800,5.23027587890625,1.1935381691604852,3.8890655396252867,-1.2981082584425807
1761507964552248000,5.240248046875,0.020052315686643122,6.760134185913205,-2.3994641107290984
1761507964562219000,5.250218994140625,-1.1209349975034595,10.127613307714462,-3.9956086825460195
1761507964572191000,5.26019091796875,-2.5240029290676116,13.755768734049797,-5.630343389520049
1761507964582163000,5.270162841796875,-4.242445846819877,16.131528728586435,-6.801354085052013
1761507964592134000,5.2801337890625,-5.752935749965906,16.388505594080687,-7.17374538218677
1761507964602105900,5.29010595703125,-6.209502290868759,15.418502039539813,-6.9427131052881474
1761507964612077000,5.3000771484375,-4.803345745639502,14.803704254055022,-7.095702357563376
1761507964622048800,5.310048828125,-2.1992846527338026,14.934543633842468,-7.399573076179623
1761507964632020000,5.32002001953125,-0.5001216049909591,14.44316530727744,-6.981386242553591
1761507964641992000,5.329991943359375,-0.3352238882571459,12.62247314440608,-5.441559185764193
1761507964651963000,5.339962890625,-1.2796753606513143,9.749215463641285,-3.3776123932808635
1761507964661934800,5.349934814453125,-2.309022500042617,6.665877108591794,-1.3945070239678024
1761507964671906000,5.359906005859375,-2.9111577878311277,3.77885569089055,0.3327653891891241
1761507964681877800,5.369877685546875,-3.17471578528136,1.0584721115887163,1.5370719128623604
1761507964691850000,5.37985009765625,-3.009940818144381,-1.3900287095099686,1.9598840682014822
1761507964701821000,5.389821044921875,-2.4672093209609387,-3.5622815629333258,1.8709227592006326
1761507964711793000,5.39979296875,-1.6337018567949533,-5.7831169532179825,1.802800532349944
1761507964721763800,5.409763916015625,-0.7874731504827738,-8.17810771792531,2.0413035835206506
1761507964731736000,5.419736083984375,0.030819793416559695,-10.248962390100955,2.1988076828718186
1761507964741706800,5.429706787109375,0.8619283797472714,-11.34442187782526,1.8231641059428452
1761507964751679000,5.439678955078125,1.6381640969008207,-11.456406919538974,1.197447743819654
1761507964761650000,5.44964990234375,2.177162545035779,-11.213704078590869,0.9641901920869946
1761507964771622000,5.459621826171875,2.509904553349316,-10.798713410657644,1.3146677635774016
1761507964781594000,5.469593994140625,2.8659076102629304,-10.067031120979784,2.0999036565274
1761507964791565000,5.47956494140625,3.363024188219011,-9.217582283577322,2.9625086203619837
1761507964801537000,5.489537109375,3.83285762245208,-8.411919980931282,3.714583125205338
1761507964811508000,5.499508056640625,4.166425852456689,-7.802920068070292,4.34699284748733
1761507964821480700,5.509480712890625,4.318783821091055,-7.427533096250891,4.8946010107964275
1761507964831451600,5.51945166015625,4.341228877133131,-7.243815528234839,5.300678304433823
1761507964841424000,5.529423828125,4.28805959700346,-7.226071781751513,5.586137752568721
1761507964851394600,5.53939453125,4.153894287663698,-7.384490657860041,5.677099879997968
1761507964861366800,5.54936669921875,3.9384883267030117,-7.61910839203,5.575132958951592
1761507964871337700,5.559337646484375,3.5868811666607856,-7.820568537485599,5.286504817652702
1761507964881309700,5.569309814453125,3.128053695088625,-7.834940761709213,4.977816469621658
1761507964891281700,5.57928173828125,2.756042921704054,-7.723236875024438,4.816115795363485
1761507964901252900,5.5892529296875,2.494941669756174,-7.654551461333036,4.7097550232723355
1761507964911224600,5.599224609375,2.4452120086863633,-7.557897259742021,4.5485605449706314
1761507964921195800,5.60919580078125,2.550802380926907,-7.3847583688855165,4.406210175609588
1761507964931167500,5.61916748046875,2.5571166786402464,-7.233726680418848,4.224672581981122
1761507964941138700,5.629138671875,2.5244322603955864,-7.022654072487354,3.9591590665489433
1761507964951110700,5.639110595703125,2.4194430689185857,-6.492545325511694,3.3795942147478457
1761507964961081900,5.649081787109375,2.238438266992569,-5.392467530336976,2.488173490795493
1761507964971053600,5.659053466796875,2.0360247663348914,-3.6626749510526655,1.349512574726343
1761507964981025800,5.66902587890625,1.9940017341196536,-0.9742746559888124,0.0004629413366317749
1761507964990996500,5.67899658203125,1.7651809957906603,3.173492673227191,-1.5935101316601037
1761507965000968700,5.68896875,0.8416802492275833,7.924102561718225,-3.032380321228504
1761507965010939600,5.698939697265625,-0.7468722600251436,12.800239110541343,-4.323750503587722
1761507965020911600,5.70891162109375,-2.885507506006956,17.937450023305416,-5.219174325701594
1761507965030882600,5.718882568359375,-5.575021899792552,21.81846728103161,-4.940988667961955
1761507965040854800,5.728854736328125,-8.661198108616471,21.795053672218323,-2.7424749996006486
1761507965050825500,5.738825439453125,-10.670606086182593,18.00872311540246,0.14516075060665606
1761507965060797700,5.748797607421875,-10.367992089629173,13.256951781916618,1.0232470689505337
1761507965070768600,5.7587685546875,-8.16074507971406,9.420213810899853,-0.5705401260852814
1761507965080740600,5.76874072265625,-5.1979181871831415,6.287348331615329,-3.1334798117905853
1761507965090711600,5.778711669921875,-2.7053771488279104,3.3758313550829886,-5.562201581186056
1761507965100683800,5.788683837890625,-1.0523451531410217,0.8379629822701216,-7.126054825729131
1761507965110655700,5.79865576171875,-0.33399463872313495,-1.0807961715996264,-7.582429643452167
1761507965120626700,5.808626708984375,-0.5738160790160298,-2.2958844937890768,-7.028451360589266
1761507965130598700,5.8185986328125,-1.320996674337983,-2.6259289335817098,-5.663343741846084
1761507965140569600,5.828569580078125,-1.920101800650358,-2.045064981880784,-4.218407968628406
1761507965150541800,5.838541748046875,-2.3104037252679466,-1.3303314889162778,-2.9170009609013796
1761507965160512800,5.8485126953125,-2.347559151446819,-1.1207114178806543,-1.7867232577741146
1761507965170484700,5.858484619140625,-1.8144646666586397,-1.401111829060316,-0.9003642011255025
1761507965180455700,5.86845556640625,-0.8957485240235924,-1.9688322215497494,-0.3017033114492893
1761507965190428000,5.878427978515625,0.14878595536649225,-2.513882517069578,0.22510054876208305
1761507965200399600,5.888399658203125,1.166622689706087,-3.0041718793541192,0.7414695241987704
1761507965210370800,5.898370849609375,2.08725869448781,-3.5256752950698136,1.2694526573225855
1761507965220342500,5.908342529296875,2.8501223043709993,-3.986415322265029,1.6956266903102397
1761507965230313700,5.918313720703125,3.3310224915415048,-4.344774586915969,1.974179427796602
1761507965240285700,5.92828564453125,3.5765117483377455,-4.513342516595125,2.171848364275694
1761507965250257000,5.9382568359375,3.5415526631593703,-4.326519968301057,2.309203409567475
1761507965260228600,5.948228515625,3.2750521825164554,-3.8497850841164585,2.3237962908044456
1761507965270199800,5.95819970703125,2.93439983946979,-3.1751585606127977,2.1097367760166525
1761507965280171500,5.968171630859375,2.5722455664500594,-2.3514555743634697,1.7557658094525337
1761507965290142700,5.978142822265625,2.195245021954179,-1.6074334430724382,1.3567895799919962
1761507965300114700,5.98811474609375,1.7170687067896127,-1.0224421823084353,0.9497080777481198
1761507965310086700,5.998086669921875,1.177837034420669,-0.39535657765865323,0.37896366126239295
1761507965320057600,6.0080576171875,0.6875479643970728,0.1902986999720335,-0.15553835223615167
1761507965330029800,6.01802978515625,0.2549959208101034,0.5322434209167957,-0.5058744694292545
1761507965340000500,6.02800048828125,-0.12494213844239711,0.6397814200937748,-0.6995406000077724
1761507965349972700,6.03797265625,-0.42684681768268345,0.5659165579378604,-0.7641969043135642
1761507965359943700,6.047943603515625,-0.6495213083416224,0.2678396202921867,-0.6377589743554591
1761507965369915600,6.05791552734375,-0.8517483465164899,-0.22461305750608443,-0.36770372384041544
1761507965379886600,6.067886474609375,-1.0618778283789754,-0.8729156377077102,-0.01622954252809286
1761507965389858800,6.07785888671875,-1.1280866228237747,-1.4880717351108788,0.31427988442778587
1761507965399829500,6.08782958984375,-1.026176692661643,-1.9307909524470566,0.5688441358223557
1761507965409801700,6.0978017578125,-0.7798387100815772,-2.179005250293016,0.7066369880095124
1761507965419773700,6.107773681640625,-0.48972383735626934,-2.2662837207734583,0.6471712380841375
1761507965429744600,6.11774462890625,-0.1543663858473301,-2.301583582213521,0.46150604313164945
1761507965439716600,6.127716552734375,0.206439395172894,-2.320430906024575,0.3231429898411035
1761507965449687800,6.137687744140625,0.5780515246286988,-2.2182295917004344,0.20227233862131833
1761507965459659500,6.147659423828125,0.9235060072600841,-1.8240350435584782,0.0029267011016607283
1761507965469630700,6.157630615234375,1.157700255320966,-1.0708557923436164,-0.28100217646509407
1761507965479602700,6.167602783203125,1.2141864049136637,0.0258808757096529,-0.6120677759990095
1761507965489573600,6.17757373046875,1.1665770969986915,1.4881126516431569,-1.0835229662150143
1761507965499545600,6.187545654296875,1.0525082347482442,3.428707205224037,-1.8579747225612402
1761507965509517600,6.197517578125,0.7860577307268977,5.758868647146224,-2.9382489161133765
1761507965519488500,6.207488525390625,0.30182167713195085,8.312921846562624,-4.076181517907977
1761507965529460700,6.217460693359375,-0.47382981039285654,10.873016664230823,-4.98010721090734
1761507965539431700,6.227431640625,-1.3166475392177701,13.160495148724317,-5.444314037430286
1761507965549403600,6.237403564453125,-2.1080153590515254,14.99884337979555,-5.528323276981711
1761507965559374600,6.24737451171875,-2.744697059564292,16.20466761455536,-5.333313330578804
1761507965569346600,6.2573466796875,-3.1067557632550598,16.56521006846428,-4.819108255177736
1761507965579317500,6.2673173828125,-3.3074697665184734,15.82311978201866,-3.952531172841787
1761507965589289700,6.277289794921875,-3.5678245840132234,13.81048232101202,-2.8863287592619655
1761507965599261000,6.287260986328125,-3.7818449358344077,10.964711782109736,-2.0369027182132005
1761507965609232600,6.297232666015625,-3.904889131700992,7.931082922124862,-1.529116569943726
1761507965619204900,6.307204833984375,-3.8164489239647983,5.095713950249553,-1.2215019886240361
1761507965629175600,6.317175537109375,-3.6178646262064573,2.4626655400514603,-1.0326116941452026
1761507965639147800,6.327147705078125,-3.4390830532878636,0.03011632132232189,-0.76754329213202
1761507965649118700,6.33711865234375,-3.117743897998333,-2.100192410340905,-0.43451457583159203
1761507965659090700,6.347090576171875,-2.4576836599856615,-3.8991701695322987,-0.03232055336833
1761507965669061600,6.3570615234375,-1.5183710117846727,-5.446173401561379,0.37473815252184867
1761507965679033900,6.367033935546875,-0.35416064391732216,-6.780673700594901,0.7441141934886575
1761507965689004500,6.377004638671875,0.8926905977576971,-7.901612497490644,1.0239993486225605
1761507965698976800,6.386976806640625,2.0959064035847783,-8.858024749052523,1.2222244576796888
1761507965708947700,6.39694775390625,3.133558722245693,-9.575859130641817,1.4437243516013025
1761507965718919700,6.406919677734375,3.996948406717181,-9.981962143242358,1.7068237916290758
1761507965728891600,6.4168916015625,4.622767352432012,-10.1753605627954,2.0223644897729156
1761507965738862800,6.42686279296875,5.04153987699151,-10.291270084476471,2.4575348991647363
1761507965748834600,6.43683447265625,5.319567713820934,-10.375414348584412,2.896196950064599
1761507965758805800,6.4468056640625,5.445271484285593,-10.3730517111063,3.1784576021581885
1761507965768777700,6.45677783203125,5.443129796081781,-10.175609569120407,3.3755928701519964
1761507965778748700,6.466748779296875,5.2814586401790375,-9.814253460741043,3.535449085587263
1761507965788720600,6.476720703125,4.881714641216397,-9.44345673932135,3.6900384665355084
1761507965798691800,6.48669189453125,4.365644940987229,-9.19698139409721,3.7688366934403774
1761507965808663600,6.49666357421875,3.851701731392741,-8.952324496471881,3.740445003953576
1761507965818633000,6.506633056640625,3.470744265964627,-8.706066593390704,3.727613871692121
1761507965828605200,6.516605224609375,3.2303754209220408,-8.468187227076292,3.7751632661134003
1761507965838577200,6.5265771484375,3.1256296828120944,-8.223321655136345,3.837050397966802
1761507965848548000,6.536548095703125,3.089455376625061,-7.920013831099867,3.7430993178546426
1761507965858520000,6.54652001953125,3.0332740551978348,-7.534510538935661,3.554319205752015
1761507965868491300,6.5564912109375,2.904204023170471,-7.148595158839226,3.241005828268826
1761507965878463000,6.566462890625,2.717341727387905,-6.6161915789246555,2.72323516934067
1761507965888434200,6.57643408203125,2.552527012762427,-5.716061771076918,2.0449837333381176
1761507965898406100,6.58640625,2.41011906799525,-4.2834167396336795,1.1227899777203798
1761507965908377000,6.596377197265625,2.412388474231958,-1.815088936036825,-0.18679244541674853
1761507965918349000,6.60634912109375,2.359137653298676,1.8512275863885879,-1.6803540101155638
1761507965928320300,6.6163203125,1.821631781809032,6.149273155355453,-3.0799031199038027
1761507965938292200,6.626292236328125,0.6927233212083578,10.920085873919724,-4.454409266111255
1761507965948264200,6.63626416015625,-1.2743521198019385,15.89199282723665,-5.237172923728823
1761507965958235100,6.646235107421875,-4.388987238129973,19.213600424700974,-4.641161671778559
1761507965968207000,6.65620703125,-7.720982958617806,19.16302992889285,-2.631351543152332
1761507965978178300,6.66617822265625,-9.766098209381102,16.373450648289918,-0.12540215716958045
1761507965988150000,6.67614990234375,-9.836386966615915,12.861852393889427,1.1016396376639603
1761507965998121200,6.686121337890625,-8.114727424904704,9.872193608534335,0.5674082578003407
1761507966008093200,6.69609326171875,-5.2954982714474195,7.674673627385497,-0.7715677253425121
1761507966018064400,6.706064453125,-2.7879706763625145,5.673624897363782,-2.2019345827206966
1761507966028036000,6.7160361328125,-0.9747092480137943,3.896406550037861,-3.322309023731947
1761507966038007300,6.72600732421875,-0.028570260924100876,2.311299505063891,-3.784998431429267
1761507966047979000,6.73597900390625,-0.03494417987018823,0.926240400660038,-3.480570663452148
1761507966057951200,6.745951171875,-0.9906754634305834,-0.23886779282987117,-2.741574251368642
1761507966067922200,6.755922119140625,-2.0699132996723053,-0.913340002554655,-2.132887934501469
1761507966077894100,6.76589404296875,-2.8085706890597937,-1.1586141552954912,-1.897197894924879
1761507966087865000,6.775864990234375,-3.145037855376303,-1.4742863708645104,-1.9467840558707712
1761507966097837300,6.78583740234375,-2.966127687641978,-2.1007079586476087,-2.0116993033736943
1761507966107808000,6.79580810546875,-2.180927158266306,-2.8908050278931854,-1.8625278558209537
1761507966117780200,6.8057802734375,-0.9385627066165209,-3.692242990842461,-1.5337579660087823
1761507966127751200,6.815751220703125,0.49625616173446174,-4.383362383985519,-1.1297110091552138
1761507966137723100,6.82572314453125,1.9227526074200867,-4.899050975942611,-0.6004381284818053
1761507966147694000,6.835694091796875,3.1819451520130038,-5.257523637840151,-0.019177870939671993
1761507966157666300,6.845666259765625,4.1320168023765085,-5.426487873360514,0.569914103141427
1761507966167638000,6.855637939453125,4.747833409515023,-5.289978631243109,1.0832912032857536
1761507966177609200,6.865609130859375,4.95955425222218,-4.791290858447551,1.4566463770166038
1761507966187581200,6.875581298828125,4.769653611657023,-4.044737747374176,1.6311822751894591
1761507966197552000,6.88555224609375,4.25262471100688,-3.019381138923764,1.4910343843087552
1761507966207524000,6.895524169921875,3.4644156474649903,-1.6804069093465803,1.0201146161437034
1761507966217495300,6.905495361328125,2.5984420839801428,-0.08044131793677807,0.47156478807032104
1761507966227467000,6.915467041015625,1.7073735344663261,1.649851612085104,0.029481238289177415
1761507966237438200,6.925438232421875,0.7186436521455645,3.1673791587829587,-0.17971973055154083
1761507966247410200,6.93541015625,-0.2644146142795682,4.047486169299483,0.020078619171679017
1761507966257381000,6.945381103515625,-1.1852017179697751,4.065979272845388,0.6248822493866085
1761507966267353000,6.95535302734375,-1.9617951625198125,3.354427917048335,1.3250655312120914
1761507966277325000,6.965324951171875,-2.4644664519935846,2.264501513531804,1.7918357784822583
1761507966287296000,6.9752958984375,-2.5791350337028502,1.0567734909772872,1.9075722816839813
1761507966297268200,6.985268310546875,-2.3473335259974,-0.0959200420975685,1.8369354416638612
1761507966307239200,6.9952392578125,-1.810327420723438,-1.1132476578712462,1.6606781265258788
1761507966317211100,7.005211181640625,-1.1411363662719727,-2.061976369193196,1.403634917797148
1761507966327182000,7.01518212890625,-0.44564942556917664,-2.966737343972921,1.1351882715225219
1761507966337154000,7.025154052734375,0.20554010824561117,-3.790337454369664,0.869933991548419
1761507966347125000,7.035125,0.7967898448824882,-4.4403117671757935,0.629775282125175
1761507966357097200,7.04509716796875,1.339318512970209,-4.891510059043765,0.4612573290675878
1761507966367069200,7.055069091796875,1.7743764018982648,-5.0964580466151235,0.31494214772880075
1761507966377040100,7.0650400390625,2.0703256798654794,-5.031541630068421,0.27631021925657984
1761507966387012400,7.075012451171875,2.2051447769388557,-4.648304529270529,0.3850552561357617
1761507966396983000,7.084983154296875,2.180181892856955,-3.960202438122034,0.5490031247988343
1761507966406955300,7.094955322265625,1.97174021795094,-2.963199817496538,0.6293707929775119
1761507966416926200,7.10492626953125,1.5863354177251456,-1.7812772673279047,0.4823503859788179
1761507966426898200,7.114898193359375,1.1366562982484698,-0.47434945035278797,0.24900778631120918
1761507966436869000,7.124869140625,0.7005518228769302,0.9237918384641408,-0.030632746411859986
1761507966446841300,7.13484130859375,0.23081541927754878,2.3021792100191116,-0.36585751145184037
1761507966456812000,7.14481201171875,-0.2456979311108589,3.7516210624843835,-0.7152347204849123
1761507966466784300,7.1547841796875,-0.7292196989566088,5.165217110064625,-1.1640291660815476
1761507966476756000,7.164755859375,-1.1443912764146924,6.533624939396977,-1.7456003892689942
1761507966486727200,7.17472705078125,-1.3957774822950362,8.1286869766742,-2.4744161835998297
1761507966496699100,7.18469921875,-1.4432190324276686,10.038329927152395,-3.338321416378021
1761507966506670300,7.19467041015625,-1.4349962707445025,12.188042447465657,-4.128670999079943
1761507966516642000,7.20464208984375,-1.6528049089327455,14.256390689778327,-4.608314464187622
1761507966526613200,7.21461328125,-2.2425118000417945,15.538075344425438,-4.708456507894397
1761507966536585200,7.224585205078125,-2.982448707845807,15.471370875418184,-4.575467841118574
1761507966546556200,7.23455615234375,-3.8315848260372873,14.034429023563861,-4.2363574668169015
1761507966556528000,7.244528076171875,-4.619752096264064,11.666346139526366,-3.77200246399492
1761507966566499300,7.254499267578125,-5.139274859556555,8.798461968493461,-3.377656524683535
1761507966576471000,7.264470947265625,-5.307586184126138,5.962628886237741,-3.1014912668555974
1761507966586442200,7.274442138671875,-5.192614235556126,3.358715385109186,-2.9382760963812466
1761507966596414200,7.284414306640625,-4.8176861134201285,1.0915887837707996,-2.8114325082316993
1761507966606386200,7.29438623046875,-4.243031245492398,-0.8473089027643204,-2.6523259421199556
1761507966616357000,7.304357177734375,-3.5488425279065963,-2.4843559783339497,-2.3674936859726903
1761507966626329000,7.3143291015625,-2.678660114555061,-3.9785231077104806,-1.7551371561601756
1761507966636300000,7.324300048828125,-1.7437848642796276,-5.440287850654125,-0.8154100819393992
1761507966646272300,7.334272216796875,-0.7382450091943145,-6.794116535013914,0.17465601742118597
1761507966656243200,7.3442431640625,0.3825923731535673,-7.903500503194332,0.9435492628574371
1761507966666215200,7.354215087890625,1.6196745004862545,-8.815023811715841,1.4064265943422913
1761507966676186000,7.36418603515625,2.865511012160778,-9.648232292935251,1.6951327693134546
1761507966686158000,7.374157958984375,4.017654510137438,-10.596972694694996,1.7264564205989241
1761507966696130000,7.384130126953125,5.1811687124341725,-11.462799250924586,1.5985197765156627
1761507966706101200,7.394101318359375,6.293804375886917,-11.881271331232785,1.5828478678703308
1761507966716073000,7.404072998046875,7.087654075664282,-12.033780106514692,1.7937337210580706
1761507966726044200,7.414044189453125,7.490397256442904,-11.872879934984445,2.244726845742762
1761507966736016100,7.42401611328125,7.476110956937074,-11.437156275624035,2.670396144078672
1761507966745987000,7.433987060546875,7.210697102487087,-10.721223343741894,2.836185841216147
1761507966755959000,7.443958984375,6.638649494448304,-9.673651980873942,2.839019603337347
1761507966765930200,7.45393017578125,5.748833575344086,-8.616545312419532,2.8467069429695604
1761507966775902000,7.46390185546875,4.717565697023272,-7.802242607200145,2.9984231065690516
1761507966785873200,7.473873046875,3.730264970722794,-7.1768608838588,3.1823031716704366
1761507966795845000,7.48384521484375,3.009796733498573,-6.6065288475662465,3.2598820859134197
1761507966805817000,7.493817138671875,2.5033055934756994,-6.072222648900747,3.226240220813453
1761507966815788800,7.503788818359375,2.1290116775900123,-5.671820478290319,3.154178316426277
1761507966825760500,7.513760498046875,1.934191993062198,-5.321752072122693,3.0254607510983944
1761507966835731700,7.523731689453125,1.837057022216916,-4.7483939660072325,2.686083834815025
1761507966845703700,7.53370361328125,1.7963707915633915,-3.6519770314276214,2.0331293371543286
1761507966855674600,7.543674560546875,1.7553046216815709,-1.9364584766894577,1.101778461612761
1761507966865646600,7.553646484375,1.616782870697975,0.4264987348973751,-0.1848345893472433
1761507966875617800,7.56361767578125,1.374246618488431,3.8416725048094986,-1.9323714996367691
1761507966885589500,7.573589599609375,1.0721160215377807,8.873089631715416,-4.203674509876966
1761507966895560700,7.583560791015625,0.15527005668878555,15.491981117248534,-6.364799820086359
1761507966905532700,7.59353271484375,-2.4106641346573827,20.892219866108892,-6.591347645047307
1761507966915504600,7.603504638671875,-6.6332642942786215,21.541810732555387,-3.721743810614943
1761507966925475600,7.6134755859375,-10.571142672389746,17.542796040958166,0.4436129513055086
1761507966935447800,7.62344775390625,-12.495682163226604,11.733863093960284,3.1911382200330496
1761507966945418500,7.63341845703125,-11.899964341264962,6.910141792029142,3.3879707056879997
1761507966955390700,7.643390625,-9.18938787022829,4.757358778229356,1.1576724905312061
1761507966965361700,7.653361572265625,-5.699673530855774,4.256574909937381,-1.558316653203964
1761507966975333600,7.663333740234375,-2.455197980649769,3.7129140229493376,-3.3480580897554755
1761507966985304600,7.6733046875,0.05225216528475284,2.926765399068594,-3.8768671523094174
1761507966995276800,7.68327685546875,1.6062313738062977,1.9130612344890832,-3.4557097784399984
1761507967005247500,7.69324755859375,2.0156386886492372,0.7693237458080053,-2.444832946240902
1761507967015219700,7.7032197265625,1.3555056776612997,-0.2986053454339504,-1.3863500209972262
1761507967025191700,7.713191650390625,0.11424129620790481,-1.2640636577606201,-0.798782187743485
1761507967035162600,7.72316259765625,-0.8577303435355424,-1.8833961640655994,-0.7435939690068364
1761507967045134800,7.733134765625,-1.4493264093920588,-2.38163093239665,-1.1079954364314675
1761507967055105800,7.743105712890625,-1.6536659096762536,-3.123061293628812,-1.4854787960082292
1761507967065077800,7.753077880859375,-1.305862525831163,-3.9952608920216557,-1.5884394042670726
1761507967075048700,7.763048583984375,-0.47428398390114307,-4.8542818598896265,-1.413735748311877
1761507967085020700,7.773020751953125,0.6803904938578605,-5.5671986588209865,-1.026120870821178
1761507967094991600,7.78299169921875,2.0091098714023827,-5.888712001633643,-0.5268035679504275
1761507967104963800,7.7929638671875,3.232991156378388,-5.757810662525892,-0.015032733958959578
1761507967114934800,7.802934814453125,4.195898030656576,-5.231402523633838,0.5375093786209821
1761507967124906800,7.81290673828125,4.8204596697866915,-4.349709705230594,0.9385469245254993
1761507967134878700,7.822878662109375,5.000336928987503,-3.080698654195666,1.0332257343903184
1761507967144849700,7.832849609375,4.560700480097532,-1.402234695610404,0.9013061581507325
1761507967154821600,7.842821533203125,3.4084316021755336,0.36621640789210796,0.7547861018896103
1761507967164792800,7.852792724609375,1.6996651520460844,1.9059061020374297,0.73660279494524
1761507967174764500,7.8627646484375,-0.27460429212152954,3.007890607616305,0.8312520864546299
1761507967184735700,7.87273583984375,-2.227473805385828,3.54078869304955,1.0077049241647125
1761507967194707700,7.882707763671875,-3.7828912300169466,3.4161043287605044,1.1008578396365045
1761507967204678700,7.8926787109375,-4.5878521063953634,2.82699452676177,0.9991121601253747
1761507967214650600,7.902650634765625,-4.516958369004726,2.00234519957304,0.75561641523391
1761507967224621800,7.912621826171875,-3.645221127426624,1.1312912640839814,0.6289557824358344
1761507967234593500,7.922593505859375,-2.3159803563565013,0.2934983776837587,0.6563166675701737
1761507967244565800,7.932565673828125,-0.9382470647960901,-0.5492407329469919,0.6512237283453345
1761507967254536700,7.94253662109375,0.21703239311873912,-1.3045271855741738,0.582849864821136
1761507967264508700,7.9525087890625,1.0842167936980724,-1.9316841018944977,0.49930005947500467
1761507967274479600,7.962479736328125,1.551621539479494,-2.5207857205867765,0.41441169900149105
1761507967284451800,7.972451904296875,1.6883838795751331,-3.069824208959937,0.31173341481536626
1761507967294422500,7.982422607421875,1.6541250516206025,-3.493842232957482,0.15226035347878933
1761507967304394800,7.992394775390625,1.4645090732157229,-3.7739042059630155,0.0022670681491494178
1761507967314365700,8.00236572265625,1.260031625765562,-3.9577000999122856,0.008275076392292975
1761507967324337700,8.012337646484376,1.164188740557432,-4.04323961777091,0.18270488384217023
1761507967334308600,8.02230859375,1.0993214238494633,-3.9745618028640743,0.49736733784675596
1761507967344280800,8.03228076171875,1.1233534568220376,-3.845002526015043,0.8130921603858471
1761507967354251500,8.04225146484375,1.3065677514910696,-3.5513971808254716,0.9973524569764732
1761507967364223700,8.0522236328125,1.6450976955562828,-3.1558149777173994,1.0505535935491324
1761507967374195500,8.062195556640624,2.000897923374176,-2.7032652712404728,1.070190606433153
1761507967384166700,8.072166748046875,2.2892490012973545,-2.151383668395877,1.0745376957267523
1761507967394138600,8.082138671875,2.45283680447638,-1.4669973829001188,1.0166478168159723
1761507967404109800,8.09210986328125,2.4972441014796494,-0.6486012708872556,0.7444771815821528
1761507967414081500,8.10208154296875,2.5065228019565344,0.34901334415674207,0.2357011454924941
1761507967424052700,8.112052734375,2.3768092113286254,1.6482599589794873,-0.4733209840878844
1761507967434024400,8.1220244140625,1.9301643449813126,3.247036632865667,-1.374481596288085
1761507967443995600,8.13199560546875,1.2203022574454545,5.206137149474024,-2.348357900609076
1761507967453967600,8.141967529296876,0.09063479517102241,7.471281052562594,-3.269036575488746
1761507967463939600,8.151939697265625,-1.5761860718935727,9.678152214902639,-3.998016912731528
1761507967473910500,8.16191064453125,-3.3711481657028197,11.596596311473846,-4.452627935652434
1761507967483882800,8.1718828125,-4.864426237285137,13.185122224980592,-4.780441547653079
1761507967493853700,8.181853759765625,-5.765472575455903,14.613316122233867,-5.132026203602552
1761507967503825700,8.19182568359375,-6.126259359514713,15.484671086496114,-5.1069192348748444
1761507967513796900,8.201796875,-6.282827054798602,15.045765289968251,-4.409574099084734
1761507967523768600,8.2117685546875,-6.373495752239227,13.198378012394905,-3.3585862057715654
1761507967533739800,8.22173974609375,-6.321603067916631,10.460476312059164,-2.5187942545086144
1761507967543711700,8.231711669921875,-6.076275723683834,7.550912223160267,-2.0769033046901226
1761507967553682700,8.2416826171875,-5.45560933842659,4.996317756474018,-1.9839923812806606
1761507967563654700,8.251654541015625,-4.655317915163934,2.7533652269273996,-1.9885268098399043
1761507967573625900,8.2616259765625,-3.7270676359862085,0.8826789068311452,-1.8766966664269567
1761507967583597600,8.27159765625,-2.7889076649516817,-0.5915758998513221,-1.6914286540985106
1761507967593569800,8.28156982421875,-1.8989792253836988,-1.8921388579696417,-1.2491092497348784
1761507967603540700,8.291540771484375,-1.1101871012568474,-3.2209055817872283,-0.4750818562805652
1761507967613512700,8.3015126953125,-0.4330032944858074,-4.68442798205316,0.5112281054168939
1761507967623483600,8.311483642578125,0.22195815908312796,-6.350900474071502,1.51262253126055
1761507967633455900,8.321455810546874,0.8709580738991498,-7.94184864628911,2.32609200052619
1761507967643426600,8.331426513671875,1.5805018892660736,-9.021023938688636,2.8022280420348045
1761507967653398800,8.341398681640625,2.380851472456753,-9.610584407064318,2.92818929439187
1761507967663369700,8.35136962890625,3.272646874940395,-9.814393745994566,2.835203844441473
1761507967673341700,8.361341796875,4.278543580639362,-9.846420869374274,2.744363589826226
1761507967683312600,8.371312744140624,5.377552285277843,-9.908808059704302,2.637558873359859
1761507967693284900,8.381284912109376,6.349994465142488,-9.957903222262859,2.4612752547368406
1761507967703256600,8.391256591796875,7.071640513974428,-9.87515245833993,2.2163979923591017
1761507967713227800,8.401227783203124,7.516746918708086,-9.549000349810719,1.9560659712180495
1761507967723199500,8.411199462890625,7.645534042140841,-9.00648687929213,1.8435215420559048
1761507967733170700,8.421170654296875,7.376670924019813,-8.278594629547,1.9781769730001686
1761507967743142700,8.431142578125,6.627427258688211,-7.60683635495603,2.259635661061108
1761507967753113900,8.44111376953125,5.626860223579406,-6.994846028107404,2.5888079941943287
1761507967763085600,8.45108544921875,4.730267942208052,-6.425063442391156,2.85978152859807
1761507967773056800,8.461056884765625,3.9241649100571867,-5.992886077335476,3.092415103213489
1761507967783028500,8.471028564453125,3.209484608584642,-5.771627590954304,3.296013722002506
1761507967792999700,8.480999755859376,2.7270032897025347,-5.662812995970249,3.415690779523551
1761507967802971600,8.4909716796875,2.4184978970229625,-5.455350979751348,3.3445591417238116
1761507967812943600,8.500943603515625,2.208709483683109,-5.090631532418728,3.112642775467038
1761507967822914800,8.510914794921876,1.9772230332762002,-4.360992731267213,2.6013991802200676
1761507967832887000,8.520886962890625,1.8468156151652335,-3.320497590395808,1.7610533944666384
1761507967842857700,8.530857666015624,1.8614543813705444,-1.8589982203900812,0.4573261270985007
1761507967852830000,8.540829833984375,1.9004414068907498,0.473696539402008,-1.198204699666798
1761507967862801000,8.55080078125,1.6250620387434958,3.585907353192568,-2.7860972837060687
1761507967872772900,8.56077294921875,0.9522299974411725,7.223138066387176,-4.776992283982038
1761507967882743800,8.570743896484375,0.3377057682007551,13.039224392271041,-7.640773111349344
1761507967892716000,8.580716064453124,-1.7786773139625787,19.663330397582055,-9.36326501223147
1761507967902688000,8.59068798828125,-6.54564797014594,21.420122627472875,-7.472770414337515
1761507967912659000,8.600658935546875,-11.502976947534084,17.409944736826418,-2.287104975005984
1761507967922631000,8.610630859375,-13.502516442036628,11.628602392065524,2.440569443577528
1761507967932601900,8.620601806640625,-11.96136602768898,7.112597378262877,3.9726048235774036
1761507967942574000,8.630573974609375,-7.730781883576512,5.891958436208963,2.3174966061383486
1761507967952545000,8.640544921875,-3.272421834012866,5.6916556440949435,-0.311545491027832
1761507967962517000,8.65051708984375,-0.2611573660492897,4.167078178885579,-1.9614058709412812
1761507967972488000,8.660488037109374,1.4665022928595541,1.9762433745890855,-2.390771393446624
1761507967982460000,8.6704599609375,2.136787572288513,0.028736265140771863,-2.20419522112906
1761507967992430800,8.680430908203125,2.1899393167614933,-1.1500824737936257,-1.66651340855062
1761507968002403000,8.690403076171876,1.8422703729510306,-1.6252905868023633,-0.9206821820110082
1761507968012374000,8.7003740234375,1.2353724008053542,-1.8163216927021741,-0.48829555811882014
1761507968022346000,8.710345947265624,0.5640075094461441,-1.8253420345038174,-0.7409598211109638
1761507968032318000,8.72031787109375,-0.16124036327004432,-1.8553876286774873,-1.5682944418609142
1761507968042289000,8.730288818359375,-0.8053852392703295,-2.266375490710139,-2.0237617893502113
1761507968052260900,8.7402607421875,-1.115182425326109,-3.044825376781821,-1.9051006308734415
1761507968062232000,8.750232177734375,-0.9805372235149145,-3.836244050019979,-1.5195920780122278
1761507968072203800,8.760203857421875,-0.32872692745327947,-4.319517980584502,-0.9941302800595759
1761507968082175000,8.770175048828126,0.5181500136345625,-4.376295514339208,-0.4263090575441718
1761507968092147000,8.78014697265625,1.3622329400897024,-4.093348341286182,0.14729659359157085
1761507968102118000,8.790117919921874,1.9724767155319451,-3.7087645020544526,0.7605594245940447
1761507968112089900,8.80008984375,2.2941782743930816,-3.278223213768005,1.3102274430423975
1761507968122061000,8.81006103515625,2.3267115937292573,-2.6185627887278793,1.6070584722802042
1761507968132032800,8.82003271484375,2.175160265302658,-1.6557278106421232,1.5384408631280064
1761507968142005000,8.8300048828125,1.824246055960655,-0.41072833431363104,1.241970776157081
1761507968151976000,8.839975830078124,1.100767531004548,0.804919959846139,1.0738619884222744
1761507968161948000,8.849947998046876,0.06382043800354004,1.6033441279321907,1.0971303435459732
1761507968171918800,8.8599189453125,-0.9887211144924163,2.01485922870934,1.1511442578062414
1761507968181891000,8.86989111328125,-1.8162053728461265,2.1474416527718305,1.1234414273664355
1761507968191861800,8.87986181640625,-2.314821249449253,2.0857599803626536,1.003990287555754
1761507968201834000,8.889833984375,-2.3884131398826836,1.9308523272454738,0.8575514798372983
1761507968211805000,8.899804931640626,-2.0975690760999917,1.6336229463398455,0.7534267962351441
1761507968221777000,8.90977685546875,-1.4947773702293634,1.1336048017233609,0.7926739339962601
1761507968231747800,8.919747802734374,-0.7805909897536039,0.5616033709138631,0.8463365506008267
1761507968241720000,8.929719970703125,-0.14961013123095035,0.0005874444991350174,0.7136439441621303
1761507968251692000,8.939692138671875,0.41071839744150634,-0.4964110600352287,0.43865503663718697
1761507968261663000,8.9496630859375,0.8898772939026355,-0.8549591252565384,0.1644523110538721
1761507968271635000,8.959635009765625,1.186421615153551,-1.0311258395016192,-0.021943828521668908
1761507968281606000,8.96960595703125,1.2871347367465495,-0.9790542914807796,-0.09503478369563817
1761507968291578000,8.979578125,1.181755376908183,-0.8312082473129033,-0.046566520863771436
1761507968301549000,8.989549072265625,0.8792126920253038,-0.6444710392147303,0.028288813634216783
1761507968311521000,8.99952099609375,0.4621978247880935,-0.3537351119816303,0.0836313461497426
1761507968321492000,9.009491943359375,-0.032041151905059816,-0.02172200246453285,0.10617051021605729
1761507968331464000,9.0194638671875,-0.44432197635769843,0.22426000628471374,0.12126315766870975
1761507968341435000,9.029434814453126,-0.7053688677698373,0.35667174995541573,0.09396598542034626
1761507968351407000,9.039406982421875,-0.7598311103194951,0.4179921878367662,0.01254004036039114
1761507968361378800,9.04937890625,-0.5771066449940204,0.38977147100269793,-0.02394844634234905
1761507968371350000,9.05935009765625,-0.19175123686790466,0.28183599694073197,0.05473872140347957
1761507968381322000,9.069322021484375,0.20999065791368482,0.10866378833651542,0.15722177527844905
1761507968391293000,9.07929296875,0.5557844555020331,-0.09979659126996994,0.21046178255677223
1761507968401265000,9.089264892578125,0.7747007626712322,-0.2794827118128538,0.20709318290650844
1761507968411236000,9.099236083984374,0.786474787095189,-0.40593467029631136,0.17252689643800256
1761507968421207800,9.109207763671876,0.6490186195164919,-0.4365764767974615,0.09252338539659977
1761507968431179000,9.119178955078125,0.449358216959238,-0.35685295174121856,0.014457856680452822
1761507968441151000,9.12915087890625,0.3047966012895107,-0.2291331652790308,-0.017965572540462015
1761507968451122000,9.139121826171875,0.1708089866042137,-0.1303618254035711,-0.036247663684189316
1761507968461094000,9.149093994140625,0.05750526350736618,-0.06396130777895451,-0.06437661058157682
1761507968471066000,9.159066162109376,-0.03894493994414806,0.0014420155018568038,-0.14345511573255063
1761507968481036800,9.169036865234375,-0.16231471450328827,0.06102525432705879,-0.22164543987214563
1761507968491009000,9.179009033203124,-0.22131693857014179,0.07014496484994888,-0.3006523410916328
1761507968500980000,9.18897998046875,-0.1538859088540077,-0.01686696364879608,-0.37343203835934397
1761507968510952000,9.198951904296875,0.003370353215932846,-0.06583586947917938,-0.40764907299876213
1761507968520923000,9.2089228515625,0.1988292124301195,-0.11919511922299861,-0.3821057586804032
1761507968530895000,9.21889501953125,0.3813450034409761,-0.1559124462455511,-0.29266835660040375
1761507968540865800,9.22886572265625,0.48683659148216246,-0.19525076942145822,-0.22830752810984847
1761507968550838000,9.238838134765626,0.48953299095928665,-0.24994389811754225,-0.20152385834157466
1761507968560809000,9.24880908203125,0.35931086628735065,-0.27574995502531524,-0.20505261698961258
1761507968570781000,9.258781005859374,0.1773836888194084,-0.2608867324143648,-0.2032429372191429
1761507968580753000,9.2687529296875,0.036787469649314876,-0.2643155378192663,-0.21761136205047368
1761507968590724000,9.27872412109375,-0.00550035098195076,-0.254758020401001,-0.27120997350811954
1761507968600695800,9.28869580078125,0.006326280412077903,-0.25712416501045227,-0.3019309827253222
1761507968610667000,9.2986669921875,0.08654138837754725,-0.30353520305156706,-0.31959085031747814
1761507968620638700,9.308638671875,0.24630115770101546,-0.3307593100637197,-0.33969138906002044
1761507968630610000,9.31860986328125,0.3750193075507879,-0.30138007084429264,-0.34173575436919923
1761507968640582000,9.328581787109375,0.38626726227402686,-0.2765466583609581,-0.2936567831158638
1761507968650553000,9.338552978515626,0.3145189538806677,-0.2762655033320188,-0.2595338565006852
1761507968660524800,9.34852490234375,0.22253917384147642,-0.2226099009901285,-0.2410486440002918
1761507968670496000,9.35849609375,0.11280278783738612,-0.12115735920667647,-0.20184826799035072
1761507968680468000,9.368468017578126,0.013595394632220268,-0.036167876446247096,-0.13591127622425556
1761507968690440000,9.37843994140625,-0.03696691786944866,-0.008844400712847708,-0.07910422411412
1761507968700411000,9.388410888671874,-0.02822013231217861,-0.02104629516005516,-0.015975567767024038
1761507968710382800,9.3983828125,-0.03227028448581695,-0.05523205787837505,0.03947480903714895
1761507968720353800,9.408353759765625,-0.06774316440522671,-0.08956862724423408,0.08435732233673333
1761507968730326000,9.418325927734376,-0.09072071988880634,-0.07090308974087238,0.12453589572906494
1761507968740297000,9.428296875,-0.14429507368803024,-0.06571195083856582,0.13641688765883445
1761507968750269000,9.43826904296875,-0.19509645564258096,-0.09966916549801826,0.11018471429347991
1761507968760239900,9.448239990234375,-0.19616846878826616,-0.11338906329274177,0.06029664779156446
1761507968770211800,9.4582119140625,-0.19008184235095976,-0.09886369433403014,0.047666591060161585
1761507968780182800,9.468182861328126,-0.15686170979440212,-0.10007131655812262,0.07817804917991161
1761507968790155000,9.478155029296875,-0.08778583548069,-0.10654080483317374,0.10092296495139598
1761507968800127000,9.488126953125,-0.032658407020568846,-0.106616792678833,0.09080781365036963
1761507968810098000,9.498097900390626,0.008528174370527266,-0.07903320470452309,0.09315379225462675
1761507968820070100,9.508070068359375,0.026976269730925557,-0.01632452733516693,0.14976123013943432
1761507968830040800,9.518040771484374,0.015150222858786581,0.0361024099946022,0.23315613718479872
1761507968840013000,9.528012939453125,-0.011487024176120757,0.050562897023558616,0.2688514276832342
1761507968849984000,9.53798388671875,-0.06321428880393505,0.0732639736533165,0.3023486236155033
1761507968859956000,9.5479560546875,-0.07433014158010483,0.06950023720562458,0.3564052079737186
1761507968869927000,9.557927001953125,-0.06131926883757114,0.049958501389622684,0.4155412875533104
1761507968879899100,9.567899169921875,-0.07714519900083541,0.04136602961122989,0.44823856527954337
1761507968889869800,9.577869873046875,-0.11695464681982994,0.013800561815500259,0.4288014588817954
1761507968899842000,9.587842041015625,-0.13838964903652667,-0.07291209147572517,0.37806232850849625
1761507968909813000,9.59781298828125,-0.17737316742539405,-0.18215747909247873,0.30414895103573797
1761507968919785000,9.607784912109375,-0.15765782860815525,-0.2315817274749279,0.19084668924361467
1761507968929757200,9.617757080078125,-0.11387363193929195,-0.22904431795179842,0.05864186632186174
1761507968939728100,9.62772802734375,-0.13781974019408225,-0.2597504218608141,0.004599602749943733
1761507968949700000,9.6377001953125,-0.13690905508995055,-0.24444471617937086,-0.01054798976033926
1761507968959671000,9.647671142578124,-0.13899579823613167,-0.17381810529232025,-0.02361205399483442
1761507968969643000,9.65764306640625,-0.19159166239202022,-0.12491875756680965,-0.026345570611953733
1761507968979614000,9.667614013671875,-0.32632746509611604,-0.10695347728729247,0.002782616455852985
1761507968989586200,9.677586181640624,-0.3933832317590713,-0.07965688956081866,-0.0041571196794509884
1761507968999557000,9.68755712890625,-0.37037995731234546,-0.06973346143960953,-0.005366787730157375
1761507969009529000,9.697529052734374,-0.37382805193960666,-0.11157646091282367,0.0071788055881857864
1761507969019501000,9.7075009765625,-0.24250644159317014,-0.32763913221657276,0.025494506740570067
1761507969029472000,9.717471923828125,0.7207932313948869,0.09042728990018367,-0.10314385587126015
1761507969039444000,9.72744384765625,1.1846949374914169,0.47665655825138087,-0.0808770790055394
1761507969049415200,9.737415283203125,0.913623495671153,0.061900283595919606,0.23894144258797168
1761507969059387000,9.747386962890625,0.34474925697147846,-0.25014555816948414,0.18467822974175213
