time,seconds_elapsed,z,y,x
1761507959386982000,0.07498193359375,-0.06179524213075638,0.1397690773010254,-0.05415014922618866
1761507959396953900,0.084953857421875,-0.06603723019361496,0.14563427865505219,-0.05733111873269081
1761507959406925000,0.094925048828125,-0.06213303282856941,0.14877015352249146,-0.05709436535835266
1761507959416896800,0.104896728515625,-0.0524609237909317,0.13084696233272552,-0.05359561741352081
1761507959426868000,0.114867919921875,-0.036293137818574905,0.09623651951551437,-0.046868473291397095
1761507959436840000,0.12483984375,-0.033847592771053314,0.05070130154490471,-0.04334083944559097
1761507959446812000,0.13481201171875,-0.03905513882637024,0.01880488730967045,-0.03798868507146835
1761507959456783000,0.144783203125,-0.0425272136926651,0.009935962036252022,-0.036218345165252686
1761507959466754800,0.1547548828125,-0.03730368986725807,0.00938175804913044,-0.05244844779372215
1761507959476726000,0.16472607421875,-0.03123071976006031,0.011832265183329582,-0.07465663552284241
1761507959486698000,0.174697998046875,-0.029526030644774437,0.019724009558558464,-0.0990847498178482
1761507959496669000,0.1846689453125,-0.028711780905723572,0.0288221538066864,-0.12229710072278976
1761507959506641000,0.194640869140625,-0.030490774661302567,0.04502003267407417,-0.145975261926651
1761507959516613000,0.204613037109375,-0.019638193771243095,0.059725821018218994,-0.171457439661026
1761507959526583800,0.214583740234375,-0.0037034344859421253,0.07118859887123108,-0.19324688613414764
1761507959536556000,0.22455615234375,0.017031671479344368,0.07119020074605942,-0.21616631746292114
1761507959546527000,0.23452685546875,0.038909804075956345,0.07081176340579987,-0.23442548513412476
1761507959556499000,0.2444990234375,0.06606074422597885,0.05175776407122612,-0.2466486692428589
1761507959566470000,0.254469970703125,0.08828003704547882,0.030610669404268265,-0.25887468457221985
1761507959576442000,0.264442138671875,0.10885855555534363,0.020401092246174812,-0.25627341866493225
1761507959586412800,0.274412841796875,0.11950241029262543,0.037393126636743546,-0.24554914236068726
1761507959596385000,0.284385009765625,0.12236946821212769,0.0707634687423706,-0.2450389862060547
1761507959606356700,0.294356689453125,0.1144484281539917,0.11302916705608368,-0.24660997092723846
1761507959616328000,0.304327880859375,0.10333359241485596,0.16310228407382965,-0.26749387383461
1761507959626300000,0.3142998046875,0.09393370151519775,0.21066127717494965,-0.2837543189525604
1761507959636271000,0.32427099609375,0.08178997039794922,0.2409825325012207,-0.2928764224052429
1761507959646242800,0.334242919921875,0.06471378356218338,0.2665227949619293,-0.289846807718277
1761507959656214000,0.344214111328125,0.05849757790565491,0.27444544434547424,-0.275197297334671
1761507959666185700,0.354185791015625,0.05765948444604874,0.26225563883781433,-0.2428220510482788
1761507959676157000,0.364156982421875,0.05185886472463608,0.22565431892871857,-0.213182732462883
1761507959686129000,0.37412890625,0.044025443494319916,0.15536338090896606,-0.1890888512134552
1761507959696100900,0.384100830078125,0.027064409106969833,0.08160299807786942,-0.16866257786750793
1761507959706071800,0.39407177734375,-0.006979045923799276,0.007282160688191652,-0.15930475294589996
1761507959716044000,0.4040439453125,-0.05754922330379486,-0.05521337687969208,-0.1752658486366272
1761507959726015000,0.414014892578125,-0.09686547517776489,-0.09875685721635818,-0.20369695127010345
1761507959735987000,0.423987060546875,-0.12543617188930511,-0.11485128104686737,-0.2478853315114975
1761507959745958000,0.4339580078125,-0.14973218739032745,-0.10287664830684662,-0.2904333174228668
1761507959755929900,0.443929931640625,-0.17251397669315338,-0.07813869416713715,-0.3104253113269806
1761507959765902000,0.453902099609375,-0.17428845167160034,-0.06222603842616081,-0.2997819781303406
1761507959775873000,0.463873046875,-0.1763944923877716,-0.062123339623212814,-0.27270033955574036
1761507959785845000,0.473844970703125,-0.1808992177248001,-0.0771355852484703,-0.22604654729366302
1761507959795816000,0.48381591796875,-0.179581418633461,-0.10876257717609406,-0.1682204306125641
1761507959805788200,0.4937880859375,-0.16746856272220612,-0.14320842921733856,-0.10801781713962555
1761507959815758600,0.503758544921875,-0.14813916385173798,-0.17206254601478577,-0.058340802788734436
1761507959825730300,0.513730224609375,-0.12188118696212769,-0.17655396461486816,-0.020848024636507034
1761507959835701500,0.523701416015625,-0.08476041257381439,-0.16840800642967224,0.008515074849128723
1761507959845673200,0.533673095703125,-0.058911506086587906,-0.15019278228282928,0.04014836996793747
1761507959855645400,0.5436455078125,-0.0475667379796505,-0.14880309998989105,0.07805049419403076
1761507959865616400,0.553616455078125,-0.038754869252443314,-0.1486814022064209,0.12862791121006012
1761507959875588400,0.56358837890625,-0.0334298200905323,-0.12390842288732529,0.19621674716472626
1761507959885559300,0.573559326171875,-0.026942893862724304,-0.07225322723388672,0.27045825123786926
1761507959895531500,0.583531494140625,-0.02245447039604187,-0.01894037239253521,0.3399980664253235
1761507959905502200,0.593502197265625,-0.013819171115756035,0.01400159765034914,0.3887277841567993
1761507959915474400,0.603474365234375,-0.007847938686609268,0.01724999211728573,0.397481232881546
1761507959925446400,0.6134462890625,-0.007088405080139637,-0.007178386207669973,0.3779682517051697
1761507959935417300,0.623417236328125,-0.015038845129311085,-0.040355052798986435,0.34307512640953064
1761507959945389600,0.6333896484375,-0.03443704545497894,-0.06610994786024094,0.30352503061294556
1761507959955360500,0.643360595703125,-0.06088414788246155,-0.07793551683425903,0.25352469086647034
1761507959965332500,0.65333251953125,-0.0727171078324318,-0.09441383183002472,0.1891012042760849
1761507959975303400,0.663303466796875,-0.06786485016345978,-0.1119110956788063,0.12356898188591003
1761507959985275400,0.673275390625,-0.050959907472133636,-0.130416601896286,0.07305040955543518
1761507959995246300,0.683246337890625,-0.033798180520534515,-0.13342085480690002,0.049366436898708344
1761507960005218600,0.693218505859375,-0.03569807857275009,-0.1188696101307869,0.06842987984418869
1761507960015190300,0.703190185546875,-0.05719601362943649,-0.10175946354866028,0.1071271151304245
1761507960025161500,0.713161376953125,-0.08133144676685333,-0.07300025224685669,0.14759384095668793
1761507960035133400,0.723133544921875,-0.09880511462688446,-0.035364288836717606,0.18739044666290283
1761507960045104400,0.7331044921875,-0.09660561382770538,0.008014344610273838,0.21673448383808136
1761507960055076400,0.743076416015625,-0.07851739972829819,0.036505479365587234,0.22853021323680878
1761507960065047600,0.753047607421875,-0.05405227467417717,0.054791808128356934,0.2378787100315094
1761507960075019300,0.763019287109375,-0.029344694688916206,0.06904759258031845,0.2422686368227005
1761507960084991500,0.772991455078125,-0.01908113993704319,0.08114100992679596,0.25344938039779663
1761507960094962400,0.78296240234375,-0.017977066338062286,0.08011656254529953,0.2517735958099365
1761507960104934400,0.792934326171875,-0.012437159195542336,0.06612697243690491,0.2450973093509674
1761507960114905300,0.8029052734375,-0.006798131391406059,0.019639255478978157,0.2354111671447754
1761507960124877600,0.812877685546875,-0.00671184528619051,-0.04657598212361336,0.21695199608802795
1761507960134848300,0.82284814453125,-0.001053384505212307,-0.12240854650735855,0.19903172552585602
1761507960144820500,0.832820556640625,-0.0012619094923138618,-0.19098308682441711,0.1930321604013443
1761507960154791400,0.84279150390625,-0.0028644073754549026,-0.24399933218955994,0.1958579421043396
1761507960164763400,0.852763427734375,-0.011562824249267578,-0.2921231985092163,0.20804350078105927
1761507960174735400,0.8627353515625,-0.022077785804867744,-0.32596710324287415,0.22999270260334015
1761507960184706600,0.87270654296875,-0.032299529761075974,-0.3431495726108551,0.2770196199417114
1761507960194678300,0.88267822265625,-0.021420365199446678,-0.38146424293518066,0.3655468225479126
1761507960204649500,0.8926494140625,-0.0013292119838297367,-0.45805302262306213,0.4893510639667511
1761507960214621200,0.90262109375,0.06910848617553711,-0.5577784180641174,0.6190938949584961
1761507960224592400,0.91259228515625,0.1887989342212677,-0.6376751661300659,0.669075608253479
1761507960234564400,0.922564453125,0.28651636838912964,-0.6706810593605042,0.6320461630821228
1761507960244535600,0.93253564453125,0.34264034032821655,-0.6537199020385742,0.5476298332214355
1761507960254507300,0.94250732421875,0.3483297824859619,-0.6008632183074951,0.4412781894207001
1761507960264479500,0.9524794921875,0.3244500160217285,-0.5024269223213196,0.34703290462493896
1761507960274450200,0.9624501953125,0.2899392545223236,-0.38704708218574524,0.2796400487422943
1761507960284422400,0.97242236328125,0.2539391815662384,-0.279283344745636,0.22507134079933167
1761507960294393300,0.982393310546875,0.2236451506614685,-0.20085865259170532,0.17812615633010864
1761507960304365300,0.992365234375,0.2051212638616562,-0.15904489159584045,0.1342649608850479
1761507960314336300,1.002336181640625,0.19603177905082703,-0.13602131605148315,0.09764353185892105
1761507960324308500,1.01230859375,0.1862124353647232,-0.12396039068698883,0.05938483029603958
1761507960334280400,1.022280517578125,0.18397240340709686,-0.11853425949811935,0.039073120802640915
1761507960344251400,1.03225146484375,0.18379025161266327,-0.12012283504009247,0.031306009739637375
1761507960354223600,1.0422236328125,0.1968262642621994,-0.13183161616325378,0.03173118457198143
1761507960364194300,1.0521943359375,0.2121032178401947,-0.14978505671024323,0.04809683933854103
1761507960374166500,1.06216650390625,0.22533056139945984,-0.16923153400421143,0.06963016837835312
1761507960384137500,1.072137451171875,0.23512113094329834,-0.20383532345294952,0.08429034054279327
1761507960394109400,1.082109375,0.23906776309013367,-0.24456700682640076,0.09780538082122803
1761507960404080400,1.092080322265625,0.24222920835018158,-0.2885128855705261,0.10072740167379379
1761507960414052600,1.102052490234375,0.2416018843650818,-0.32633405923843384,0.10286834836006165
1761507960424024300,1.1120244140625,0.23475170135498047,-0.357177197933197,0.10798827558755875
1761507960433995500,1.12199560546875,0.2329034060239792,-0.37636399269104004,0.11247139424085617
1761507960443967200,1.13196728515625,0.23461608588695526,-0.3864248991012573,0.1260463297367096
1761507960453938400,1.1419384765625,0.2396528124809265,-0.38075438141822815,0.15124891698360443
1761507960463910400,1.151910400390625,0.242569237947464,-0.3580376207828522,0.19038406014442444
1761507960473881600,1.161881591796875,0.23657947778701782,-0.3087846338748932,0.24296227097511292
1761507960483853300,1.171853271484375,0.20406734943389893,-0.22005131840705872,0.31216078996658325
1761507960493825500,1.181825439453125,0.15103812515735626,-0.12603162229061127,0.3723272979259491
1761507960503796200,1.191796142578125,0.09899330139160156,-0.04739459976553917,0.4094581604003906
1761507960513768400,1.2017685546875,0.06004565581679344,0.016207652166485786,0.40581607818603516
1761507960523739400,1.211739501953125,0.021924901753664017,0.05743551626801491,0.3713957965373993
1761507960533711400,1.22171142578125,-0.01391264796257019,0.07419223338365555,0.3133917450904846
1761507960543682300,1.231682373046875,-0.04464898630976677,0.062494032084941864,0.24038517475128174
1761507960553654500,1.241654541015625,-0.07118811458349228,0.012004132382571697,0.16224946081638336
1761507960563625200,1.251625244140625,-0.07676530629396439,-0.04349108412861824,0.09622969478368759
1761507960573597400,1.261597412109375,-0.07312065362930298,-0.08212371170520782,0.05650601163506508
1761507960583568400,1.271568359375,-0.06432050466537476,-0.10744078457355499,0.05253683775663376
1761507960593540400,1.281540283203125,-0.042691219598054886,-0.12355270981788635,0.0631408765912056
1761507960603512300,1.29151220703125,-0.025952719151973724,-0.11763010919094086,0.0907762348651886
1761507960613483500,1.3014833984375,-0.015956640243530273,-0.09501635283231735,0.12179414182901382
1761507960623455200,1.311455322265625,-0.03050282597541809,-0.053937628865242004,0.1451689749956131
1761507960633426400,1.321426513671875,-0.05866105481982231,-0.00263417256064713,0.15840522944927216
1761507960643398400,1.3313984375,-0.07436385005712509,0.029302187263965607,0.1617155373096466
1761507960653369300,1.341369384765625,-0.0821528360247612,0.03689809888601303,0.15285654366016388
1761507960663341300,1.35134130859375,-0.07693862915039062,0.020289292559027672,0.15467095375061035
1761507960673313300,1.361313232421875,-0.07375465333461761,-0.00580635666847229,0.16280201077461243
1761507960683284200,1.3712841796875,-0.08342752605676651,-0.037307024002075195,0.15587353706359863
1761507960693256400,1.38125634765625,-0.09469053894281387,-0.07018931210041046,0.14327195286750793
1761507960703227400,1.391227294921875,-0.11656494438648224,-0.09939513355493546,0.11448370665311813
1761507960713199400,1.401199462890625,-0.14501836895942688,-0.1345248967409134,0.05972547084093094
1761507960723170300,1.41117041015625,-0.1781901717185974,-0.16727378964424133,-0.023345977067947388
1761507960733142300,1.421142333984375,-0.21197591722011566,-0.19833159446716309,-0.11857718974351883
1761507960743113200,1.43111328125,-0.22883611917495728,-0.21624694764614105,-0.20269979536533356
1761507960753085400,1.44108544921875,-0.22473859786987305,-0.20818187296390533,-0.26442769169807434
1761507960763057400,1.451057373046875,-0.19056278467178345,-0.18057474493980408,-0.2988748848438263
1761507960773028400,1.4610283203125,-0.13909855484962463,-0.1408422738313675,-0.2891431152820587
1761507960783000600,1.47100048828125,-0.07836916297674179,-0.09197219461202621,-0.2224370539188385
1761507960792971300,1.48097119140625,-0.02116289548575878,-0.02916904352605343,-0.11644147336483002
1761507960802943500,1.490943603515625,0.004329680930823088,0.017002712935209274,0.020996278151869774
1761507960812915200,1.500915283203125,0.0007274197414517403,0.029923930764198303,0.15847094357013702
1761507960822887200,1.51088720703125,-0.03029308095574379,-0.0003780482802540064,0.2684783935546875
1761507960832858000,1.520858154296875,-0.08429617434740067,-0.045978445559740067,0.3131805956363678
1761507960842830000,1.530830078125,-0.15361559391021729,-0.07078099250793457,0.300057590007782
1761507960852802000,1.540802001953125,-0.21248184144496918,-0.07233506441116333,0.22457371652126312
1761507960862773200,1.550773193359375,-0.23665696382522583,-0.0363490991294384,0.130194753408432
1761507960872745000,1.560744873046875,-0.23059505224227905,0.030039817094802856,0.04850530996918678
1761507960882716200,1.570716064453125,-0.2097608745098114,0.10806697607040405,-0.005176028236746788
1761507960892688100,1.580688232421875,-0.17253562808036804,0.17821089923381805,-0.02757531963288784
1761507960902659000,1.5906591796875,-0.13404574990272522,0.22990071773529053,-0.008176587522029877
1761507960912631000,1.600631103515625,-0.09704171121120453,0.2668852210044861,0.03687101975083351
1761507960922602200,1.610602294921875,-0.06794960796833038,0.26328596472740173,0.09073957055807114
1761507960932574000,1.620573974609375,-0.04498019069433212,0.22324344515800476,0.13804487884044647
1761507960942546200,1.630546142578125,-0.027716513723134995,0.15139615535736084,0.16374571621418
1761507960952517000,1.64051708984375,-0.010954828932881355,0.06187915802001953,0.15503643453121185
1761507960962489000,1.650489013671875,0.0016142274253070354,-0.012733292765915394,0.12795555591583252
1761507960972460000,1.6604599609375,0.006586795672774315,-0.057655517011880875,0.0837254747748375
1761507960982432000,1.670431884765625,-0.008019577711820602,-0.060072869062423706,0.027480844408273697
1761507960992403000,1.68040283203125,-0.030610816553235054,-0.043306443840265274,-0.04387848451733589
1761507961002375200,1.690375244140625,-0.04021736979484558,-0.004944407381117344,-0.10230797529220581
1761507961012347000,1.700346923828125,-0.04585956409573555,0.04417568817734718,-0.14348720014095306
1761507961022318000,1.710318115234375,-0.049745917320251465,0.10011805593967438,-0.14632026851177216
1761507961032290000,1.7202900390625,-0.05404530465602875,0.16240735352039337,-0.12178796529769897
1761507961042261200,1.73026123046875,-0.06122998148202896,0.20385412871837616,-0.0836285948753357
1761507961052233000,1.74023291015625,-0.07721982151269913,0.21235322952270508,-0.03887216001749039
1761507961062204200,1.7502041015625,-0.09454768151044846,0.20119166374206543,-0.002547708572819829
1761507961072175900,1.76017578125,-0.1119716688990593,0.1647733747959137,0.014887369237840176
1761507961082147000,1.77014697265625,-0.12397880107164383,0.12443234771490097,0.02576877735555172
1761507961092119000,1.780119140625,-0.1317245215177536,0.09720315784215927,0.02380446530878544
1761507961102091000,1.790091064453125,-0.1297849416732788,0.08813216537237167,0.016424313187599182
1761507961112062000,1.80006201171875,-0.12452215701341629,0.09307245910167694,0.00666471803560853
1761507961122034200,1.8100341796875,-0.10976451635360718,0.103752002120018,-0.006483574863523245
1761507961132004900,1.8200048828125,-0.09482454508543015,0.1178649440407753,-0.027605831623077393
1761507961141977000,1.82997705078125,-0.07412166893482208,0.11842687427997589,-0.04547963663935661
1761507961151948000,1.839947998046875,-0.05680297315120697,0.0854443684220314,-0.05904017388820648
1761507961161920000,1.849919921875,-0.03929455578327179,0.02813607081770897,-0.06470498442649841
1761507961171891000,1.859890869140625,-0.021817337721586227,-0.030041895806789398,-0.060168441385030746
1761507961181863200,1.86986328125,0.010283873416483402,-0.06747235357761383,-0.04612026736140251
1761507961191833900,1.879833740234375,0.042196910828351974,-0.10045688599348068,-0.04373861476778984
1761507961201806000,1.88980615234375,0.07771708816289902,-0.12143007665872574,-0.051400262862443924
1761507961211778000,1.899778076171875,0.10240563005208969,-0.13855023682117462,-0.06627103686332703
1761507961221749000,1.9097490234375,0.11057274788618088,-0.1503208726644516,-0.09090900421142578
1761507961231721200,1.91972119140625,0.10760879516601562,-0.1465868353843689,-0.11361594498157501
1761507961241692200,1.929692138671875,0.0969550833106041,-0.14144906401634216,-0.12881140410900116
1761507961251664100,1.9396640625,0.09127693623304367,-0.12586915493011475,-0.13428319990634918
1761507961261635000,1.949635009765625,0.09317151457071304,-0.10359181463718414,-0.12951160967350006
1761507961271607000,1.95960693359375,0.09387622028589249,-0.0682716891169548,-0.1080312430858612
1761507961281579000,1.9695791015625,0.09880280494689941,-0.008776138536632061,-0.08593446016311646
1761507961291550200,1.97955029296875,0.10274062305688858,0.05845022201538086,-0.04913598299026489
1761507961301522000,1.98952197265625,0.11428782343864441,0.11773084849119186,-0.006944853812456131
1761507961311493000,1.9994931640625,0.11666591465473175,0.1548456847667694,0.025311898440122604
1761507961321465000,2.009465087890625,0.11728909611701965,0.15112552046775818,0.049216967076063156
1761507961331436000,2.01943603515625,0.11819695681333542,0.12868019938468933,0.07374277710914612
1761507961341408000,2.029407958984375,0.1168171763420105,0.10008343309164047,0.0979117602109909
1761507961351379200,2.039379150390625,0.11555525660514832,0.077030710875988,0.10935607552528381
1761507961361351000,2.049350830078125,0.1268444061279297,0.06068449094891548,0.10595894604921341
1761507961371322000,2.059322021484375,0.1381491720676422,0.045416686683893204,0.09801942855119705
1761507961381294000,2.069294189453125,0.14353808760643005,0.02649705670773983,0.08256137371063232
1761507961391266000,2.07926611328125,0.14069972932338715,0.007323120255023241,0.05569083243608475
1761507961401237000,2.089237060546875,0.13416646420955658,-0.01532706432044506,0.02790420688688755
1761507961411209200,2.099209228515625,0.11576639860868454,-0.02987689897418022,0.0014284958597272635
1761507961421180000,2.109179931640625,0.09862176328897476,-0.034349143505096436,-0.023011334240436554
1761507961431152000,2.119152099609375,0.0829886719584465,-0.03706168010830879,-0.031239310279488564
1761507961441123000,2.129123046875,0.06264345347881317,-0.0255629513412714,-0.0192971620708704
1761507961451095000,2.139094970703125,0.04879400506615639,-0.006127212196588516,-0.0012769438326358795
1761507961461067000,2.14906689453125,0.03658980503678322,0.003937672358006239,0.024263836443424225
1761507961471038200,2.1590380859375,0.01572337932884693,0.004900376312434673,0.05269073322415352
1761507961481010000,2.169010009765625,-0.010475732386112213,0.01261342316865921,0.07367165386676788
1761507961490981000,2.178981201171875,-0.039912473410367966,0.030358482152223587,0.08847516030073166
1761507961500952800,2.188952880859375,-0.06525351107120514,0.05718796327710152,0.09711365401744843
1761507961510924000,2.198924072265625,-0.0855376198887825,0.08757355064153671,0.12259720265865326
1761507961520896000,2.20889599609375,-0.09479370713233948,0.10832224041223526,0.15490692853927612
1761507961530867200,2.2188671875,-0.0899382010102272,0.10364808887243271,0.17899096012115479
1761507961540839000,2.2288388671875,-0.07970313727855682,0.08487546443939209,0.19126281142234802
1761507961550811100,2.23881103515625,-0.070631243288517,0.05925944820046425,0.19986677169799805
1761507961560782000,2.248781982421875,-0.07252528518438339,0.025958485901355743,0.20600323379039764
1761507961570754000,2.258754150390625,-0.06866808235645294,0.0007373107364401221,0.20848168432712555
1761507961580725000,2.26872509765625,-0.06681399047374725,-0.022814087569713593,0.20503662526607513
1761507961590697000,2.278697021484375,-0.05735146999359131,-0.04625483229756355,0.19241324067115784
1761507961600668000,2.28866796875,-0.05320173129439354,-0.07736135274171829,0.18807148933410645
1761507961610640100,2.29864013671875,-0.048529066145420074,-0.10765185952186584,0.18716347217559814
1761507961620611000,2.308611083984375,-0.050952810794115067,-0.12701277434825897,0.19263146817684174
1761507961630583000,2.3185830078125,-0.05940774828195572,-0.13926438987255096,0.19062897562980652
1761507961640555300,2.32855517578125,-0.061627231538295746,-0.1332259327173233,0.18805795907974243
1761507961650526000,2.33852587890625,-0.07785738259553909,-0.09652764350175858,0.18879562616348267
1761507961660498200,2.348498291015625,-0.10794790834188461,-0.03843451291322708,0.19189395010471344
1761507961670469000,2.35846923828125,-0.1400410383939743,-0.0037855736445635557,0.1871500313282013
1761507961680441000,2.368441162109375,-0.173727884888649,-0.01425605732947588,0.15933091938495636
1761507961690412000,2.378412109375,-0.1959226429462433,-0.07127538323402405,0.10983707755804062
1761507961700384300,2.38838427734375,-0.2005980908870697,-0.15167248249053955,0.04119143262505531
1761507961710355000,2.39835498046875,-0.17805062234401703,-0.2399916648864746,-0.03366945683956146
1761507961720327200,2.4083271484375,-0.14554007351398468,-0.29469403624534607,-0.09426728636026382
1761507961730299000,2.418298828125,-0.12257211655378342,-0.29933834075927734,-0.14889517426490784
1761507961740270000,2.42827001953125,-0.1270614117383957,-0.25443533062934875,-0.2154712677001953
1761507961750242000,2.438241943359375,-0.15646125376224518,-0.17626312375068665,-0.2891402542591095
1761507961760213200,2.448213134765625,-0.20004653930664062,-0.08286260813474655,-0.36313432455062866
1761507961770185000,2.45818505859375,-0.24530421197414398,0.014562324620783329,-0.43432366847991943
1761507961780156200,2.46815625,-0.2739955186843872,0.11227477341890335,-0.5060018301010132
1761507961790127900,2.4781279296875,-0.29139140248298645,0.21601681411266327,-0.5728145837783813
1761507961800099000,2.48809912109375,-0.28690797090530396,0.3249337077140808,-0.6337724924087524
1761507961810070800,2.49807080078125,-0.2562529146671295,0.42311808466911316,-0.6887445449829102
1761507961820041700,2.508041748046875,-0.18766452372074127,0.5409959554672241,-0.7168150544166565
1761507961830013700,2.518013671875,-0.08780284970998764,0.6581099629402161,-0.7096114754676819
1761507961839985700,2.527985595703125,0.020550787448883057,0.7278462052345276,-0.6610945463180542
1761507961849956900,2.537956787109375,0.07707837224006653,0.787083089351654,-0.5873559713363647
1761507961859928600,2.547928466796875,0.07678063213825226,0.8732802867889404,-0.5481276512145996
1761507961869899800,2.557899658203125,0.029661905020475388,1.0413495302200317,-0.5927801132202148
1761507961879871500,2.56787158203125,-0.01827605813741684,1.2721704244613647,-0.741299033164978
1761507961889842700,2.5778427734375,-0.04506641626358032,1.5564119815826416,-0.967025876045227
1761507961899814700,2.587814697265625,-0.06374689191579819,1.8670997619628906,-1.2052185535430908
1761507961909785900,2.597785888671875,-0.05589845031499863,2.1215109825134277,-1.3595470190048218
1761507961919757600,2.607757568359375,-0.011009011417627335,2.205626964569092,-1.3734012842178345
1761507961929729800,2.617729736328125,0.06505215167999268,2.047563314437866,-1.2429224252700806
1761507961939700500,2.627700439453125,0.19168545305728912,1.6109272241592407,-0.9916225075721741
1761507961949672700,2.637672607421875,0.3587881028652191,0.997591495513916,-0.6403323411941528
1761507961959643600,2.6476435546875,0.5550958514213562,0.3993490934371948,-0.2494485080242157
1761507961969615600,2.65761572265625,0.7101227641105652,-0.0656941831111908,0.09454085677862167
1761507961979586600,2.667586669921875,0.7652504444122314,-0.36137855052948,0.33209988474845886
1761507961989558800,2.677558837890625,0.7085168361663818,-0.48899349570274353,0.43665164709091187
1761507961999529700,2.68752978515625,0.5942911505699158,-0.4819079041481018,0.42377153038978577
1761507962009501700,2.697501708984375,0.44478219747543335,-0.40862372517585754,0.3261934518814087
1761507962019473700,2.7074736328125,0.271767795085907,-0.3014189898967743,0.17532086372375488
1761507962029444600,2.717444580078125,0.07446623593568802,-0.1885191798210144,0.028222108259797096
1761507962039416600,2.72741650390625,-0.12136798352003098,-0.09279931336641312,-0.08746907114982605
1761507962049387800,2.7373876953125,-0.2894119322299957,-0.004489263519644737,-0.15169134736061096
1761507962059359500,2.747359375,-0.41184356808662415,0.06259017437696457,-0.1586643010377884
1761507962069330700,2.75733056640625,-0.4662359058856964,0.10362281650304794,-0.1221284493803978
1761507962079302700,2.767302734375,-0.4513760209083557,0.12370704114437103,-0.06011461466550827
1761507962089273600,2.777273681640625,-0.385753333568573,0.12360893189907074,0.02773156389594078
1761507962099245600,2.78724560546875,-0.2957129180431366,0.10153824836015701,0.12982997298240662
1761507962109217500,2.797217529296875,-0.21331624686717987,0.06367973238229752,0.2441416084766388
1761507962119188500,2.8071884765625,-0.13949421048164368,0.007174383383244276,0.3668630123138428
1761507962129160700,2.81716064453125,-0.06009597331285477,-0.07650778442621231,0.49381741881370544
1761507962139131600,2.827131591796875,0.0027953735552728176,-0.2039208710193634,0.6204763054847717
1761507962149103600,2.837103515625,-0.008556023240089417,-0.3900092542171478,0.6748476028442383
1761507962159074600,2.847074462890625,-0.10098955035209656,-0.645934522151947,0.6148819923400879
1761507962169046500,2.857046630859375,-0.2560718059539795,-0.9519233703613281,0.4293619990348816
1761507962179017500,2.867017578125,-0.4338196814060211,-1.3069182634353638,0.1259499043226242
1761507962188989700,2.87698974609375,-0.5728822350502014,-1.6057188510894775,-0.19245672225952148
1761507962198961700,2.886961669921875,-0.6721158623695374,-1.7270128726959229,-0.3936215341091156
1761507962208932600,2.8969326171875,-0.7436167597770691,-1.584204077720642,-0.4149424433708191
1761507962218904800,2.90690478515625,-0.7826568484306335,-1.2324963808059692,-0.2891930639743805
1761507962228875500,2.91687548828125,-0.7582388520240784,-0.6843831539154053,-0.0667666420340538
1761507962238847700,2.92684765625,-0.575214147567749,0.0872642919421196,0.2274700552225113
1761507962248818700,2.936818603515625,-0.16370193660259247,0.8468998670578003,0.5316435694694519
1761507962258790700,2.946790771484375,0.29326188564300537,1.3902084827423096,0.7618643045425415
1761507962268761600,2.95676171875,0.6074799299240112,1.606812834739685,0.8731216788291931
1761507962278733800,2.96673388671875,0.7278190851211548,1.4316800832748413,0.8759467601776123
1761507962288705500,2.97670556640625,0.7021836042404175,0.9331002831459045,0.8020620346069336
1761507962298676700,2.9866767578125,0.5594762563705444,0.31659823656082153,0.6612029075622559
1761507962308648700,2.996648681640625,0.3638360798358917,-0.19235418736934662,0.45242446660995483
1761507962318619600,3.00661962890625,0.18902620673179626,-0.4544481337070465,0.17454329133033752
1761507962328591600,3.016591552734375,0.09017316997051239,-0.48353448510169983,-0.12661080062389374
1761507962338562800,3.026562744140625,0.04278407618403435,-0.34701019525527954,-0.39575251936912537
1761507962348534500,3.036534423828125,-0.0008123861625790596,-0.09400738775730133,-0.5877621173858643
1761507962358505700,3.046505615234375,-0.06072818487882614,0.18076398968696594,-0.6981648206710815
1761507962368477700,3.056477783203125,-0.14560064673423767,0.4134286344051361,-0.7258865237236023
1761507962378449700,3.06644970703125,-0.20620378851890564,0.5505720376968384,-0.6910768747329712
1761507962388420600,3.076420654296875,-0.23576100170612335,0.5974210500717163,-0.6445218324661255
1761507962398392600,3.086392578125,-0.24064283072948456,0.5401018261909485,-0.6180380582809448
1761507962408363500,3.096363525390625,-0.20832599699497223,0.398375540971756,-0.6154135465621948
1761507962418335700,3.106335693359375,-0.13503500819206238,0.19863633811473846,-0.6214035153388977
1761507962428306700,3.116306640625,-0.04357888549566269,-0.041741956025362015,-0.6303781867027283
1761507962438278700,3.126278564453125,0.03819959610700607,-0.3019346594810486,-0.6270697712898254
1761507962448249600,3.13624951171875,0.11069396883249283,-0.5569460988044739,-0.5915584564208984
1761507962458221600,3.1462216796875,0.1744508594274521,-0.7626838088035583,-0.5173864960670471
1761507962468193500,3.156193603515625,0.21724237501621246,-0.9007874131202698,-0.40811842679977417
1761507962478164700,3.166164794921875,0.22180916368961334,-0.9734038710594177,-0.2717970907688141
1761507962488136400,3.176136474609375,0.17964604496955872,-0.9469186067581177,-0.13621458411216736
1761507962498107600,3.186107666015625,0.10871408134698868,-0.8132944703102112,-0.010302462615072727
1761507962508079600,3.19607958984375,0.026633266359567642,-0.5840309262275696,0.08364524692296982
1761507962518050600,3.206050537109375,-0.05556493625044823,-0.301229864358902,0.14910201728343964
1761507962528022500,3.2160224609375,-0.15180566906929016,0.0002840816741809249,0.20669275522232056
1761507962537993700,3.22599365234375,-0.22835052013397217,0.26183632016181946,0.26440292596817017
1761507962547965700,3.235965576171875,-0.25393033027648926,0.4649167060852051,0.3384701609611511
1761507962557936600,3.2459365234375,-0.26654866337776184,0.5974395871162415,0.41794610023498535
1761507962567908900,3.255908935546875,-0.2874506711959839,0.649818480014801,0.47702401876449585
1761507962577880600,3.265880615234375,-0.29229122400283813,0.5918939113616943,0.5152558088302612
1761507962587851800,3.275851806640625,-0.2662672996520996,0.44640910625457764,0.5477489829063416
1761507962597823700,3.28582373046875,-0.22240373492240906,0.23965194821357727,0.5592175722122192
1761507962607794700,3.295794677734375,-0.20530042052268982,0.05313171446323395,0.5575076937675476
1761507962617766700,3.3057666015625,-0.22364294528961182,-0.08849252760410309,0.5371571779251099
1761507962627737900,3.31573779296875,-0.2403707504272461,-0.21603462100028992,0.4690517485141754
1761507962637709600,3.32570947265625,-0.21723933517932892,-0.31625232100486755,0.3566911220550537
1761507962647680800,3.3356806640625,-0.17235539853572845,-0.37671855092048645,0.23577618598937988
1761507962657652700,3.34565283203125,-0.127130389213562,-0.3953404426574707,0.1149301826953888
1761507962667624700,3.355624755859375,-0.1075650155544281,-0.36786532402038574,0.014444343745708466
1761507962677595600,3.365595703125,-0.11097679287195206,-0.2921721637248993,-0.05346253514289856
1761507962687567600,3.375567626953125,-0.15837542712688446,-0.20390120148658752,-0.09407681226730347
1761507962697538600,3.38553857421875,-0.23821327090263367,-0.12760403752326965,-0.12375002354383469
1761507962707510800,3.3955107421875,-0.3311895430088043,-0.08701276779174805,-0.17134502530097961
1761507962717481700,3.405481689453125,-0.38689088821411133,-0.04409300163388252,-0.23116014897823334
1761507962727453700,3.41545361328125,-0.3726300001144409,0.07307467609643936,-0.31237590312957764
1761507962737424600,3.425424560546875,-0.3149608373641968,0.21369890868663788,-0.42959120869636536
1761507962747396600,3.435396728515625,-0.22552169859409332,0.3599235713481903,-0.5623263120651245
1761507962757368600,3.44536865234375,-0.08636622130870819,0.5303969979286194,-0.6669515371322632
1761507962767339800,3.45533984375,0.0999055728316307,0.7107717990875244,-0.722813606262207
1761507962777311500,3.4653115234375,0.3043242394924164,0.8744818568229675,-0.6749997138977051
1761507962787282700,3.47528271484375,0.42419636249542236,1.0158461332321167,-0.490619957447052
1761507962797254700,3.485254638671875,0.4152257740497589,1.0787060260772705,-0.21193426847457886
1761507962807225600,3.4952255859375,0.291123628616333,1.0694407224655151,0.09350952506065369
1761507962817197300,3.505197265625,0.14873453974723816,1.0099194049835205,0.3715030550956726
1761507962827168500,3.51516845703125,0.08258339017629623,0.9173963665962219,0.5471547245979309
1761507962837140200,3.52514013671875,0.11109386384487152,0.8119977712631226,0.5837867856025696
1761507962847111400,3.535111328125,0.2012445330619812,0.7103630304336548,0.5258851051330566
1761507962857083400,3.54508349609375,0.32343435287475586,0.608291506767273,0.449934720993042
1761507962867055400,3.555055419921875,0.44705861806869507,0.45015987753868103,0.3991503119468689
1761507962877026300,3.5650263671875,0.5372257828712463,0.25914624333381653,0.4175759255886078
1761507962886998500,3.57499853515625,0.5532969236373901,0.0619681254029274,0.462173193693161
1761507962896969500,3.584969482421875,0.49934399127960205,-0.1325387805700302,0.48404014110565186
1761507962906941400,3.59494140625,0.41379448771476746,-0.34370481967926025,0.4426381289958954
1761507962916912600,3.60491259765625,0.3383902609348297,-0.5267401337623596,0.34526923298835754
1761507962926884400,3.61488427734375,0.2648499011993408,-0.664030134677887,0.20031465590000153
1761507962936855600,3.62485546875,0.16394859552383423,-0.6685260534286499,0.023792074993252754
1761507962946827500,3.63482763671875,0.04755459725856781,-0.5628753304481506,-0.1585322469472885
1761507962956799500,3.644799560546875,-0.05186866223812103,-0.38263797760009766,-0.3103060722351074
1761507962966770400,3.6547705078125,-0.11861484497785568,-0.1748889982700348,-0.39125120639801025
1761507962976742400,3.664742431640625,-0.14756180346012115,0.005105532705783844,-0.39419612288475037
1761507962986713300,3.67471337890625,-0.14563637971878052,0.11720654368400574,-0.3022845983505249
1761507962996685600,3.684685546875,-0.09252948313951492,0.1451934427022934,-0.1134728491306305
1761507963006656500,3.694656494140625,-0.01459926925599575,0.08471411466598511,0.11401836574077606
1761507963016628500,3.70462841796875,0.0652119368314743,-0.034745171666145325,0.34415754675865173
1761507963026599400,3.714599365234375,0.13514935970306396,-0.1842709183692932,0.54029381275177
1761507963036571400,3.7245712890625,0.19824683666229248,-0.3176465332508087,0.6852284073829651
1761507963046543400,3.73454345703125,0.24110986292362213,-0.4351813793182373,0.7691020965576172
1761507963056514600,3.7445146484375,0.2389548271894455,-0.5681119561195374,0.7773603200912476
1761507963066486300,3.754486328125,0.17134617269039154,-0.7048597931861877,0.6918956637382507
1761507963076457500,3.76445751953125,0.07291761040687561,-0.8617135882377625,0.5166189670562744
1761507963086429400,3.774429443359375,-0.07179144769906998,-1.0477492809295654,0.2767409682273865
1761507963096400400,3.784400390625,-0.24596992135047913,-1.210048794746399,0.01161715853959322
1761507963106372400,3.794372314453125,-0.4252176284790039,-1.2926678657531738,-0.23910267651081085
1761507963116343600,3.804343505859375,-0.6560543179512024,-1.219883680343628,-0.4805651307106018
1761507963126315300,3.814315185546875,-0.9187819957733154,-0.9627620577812195,-0.7203162908554077
1761507963136287500,3.82428759765625,-1.1536184549331665,-0.5516523122787476,-0.9781134724617004
1761507963146258400,3.834258544921875,-1.1679294109344482,0.08288197964429855,-1.1717424392700195
1761507963156230400,3.84423046875,-0.7330237627029419,0.9116420149803162,-1.1328314542770386
1761507963166201300,3.854201416015625,0.06173263117671013,1.6986933946609497,-0.7967649698257446
1761507963176173600,3.864173583984375,0.8311092257499695,2.231091022491455,-0.27747684717178345
1761507963186144300,3.874144287109375,1.2551189661026,2.3639402389526367,0.2344469428062439
1761507963196116500,3.884116455078125,1.3071345090866089,1.9265450239181519,0.6390812397003174
1761507963206087400,3.89408740234375,1.1052662134170532,1.012879729270935,0.9145482182502747
1761507963216059400,3.904059326171875,0.7476545572280884,-0.02964128367602825,1.038413405418396
1761507963226031600,3.914031494140625,0.32826706767082214,-0.8289324045181274,0.9522042870521545
1761507963236002600,3.92400244140625,0.0005288608372211456,-1.2142382860183716,0.6697965264320374
1761507963245974500,3.933974609375,-0.1787419319152832,-1.1367219686508179,0.26348721981048584
1761507963255945500,3.943945556640625,-0.2504965662956238,-0.5886682271957397,-0.1790742129087448
1761507963265917400,3.95391748046875,-0.30545082688331604,0.24884606897830963,-0.5797366499900818
1761507963275888400,3.963888427734375,-0.38082653284072876,1.0892126560211182,-0.8490919470787048
1761507963285860600,3.973860595703125,-0.46125712990760803,1.6959489583969116,-0.9366888403892517
1761507963295831600,3.98383154296875,-0.5501308441162109,1.9688209295272827,-0.8627405762672424
1761507963305803500,3.993803466796875,-0.6108582019805908,1.9539555311203003,-0.6983358860015869
1761507963315775500,4.003775390625,-0.6238405704498291,1.7044602632522583,-0.5435287356376648
1761507963325746400,4.013746337890625,-0.5889798402786255,1.3159600496292114,-0.4482865035533905
1761507963335718400,4.023718505859375,-0.5002102851867676,0.8862507343292236,-0.42304933071136475
1761507963345689600,4.033689697265625,-0.3599880039691925,0.4809410870075226,-0.4530003070831299
1761507963355661300,4.043661376953125,-0.19299769401550293,0.12981851398944855,-0.5066733360290527
1761507963365632500,4.053632568359375,-0.01915542408823967,-0.16864874958992004,-0.5478938817977905
1761507963375604500,4.0636044921875,0.13091343641281128,-0.40175366401672363,-0.537769079208374
1761507963385575400,4.073575439453125,0.2466183602809906,-0.5896691083908081,-0.4690059423446655
1761507963395547400,4.08354736328125,0.3355567455291748,-0.7104772925376892,-0.34668534994125366
1761507963405518600,4.0935185546875,0.37801921367645264,-0.746741533279419,-0.1873001605272293
1761507963415490300,4.103490234375,0.3754766881465912,-0.6862771511077881,-0.028266573324799538
1761507963425462500,4.113462646484375,0.33801618218421936,-0.5701455473899841,0.09900891780853271
1761507963435433500,4.12343359375,0.2792186439037323,-0.4410996735095978,0.16354849934577942
1761507963445405400,4.133405517578125,0.23027676343917847,-0.3183369040489197,0.1486961990594864
1761507963455376400,4.14337646484375,0.18912985920906067,-0.22672948241233826,0.07980580627918243
1761507963465348600,4.1533486328125,0.15103000402450562,-0.1506129652261734,-0.005336329806596041
1761507963475319300,4.1633193359375,0.09569404274225235,-0.07949564605951309,-0.08214002847671509
1761507963485291500,4.17329150390625,0.024969041347503662,0.0002713098074309528,-0.13625361025333405
1761507963495262500,4.183262451171875,-0.023203548043966293,0.08294275403022766,-0.1697913259267807
1761507963505234400,4.193234375,-0.0550474114716053,0.17681920528411865,-0.16552197933197021
1761507963515206400,4.203206298828125,-0.06842286884784698,0.2630752623081207,-0.12833918631076813
1761507963525177600,4.213177490234375,-0.06466683745384216,0.35253968834877014,-0.05542789772152901
1761507963535149300,4.2231494140625,-0.059161555022001266,0.43873316049575806,0.04788517579436302
1761507963545120500,4.23312060546875,-0.042277991771698,0.4739333689212799,0.1558075100183487
1761507963555092200,4.24309228515625,-0.02808946743607521,0.45014655590057373,0.2529100775718689
1761507963565063400,4.2530634765625,-0.020769353955984116,0.37059149146080017,0.32416415214538574
1761507963575035400,4.263035400390625,-0.032321080565452576,0.24874041974544525,0.36008432507514954
1761507963585006600,4.273006591796875,-0.02968738228082657,0.08229734003543854,0.34483036398887634
1761507963594978300,4.282978271484375,-0.008620713837444782,-0.08632656186819077,0.2883132994174957
1761507963604949500,4.292949462890625,0.013421496376395226,-0.21460993587970734,0.21907132863998413
1761507963614921200,4.302921142578125,0.0324615016579628,-0.3194407522678375,0.15445184707641602
1761507963624893400,4.3128935546875,0.03385598212480545,-0.40770745277404785,0.10741780698299408
1761507963634864400,4.322864501953125,0.009766358882188797,-0.5132445096969604,0.06770581752061844
1761507963644836400,4.33283642578125,-0.03539131581783295,-0.6522389650344849,0.01933504268527031
1761507963654807300,4.342807373046875,-0.08917465060949326,-0.7921068072319031,-0.07049897313117981
1761507963664779500,4.352779541015625,-0.1266503483057022,-0.8855297565460205,-0.19679513573646545
1761507963674750200,4.362750244140625,-0.1113068163394928,-0.8766396045684814,-0.3203820586204529
1761507963684722400,4.372722412109375,-0.04626914858818054,-0.7158122658729553,-0.4102343022823334
1761507963694693400,4.382693359375,0.0007143369875848293,-0.46192485094070435,-0.4654482901096344
1761507963704665300,4.392665283203125,-0.02138557843863964,-0.21749116480350494,-0.5507709383964539
1761507963714637600,4.402637451171875,-0.08942295610904694,-0.036431364715099335,-0.6913594603538513
1761507963724608500,4.4126083984375,-0.1256672441959381,0.08677639812231064,-0.8828691840171814
1761507963734580500,4.42258056640625,-0.09060939401388168,0.1863626390695572,-1.0678577423095703
1761507963744551400,4.432551513671875,0.03384919837117195,0.3240107297897339,-1.185843586921692
1761507963754523400,4.4425234375,0.22111442685127258,0.5230767130851746,-1.148107647895813
1761507963764494300,4.452494384765625,0.4053870141506195,0.7586832046508789,-0.9549750685691833
1761507963774466600,4.462466552734375,0.5128437280654907,0.9760120511054993,-0.6681933403015137
1761507963784437500,4.4724375,0.5424008965492249,1.0691859722137451,-0.34964150190353394
1761507963794409500,4.482409423828125,0.5381920337677002,1.0005887746810913,-0.04818098992109299
1761507963804381400,4.49238134765625,0.5444292426109314,0.8004023432731628,0.21214857697486877
1761507963814353000,4.502352783203125,0.5516562461853027,0.5581497550010681,0.41914066672325134
1761507963824324900,4.512324951171875,0.572874903678894,0.35514646768569946,0.5661842823028564
1761507963834296000,4.522296142578125,0.6008706092834473,0.25052472949028015,0.6423304080963135
1761507963844267800,4.532267822265625,0.6028855443000793,0.22871635854244232,0.6458780169487
1761507963854239000,4.542239013671875,0.5212231874465942,0.28927239775657654,0.5793114900588989
1761507963864211000,4.5522109375,0.3641641139984131,0.3860313594341278,0.4549594521522522
1761507963874182000,4.562181884765625,0.18022702634334564,0.46010345220565796,0.3014846742153168
1761507963884153900,4.57215380859375,0.02652198076248169,0.47255024313926697,0.13769835233688354
1761507963894125000,4.582125,-0.0665949136018753,0.4153761565685272,-0.010805628262460232
1761507963904096800,4.5920966796875,-0.10190043598413467,0.3039265275001526,-0.12581728398799896
1761507963914069000,4.602069091796875,-0.09992596507072449,0.17359888553619385,-0.19101199507713318
1761507963924040000,4.6120400390625,-0.0857398509979248,0.02588760480284691,-0.21972838044166565
1761507963934012000,4.622011962890625,-0.0768480896949768,-0.10461980104446411,-0.2042279839515686
1761507963943982800,4.63198291015625,-0.0787506029009819,-0.15941473841667175,-0.1448523849248886
1761507963953954800,4.641954833984375,-0.08511795848608017,-0.135600745677948,-0.07235421985387802
1761507963963925800,4.65192578125,-0.0903194472193718,-0.0896737277507782,0.004397728946059942
1761507963973898000,4.66189794921875,-0.07345231622457504,-0.056624963879585266,0.07026541978120804
1761507963983869000,4.671868896484375,-0.04558369889855385,-0.05087781324982643,0.11911461502313614
1761507963993841000,4.6818408203125,-0.02392180822789669,-0.07198069989681244,0.16684725880622864
1761507964003813000,4.691813232421875,-0.0076270196586847305,-0.13501323759555817,0.23081228137016296
1761507964013783800,4.70178369140625,-0.003724689595401287,-0.24316713213920593,0.30026060342788696
1761507964023756000,4.711756103515625,-0.0357205867767334,-0.375699907541275,0.35649940371513367
1761507964033727000,4.72172705078125,-0.1053750291466713,-0.5200293660163879,0.3599327504634857
1761507964043699000,4.731698974609375,-0.21115383505821228,-0.6395912170410156,0.3040761649608612
1761507964053670000,4.741669921875,-0.36398041248321533,-0.7269327640533447,0.14370301365852356
1761507964063642000,4.75164208984375,-0.5836859345436096,-0.8206818699836731,-0.15618599951267242
1761507964073613000,4.761613037109375,-0.8245260119438171,-0.9051322937011719,-0.5353434681892395
1761507964083585000,4.7715849609375,-1.0401827096939087,-0.9333040118217468,-0.8997499346733093
1761507964093557000,4.781556884765625,-1.1916813850402832,-0.8498863577842712,-1.1847147941589355
1761507964103528000,4.79152783203125,-1.2006508111953735,-0.6182599663734436,-1.3254400491714478
1761507964113500000,4.8015,-0.9300907254219055,-0.1438377946615219,-1.2154051065444946
1761507964123471000,4.81147119140625,-0.28523674607276917,0.4659717381000519,-0.8305109143257141
1761507964133442800,4.82144287109375,0.5649327039718628,0.8941651582717896,-0.34395161271095276
1761507964143414000,4.8314140625,1.304779052734375,1.0372236967086792,0.08993948251008987
1761507964153386000,4.841385986328125,1.7257699966430664,0.8747998476028442,0.41601505875587463
1761507964163357000,4.85135693359375,1.8050966262817383,0.41557806730270386,0.6155433058738708
1761507964173329000,4.861328857421875,1.5900174379348755,-0.22280612587928772,0.7025634050369263
1761507964183300000,4.871300048828125,1.1675289869308472,-0.8970304727554321,0.6896243095397949
1761507964193271800,4.881271728515625,0.6796820759773254,-1.4155677556991577,0.5903680324554443
1761507964203244000,4.891244140625,0.23109278082847595,-1.4505932331085205,0.44578030705451965
1761507964213215000,4.901215087890625,-0.13459491729736328,-0.9329303503036499,0.29541584849357605
1761507964223187000,4.91118701171875,-0.4152939021587372,-0.09215608239173889,0.180207759141922
1761507964233158000,4.921157958984375,-0.602654755115509,0.8397806882858276,0.12176255136728287
1761507964243129900,4.9311298828125,-0.7136936187744141,1.6709949970245361,0.11138038337230682
1761507964253100800,4.941100830078125,-0.7892536520957947,2.2188363075256348,0.1249137744307518
1761507964263073000,4.951072998046875,-0.8554784059524536,2.485513210296631,0.131989985704422
1761507964273044000,4.9610439453125,-0.8956742882728577,2.498354911804199,0.12823547422885895
1761507964283016000,4.971015869140625,-0.8720757365226746,2.2646467685699463,0.10775446891784668
1761507964292988000,4.98098779296875,-0.7724929451942444,1.8357861042022705,0.07077141851186752
1761507964302958800,4.990958740234375,-0.6263503432273865,1.2701587677001953,0.02554476074874401
1761507964312930800,5.000930908203125,-0.47524526715278625,0.6460416913032532,-0.020118864253163338
1761507964322902000,5.010902099609375,-0.346914678812027,0.03759937360882759,-0.06346586346626282
1761507964332873700,5.020873779296875,-0.2574220597743988,-0.5137466192245483,-0.10280155390501022
1761507964342845000,5.030844970703125,-0.18807265162467957,-0.9779631495475769,-0.1514088660478592
1761507964352817000,5.04081689453125,-0.11462534219026566,-1.3056997060775757,-0.2206590324640274
1761507964362787800,5.050787841796875,-0.0047452207654714584,-1.4632923603057861,-0.28300565481185913
1761507964372759800,5.060759765625,0.14109693467617035,-1.438640832901001,-0.3064252436161041
1761507964382732000,5.07073193359375,0.2953178286552429,-1.2160438299179077,-0.24836573004722595
1761507964392703000,5.080702880859375,0.41676515340805054,-0.8420016765594482,-0.1175275593996048
1761507964402675000,5.090675048828125,0.47223496437072754,-0.3935788571834564,0.05136891454458237
1761507964412646100,5.100646240234375,0.4654063582420349,0.03062141314148903,0.21916377544403076
1761507964422617900,5.110617919921875,0.4337981045246124,0.3467448651790619,0.37584903836250305
1761507964432589000,5.120589111328125,0.3887097239494324,0.4810856282711029,0.5183556079864502
1761507964442561000,5.13056103515625,0.3138294816017151,0.44415706396102905,0.6447941660881042
1761507964452532000,5.140531982421875,0.19884802401065826,0.2902734875679016,0.7315956950187683
1761507964462504000,5.15050390625,0.06611552834510803,0.04077158495783806,0.7605056762695312
1761507964472475100,5.16047509765625,-0.07349642366170883,-0.2283991575241089,0.724204421043396
1761507964482446800,5.17044677734375,-0.20241288840770721,-0.46806299686431885,0.6294540166854858
1761507964492419000,5.180419189453125,-0.33169737458229065,-0.6349585056304932,0.47956517338752747
1761507964502390000,5.19039013671875,-0.4543873965740204,-0.7519340515136719,0.27894437313079834
1761507964512362000,5.200362060546875,-0.5640763640403748,-0.808635413646698,0.03234151750802994
1761507964522333000,5.2103330078125,-0.6539521217346191,-0.8555507063865662,-0.23127153515815735
1761507964532305000,5.220304931640625,-0.6967967748641968,-0.9753609895706177,-0.48117566108703613
1761507964542275800,5.23027587890625,-0.6819990277290344,-1.180280327796936,-0.7156499028205872
1761507964552248000,5.240248046875,-0.6131291389465332,-1.4007956981658936,-0.9494690299034119
1761507964562219000,5.250218994140625,-0.4963977634906769,-1.476767897605896,-1.130582571029663
1761507964572191000,5.26019091796875,-0.3717261254787445,-1.2885535955429077,-1.1387310028076172
1761507964582163000,5.270162841796875,-0.31936419010162354,-0.7385810613632202,-0.9222010374069214
1761507964592134000,5.2801337890625,-0.3000009059906006,0.14300569891929626,-0.6100798845291138
1761507964602105900,5.29010595703125,-0.3006775379180908,1.0629000663757324,-0.4427577555179596
1761507964612077000,5.3000771484375,-0.34684422612190247,1.701339602470398,-0.621265172958374
1761507964622048800,5.310048828125,-0.37152165174484253,1.970720887184143,-1.0279228687286377
1761507964632020000,5.32002001953125,-0.31464293599128723,1.993574857711792,-1.427559494972229
1761507964641992000,5.329991943359375,-0.19820696115493774,1.888283610343933,-1.6301285028457642
1761507964651963000,5.339962890625,-0.06666145473718643,1.7277629375457764,-1.584333062171936
1761507964661934800,5.349934814453125,0.10031358897686005,1.4085173606872559,-1.3264832496643066
1761507964671906000,5.359906005859375,0.32315465807914734,0.9557341933250427,-0.9182388186454773
1761507964681877800,5.369877685546875,0.536397397518158,0.4988740384578705,-0.43474993109703064
1761507964691850000,5.37985009765625,0.6765457391738892,0.176541268825531,0.017555508762598038
1761507964701821000,5.389821044921875,0.6918010711669922,0.06644337624311447,0.3578677475452423
1761507964711793000,5.39979296875,0.644208550453186,0.15322275459766388,0.5714910626411438
1761507964721763800,5.409763916015625,0.5931220650672913,0.32834213972091675,0.6625176668167114
1761507964731736000,5.419736083984375,0.4780878722667694,0.5167192816734314,0.6608579754829407
1761507964741706800,5.429706787109375,0.24952612817287445,0.65781170129776,0.6058467030525208
1761507964751679000,5.439678955078125,-0.05827004835009575,0.7665613293647766,0.5502082109451294
1761507964761650000,5.44964990234375,-0.3722285330295563,0.8658449649810791,0.5316788554191589
1761507964771622000,5.459621826171875,-0.6057488918304443,0.9243974685668945,0.5375143885612488
1761507964781594000,5.469593994140625,-0.740287184715271,0.9753705263137817,0.5329516530036926
1761507964791565000,5.47956494140625,-0.7777714729309082,1.0065103769302368,0.49467751383781433
1761507964801537000,5.489537109375,-0.7496883869171143,1.010610580444336,0.4367861747741699
1761507964811508000,5.499508056640625,-0.6608208417892456,0.9547077417373657,0.37104442715644836
1761507964821480700,5.509480712890625,-0.5183138847351074,0.8181053400039673,0.31752336025238037
1761507964831451600,5.51945166015625,-0.34793925285339355,0.6217480301856995,0.27096837759017944
1761507964841424000,5.529423828125,-0.18503646552562714,0.38505855202674866,0.23186887800693512
1761507964851394600,5.53939453125,-0.046159543097019196,0.12487784773111343,0.21218864619731903
1761507964861366800,5.54936669921875,0.04309002310037613,-0.10740005970001221,0.2146942913532257
1761507964871337700,5.559337646484375,0.09617480635643005,-0.2748873233795166,0.26297977566719055
1761507964881309700,5.569309814453125,0.14648397266864777,-0.3875255882740021,0.3358927369117737
1761507964891281700,5.57928173828125,0.20167799293994904,-0.465276300907135,0.4419648349285126
1761507964901252900,5.5892529296875,0.2556159794330597,-0.5208083391189575,0.5529916286468506
1761507964911224600,5.599224609375,0.31016016006469727,-0.5851404666900635,0.630222737789154
1761507964921195800,5.60919580078125,0.3617050051689148,-0.6667719483375549,0.6822531819343567
1761507964931167500,5.61916748046875,0.4080996513366699,-0.7694306969642639,0.7132649421691895
1761507964941138700,5.629138671875,0.41663578152656555,-0.9174913167953491,0.7247195839881897
1761507964951110700,5.639110595703125,0.37099024653434753,-1.115705132484436,0.7072721719741821
1761507964961081900,5.649081787109375,0.2484482377767563,-1.3378691673278809,0.6129809021949768
1761507964971053600,5.659053466796875,0.02678189054131508,-1.5812726020812988,0.38563352823257446
1761507964981025800,5.66902587890625,-0.2346094399690628,-1.904961109161377,0.006207754835486412
1761507964990996500,5.67899658203125,-0.47833874821662903,-2.2702088356018066,-0.4753327965736389
1761507965000968700,5.68896875,-0.6561248898506165,-2.483785629272461,-0.9854035973548889
1761507965010939600,5.698939697265625,-0.6976071000099182,-2.375656843185425,-1.4098987579345703
1761507965020911600,5.70891162109375,-0.5164225697517395,-1.9614982604980469,-1.6013728380203247
1761507965030882600,5.718882568359375,-0.025203054770827293,-1.2255606651306152,-1.3867186307907104
1761507965040854800,5.728854736328125,0.7619264721870422,-0.3318590819835663,-0.7881912589073181
1761507965050825500,5.738825439453125,1.5828869342803955,0.3246324956417084,-0.07563485205173492
1761507965060797700,5.748797607421875,2.115635633468628,0.6942170858383179,0.4877891540527344
1761507965070768600,5.7587685546875,2.267104387283325,0.660211980342865,0.7983185052871704
1761507965080740600,5.76874072265625,2.0475668907165527,0.24427786469459534,0.885733962059021
1761507965090711600,5.778711669921875,1.5347603559494019,-0.28812292218208313,0.789880096912384
1761507965100683800,5.788683837890625,0.8516518473625183,-0.7122556567192078,0.5639448165893555
1761507965110655700,5.79865576171875,0.16282497346401215,-0.7662994265556335,0.25637978315353394
1761507965120626700,5.808626708984375,-0.3893846869468689,-0.2948407828807831,-0.05220052972435951
1761507965130598700,5.8185986328125,-0.7212215065956116,0.4946959316730499,-0.30472227931022644
1761507965140569600,5.828569580078125,-0.8547397255897522,1.373501181602478,-0.44036179780960083
1761507965150541800,5.838541748046875,-0.8448881506919861,2.2098357677459717,-0.42296817898750305
1761507965160512800,5.8485126953125,-0.7765706181526184,2.8118255138397217,-0.3026893138885498
1761507965170484700,5.858484619140625,-0.7123029828071594,3.1172144412994385,-0.13533522188663483
1761507965180455700,5.86845556640625,-0.66596919298172,3.1521997451782227,0.04803730919957161
1761507965190428000,5.878427978515625,-0.6027417778968811,2.9193317890167236,0.21658238768577576
1761507965200399600,5.888399658203125,-0.5145137310028076,2.459559202194214,0.35267406702041626
1761507965210370800,5.898370849609375,-0.41350722312927246,1.8521020412445068,0.44097357988357544
1761507965220342500,5.908342529296875,-0.3272438645362854,1.1884565353393555,0.46756643056869507
1761507965230313700,5.918313720703125,-0.2622891068458557,0.5711472034454346,0.4426525831222534
1761507965240285700,5.92828564453125,-0.2017642855644226,0.051261644810438156,0.3859710693359375
1761507965250257000,5.9382568359375,-0.11875994503498077,-0.3559737801551819,0.3247833549976349
1761507965260228600,5.948228515625,-0.019903386011719704,-0.6483266949653625,0.26273736357688904
1761507965270199800,5.95819970703125,0.07877099514007568,-0.8503633737564087,0.19126291573047638
1761507965280171500,5.968171630859375,0.17253543436527252,-1.016495943069458,0.12424837797880173
1761507965290142700,5.978142822265625,0.2533557116985321,-1.1821988821029663,0.06730546057224274
1761507965300114700,5.98811474609375,0.30862319469451904,-1.3186734914779663,0.04867776483297348
1761507965310086700,5.998086669921875,0.32344794273376465,-1.410156488418579,0.05702757462859154
1761507965320057600,6.0080576171875,0.3162766695022583,-1.4701792001724243,0.08305634558200836
1761507965330029800,6.01802978515625,0.29046767950057983,-1.4556676149368286,0.11717437207698822
1761507965340000500,6.02800048828125,0.2530202865600586,-1.3432083129882812,0.13989947736263275
1761507965349972700,6.03797265625,0.21542099118232727,-1.1495453119277954,0.14395253360271454
1761507965359943700,6.047943603515625,0.17882730066776276,-0.8954487442970276,0.14204657077789307
1761507965369915600,6.05791552734375,0.1455761343240738,-0.594369113445282,0.15821301937103271
1761507965379886600,6.067886474609375,0.11369597911834717,-0.304120272397995,0.21369054913520813
1761507965389858800,6.07785888671875,0.08224564790725708,-0.10643649101257324,0.2988920211791992
1761507965399829500,6.08782958984375,0.06830324977636337,-0.01907435804605484,0.42191171646118164
1761507965409801700,6.0978017578125,0.05828417092561722,-0.017536915838718414,0.5621585249900818
1761507965419773700,6.107773681640625,0.022472061216831207,-0.05016523227095604,0.6927958726882935
1761507965429744600,6.11774462890625,-0.034646619111299515,-0.0860862135887146,0.7833031415939331
1761507965439716600,6.127716552734375,-0.09496548026800156,-0.09505165368318558,0.8211694359779358
1761507965449687800,6.137687744140625,-0.16684873402118683,-0.08239445090293884,0.7878212928771973
1761507965459659500,6.147659423828125,-0.2405174970626831,-0.045739591121673584,0.6851081252098083
1761507965469630700,6.157630615234375,-0.30942654609680176,-0.015646403655409813,0.529715359210968
1761507965479602700,6.167602783203125,-0.36405834555625916,-0.04243970289826393,0.3431810736656189
1761507965489573600,6.17757373046875,-0.41726192831993103,-0.15625707805156708,0.125634104013443
1761507965499545600,6.187545654296875,-0.5002159476280212,-0.3345352113246918,-0.11255423724651337
1761507965509517600,6.197517578125,-0.6222020387649536,-0.4779754877090454,-0.36392974853515625
1761507965519488500,6.207488525390625,-0.7382040619850159,-0.488971471786499,-0.5970584154129028
1761507965529460700,6.217460693359375,-0.8235802054405212,-0.3224906027317047,-0.7937597632408142
1761507965539431700,6.227431640625,-0.8312690854072571,-0.018374677747488022,-0.9472132325172424
1761507965549403600,6.237403564453125,-0.749225378036499,0.3856217861175537,-1.0790122747421265
1761507965559374600,6.24737451171875,-0.5756743550300598,0.8570743203163147,-1.2181000709533691
1761507965569346600,6.2573466796875,-0.3188648819923401,1.3175885677337646,-1.358410358428955
1761507965579317500,6.2673173828125,-0.0013759620487689972,1.6956604719161987,-1.45149827003479
1761507965589289700,6.277289794921875,0.30615121126174927,1.9115926027297974,-1.449565052986145
1761507965599261000,6.287260986328125,0.5333078503608704,1.9586261510849,-1.3324519395828247
1761507965609232600,6.297232666015625,0.6727275252342224,1.8161060810089111,-1.1378283500671387
1761507965619204900,6.307204833984375,0.7112863063812256,1.5012025833129883,-0.8625066876411438
1761507965629175600,6.317175537109375,0.6759788990020752,1.1226598024368286,-0.514083743095398
1761507965639147800,6.327147705078125,0.59674471616745,0.766937792301178,-0.11463769525289536
1761507965649118700,6.33711865234375,0.5063911080360413,0.4788612425327301,0.29562410712242126
1761507965659090700,6.347090576171875,0.42448848485946655,0.3115628659725189,0.6441426277160645
1761507965669061600,6.3570615234375,0.36352044343948364,0.27420565485954285,0.895683765411377
1761507965679033900,6.367033935546875,0.3008306622505188,0.32061728835105896,1.0329344272613525
1761507965689004500,6.377004638671875,0.21289122104644775,0.4067266285419464,1.059639573097229
1761507965698976800,6.386976806640625,0.09523572027683258,0.5010699033737183,0.9995323419570923
1761507965708947700,6.39694775390625,-0.01699601300060749,0.5684953331947327,0.8907408118247986
1761507965718919700,6.406919677734375,-0.11511506885290146,0.5654169917106628,0.7643488645553589
1761507965728891600,6.4168916015625,-0.17994973063468933,0.4723035991191864,0.640910267829895
1761507965738862800,6.42686279296875,-0.21587271988391876,0.33345088362693787,0.5173934102058411
1761507965748834600,6.43683447265625,-0.2395346462726593,0.19041410088539124,0.3906295895576477
1761507965758805800,6.4468056640625,-0.2587653696537018,0.06611277908086777,0.2607763707637787
1761507965768777700,6.45677783203125,-0.2618674337863922,-0.03297333046793938,0.1415749043226242
1761507965778748700,6.466748779296875,-0.24069835245609283,-0.11122028529644012,0.05252910032868385
1761507965788720600,6.476720703125,-0.21240146458148956,-0.17507889866828918,0.020999671891331673
1761507965798691800,6.48669189453125,-0.18630839884281158,-0.22061662375926971,0.04956735670566559
1761507965808663600,6.49666357421875,-0.17463816702365875,-0.26737508177757263,0.12674124538898468
1761507965818633000,6.506633056640625,-0.16033685207366943,-0.32859405875205994,0.23122015595436096
1761507965828605200,6.516605224609375,-0.12391600012779236,-0.40055611729621887,0.34651559591293335
1761507965838577200,6.5265771484375,-0.079945869743824,-0.4889202415943146,0.45208653807640076
1761507965848548000,6.536548095703125,-0.03717895969748497,-0.5904841423034668,0.5336149334907532
1761507965858520000,6.54652001953125,0.007505954243242741,-0.688280463218689,0.5962362289428711
1761507965868491300,6.5564912109375,0.02154773660004139,-0.7917628884315491,0.6461138129234314
1761507965878463000,6.566462890625,-0.018032832071185112,-0.9248257279396057,0.6666008830070496
1761507965888434200,6.57643408203125,-0.11970779299736023,-1.0820624828338623,0.6221617460250854
1761507965898406100,6.58640625,-0.3138871192932129,-1.3050897121429443,0.4550734758377075
1761507965908377000,6.596377197265625,-0.5886004567146301,-1.6010076999664307,0.08955993503332138
1761507965918349000,6.60634912109375,-0.8857459425926208,-1.8959548473358154,-0.43316635489463806
1761507965928320300,6.6163203125,-1.1199696063995361,-2.0791027545928955,-1.0541313886642456
1761507965938292200,6.626292236328125,-1.2245107889175415,-2.007084369659424,-1.6576464176177979
1761507965948264200,6.63626416015625,-1.0540962219238281,-1.5542281866073608,-1.9954824447631836
1761507965958235100,6.646235107421875,-0.6073439717292786,-0.7488887310028076,-1.8619117736816406
1761507965968207000,6.65620703125,0.017179571092128754,0.19915397465229034,-1.3190970420837402
1761507965978178300,6.66617822265625,0.6625798940658569,0.9115997552871704,-0.5647875666618347
1761507965988150000,6.67614990234375,1.120076060295105,1.2427399158477783,0.1210659071803093
1761507965998121200,6.686121337890625,1.3357141017913818,1.1091198921203613,0.573354184627533
1761507966008093200,6.69609326171875,1.334146499633789,0.5359240770339966,0.7899509072303772
1761507966018064400,6.706064453125,1.1502071619033813,-0.19628363847732544,0.802204430103302
1761507966028036000,6.7160361328125,0.8498552441596985,-0.8454046249389648,0.6289607286453247
1761507966038007300,6.72600732421875,0.5469549298286438,-1.1970807313919067,0.3466739356517792
1761507966047979000,6.73597900390625,0.3355473279953003,-1.1129591464996338,0.06257854402065277
1761507966057951200,6.745951171875,0.21937407553195953,-0.5709822773933411,-0.13747645914554596
1761507966067922200,6.755922119140625,0.176192507147789,0.2290385365486145,-0.2164999097585678
1761507966077894100,6.76589404296875,0.1546333283185959,1.0345827341079712,-0.1393146514892578
1761507966087865000,6.775864990234375,0.09143385291099548,1.7036197185516357,0.0854196548461914
1761507966097837300,6.78583740234375,-0.007820459082722664,2.164505958557129,0.3812396824359894
1761507966107808000,6.79580810546875,-0.14052285254001617,2.390369415283203,0.6548006534576416
1761507966117780200,6.8057802734375,-0.28434473276138306,2.4015910625457764,0.8551964163780212
1761507966127751200,6.815751220703125,-0.41792675852775574,2.230647563934326,0.957272469997406
1761507966137723100,6.82572314453125,-0.5227137207984924,1.9186513423919678,0.9465506672859192
1761507966147694000,6.835694091796875,-0.5876887440681458,1.5075486898422241,0.8375725150108337
1761507966157666300,6.845666259765625,-0.6096541285514832,1.0496762990951538,0.6363478899002075
1761507966167638000,6.855637939453125,-0.5905856490135193,0.6089435815811157,0.3740456700325012
1761507966177609200,6.865609130859375,-0.5496131181716919,0.20166650414466858,0.07792697846889496
1761507966187581200,6.875581298828125,-0.5037130117416382,-0.13476957380771637,-0.21081694960594177
1761507966197552000,6.88555224609375,-0.4864707887172699,-0.39414486289024353,-0.4581482410430908
1761507966207524000,6.895524169921875,-0.4978044331073761,-0.5628824830055237,-0.6645988821983337
1761507966217495300,6.905495361328125,-0.49803727865219116,-0.6471268534660339,-0.8203771114349365
1761507966227467000,6.915467041015625,-0.46697181463241577,-0.664371907711029,-0.9183686375617981
1761507966237438200,6.925438232421875,-0.37088993191719055,-0.6132634878158569,-0.9428704977035522
1761507966247410200,6.93541015625,-0.20045478641986847,-0.5022367835044861,-0.8814452290534973
1761507966257381000,6.945381103515625,0.018114332109689713,-0.3660755455493927,-0.7387796640396118
1761507966267353000,6.95535302734375,0.23879531025886536,-0.23636145889759064,-0.5147380828857422
1761507966277325000,6.965324951171875,0.4185817837715149,-0.14632569253444672,-0.2376626580953598
1761507966287296000,6.9752958984375,0.5394042730331421,-0.11287372559309006,0.0685230940580368
1761507966297268200,6.985268310546875,0.6245118975639343,-0.16517286002635956,0.35301950573921204
1761507966307239200,6.9952392578125,0.6684708595275879,-0.2846856713294983,0.5960931777954102
1761507966317211100,7.005211181640625,0.6651979088783264,-0.4219082295894623,0.7870977520942688
1761507966327182000,7.01518212890625,0.6166122555732727,-0.5364169478416443,0.9143158793449402
1761507966337154000,7.025154052734375,0.5269849896430969,-0.6047148108482361,0.982663094997406
1761507966347125000,7.035125,0.39985740184783936,-0.6317530870437622,0.9901928901672363
1761507966357097200,7.04509716796875,0.25305721163749695,-0.6191075444221497,0.9299113750457764
1761507966367069200,7.055069091796875,0.09063874930143356,-0.5651029348373413,0.8197917938232422
1761507966377040100,7.0650400390625,-0.061621636152267456,-0.4917289614677429,0.6624884009361267
1761507966387012400,7.075012451171875,-0.17890459299087524,-0.41295477747917175,0.4824661612510681
1761507966396983000,7.084983154296875,-0.2528386116027832,-0.33873915672302246,0.30254116654396057
1761507966406955300,7.094955322265625,-0.3068462014198303,-0.28354302048683167,0.1520635187625885
1761507966416926200,7.10492626953125,-0.33750003576278687,-0.2538236677646637,0.04451176896691322
1761507966426898200,7.114898193359375,-0.3451286554336548,-0.26079261302948,-0.03131961077451706
1761507966436869000,7.124869140625,-0.3196527063846588,-0.28919273614883423,-0.08214543014764786
1761507966446841300,7.13484130859375,-0.26181498169898987,-0.31546908617019653,-0.11808345466852188
1761507966456812000,7.14481201171875,-0.19725415110588074,-0.3459811508655548,-0.14497603476047516
1761507966466784300,7.1547841796875,-0.14351396262645721,-0.37091711163520813,-0.16128070652484894
1761507966476756000,7.164755859375,-0.11787202209234238,-0.41060763597488403,-0.195165753364563
1761507966486727200,7.17472705078125,-0.11231028288602829,-0.48050999641418457,-0.2836924195289612
1761507966496699100,7.18469921875,-0.10167375206947327,-0.5615973472595215,-0.4556116461753845
1761507966506670300,7.19467041015625,-0.02917610853910446,-0.6018190383911133,-0.7076401710510254
1761507966516642000,7.20464208984375,0.1474917232990265,-0.5547767281532288,-0.9710902571678162
1761507966526613200,7.21461328125,0.4068319797515869,-0.43791621923446655,-1.1878867149353027
1761507966536585200,7.224585205078125,0.6682725548744202,-0.24770237505435944,-1.3174102306365967
1761507966546556200,7.23455615234375,0.9038035869598389,-0.01769634336233139,-1.3273770809173584
1761507966556528000,7.244528076171875,1.058896780014038,0.26327627897262573,-1.2433284521102905
1761507966566499300,7.254499267578125,1.1088787317276,0.593887209892273,-1.0927032232284546
1761507966576471000,7.264470947265625,1.06657874584198,0.8804097175598145,-0.8905094265937805
1761507966586442200,7.274442138671875,0.9488810300827026,1.0374706983566284,-0.639644205570221
1761507966596414200,7.284414306640625,0.7804163098335266,1.0510153770446777,-0.3529926538467407
1761507966606386200,7.29438623046875,0.5711607933044434,0.948654055595398,-0.03168465942144394
1761507966616357000,7.304357177734375,0.3566916584968567,0.7952779531478882,0.2997756600379944
1761507966626329000,7.3143291015625,0.1877519190311432,0.6635782122612,0.6063632965087891
1761507966636300000,7.324300048828125,0.08514633774757385,0.6104943156242371,0.8737534880638123
1761507966646272300,7.334272216796875,0.052306901663541794,0.6445870399475098,1.0934629440307617
1761507966656243200,7.3442431640625,0.05201388895511627,0.7459614872932434,1.2472912073135376
1761507966666215200,7.354215087890625,0.06992418318986893,0.8510695099830627,1.3447555303573608
1761507966676186000,7.36418603515625,0.07870898395776749,0.870525062084198,1.41166090965271
1761507966686158000,7.374157958984375,0.039771970361471176,0.7680226564407349,1.438402533531189
1761507966696130000,7.384130126953125,-0.06926880776882172,0.5723901987075806,1.3833431005477905
1761507966706101200,7.394101318359375,-0.20944829285144806,0.31910261511802673,1.2406320571899414
1761507966716073000,7.404072998046875,-0.321737676858902,0.060785386711359024,1.0171746015548706
1761507966726044200,7.414044189453125,-0.3887758255004883,-0.16172225773334503,0.7417203783988953
1761507966736016100,7.42401611328125,-0.4352891147136688,-0.3153895437717438,0.43890443444252014
1761507966745987000,7.433987060546875,-0.476631760597229,-0.36857742071151733,0.1494997888803482
1761507966755959000,7.443958984375,-0.508766770362854,-0.35225874185562134,-0.07333248853683472
1761507966765930200,7.45393017578125,-0.5149503946304321,-0.32335785031318665,-0.1815023571252823
1761507966775902000,7.46390185546875,-0.4857497811317444,-0.2951764464378357,-0.168873131275177
1761507966785873200,7.473873046875,-0.439037948846817,-0.2928491234779358,-0.07290346175432205
1761507966795845000,7.48384521484375,-0.37804114818573,-0.34259629249572754,0.07082205265760422
1761507966805817000,7.493817138671875,-0.3160771131515503,-0.4091987609863281,0.22968120872974396
1761507966815788800,7.503788818359375,-0.2650691270828247,-0.5007382035255432,0.37894773483276367
1761507966825760500,7.513760498046875,-0.2387048900127411,-0.6274181604385376,0.47813424468040466
1761507966835731700,7.523731689453125,-0.2532692849636078,-0.799615740776062,0.49570974707603455
1761507966845703700,7.53370361328125,-0.3281288743019104,-1.0213204622268677,0.40373268723487854
1761507966855674600,7.543674560546875,-0.48479899764060974,-1.2745293378829956,0.16017793118953705
1761507966865646600,7.553646484375,-0.7373287677764893,-1.4899941682815552,-0.26221564412117004
1761507966875617800,7.56361767578125,-1.0762771368026733,-1.7086447477340698,-0.8865100741386414
1761507966885589500,7.573589599609375,-1.4087042808532715,-1.793426752090454,-1.6780675649642944
1761507966895560700,7.583560791015625,-1.4900540113449097,-1.4686200618743896,-2.400068759918213
1761507966905532700,7.59353271484375,-1.0584652423858643,-0.6917715072631836,-2.6644484996795654
1761507966915504600,7.603504638671875,-0.23502308130264282,0.33941328525543213,-2.3095357418060303
1761507966925475600,7.6134755859375,0.6042742729187012,1.374711275100708,-1.5018236637115479
1761507966935447800,7.62344775390625,1.173844814300537,2.1957385540008545,-0.5317394733428955
1761507966945418500,7.63341845703125,1.3918123245239258,2.4443352222442627,0.3475697338581085
1761507966955390700,7.643390625,1.26964271068573,2.0438954830169678,1.010576605796814
1761507966965361700,7.653361572265625,0.9745775461196899,1.1502399444580078,1.4250749349594116
1761507966975333600,7.663333740234375,0.6644318699836731,0.03972356393933296,1.5364066362380981
1761507966985304600,7.6733046875,0.4099431037902832,-0.9001563191413879,1.3348418474197388
1761507966995276800,7.68327685546875,0.2521773874759674,-1.3540760278701782,0.9028249382972717
1761507967005247500,7.69324755859375,0.21800370514392853,-1.2826207876205444,0.41160672903060913
1761507967015219700,7.7032197265625,0.26294681429862976,-0.7605988383293152,0.00819010566920042
1761507967025191700,7.713191650390625,0.32755589485168457,0.07154874503612518,-0.23976457118988037
1761507967035162600,7.72316259765625,0.3564581274986267,0.8724799752235413,-0.30561181902885437
1761507967045134800,7.733134765625,0.30795079469680786,1.477502703666687,-0.16187116503715515
1761507967055105800,7.743105712890625,0.1757778823375702,1.825251817703247,0.13062109053134918
1761507967065077800,7.753077880859375,-0.0036211716942489147,1.8790417909622192,0.47481709718704224
1761507967075048700,7.763048583984375,-0.20404940843582153,1.7106822729110718,0.7743189930915833
1761507967085020700,7.773020751953125,-0.38847678899765015,1.3738373517990112,0.9593421220779419
1761507967094991600,7.78299169921875,-0.552688479423523,0.9520530700683594,0.9918733239173889
1761507967104963800,7.7929638671875,-0.6653915643692017,0.5130704045295715,0.8659361600875854
1761507967114934800,7.802934814453125,-0.723137378692627,0.09494081884622574,0.5749714374542236
1761507967124906800,7.81290673828125,-0.7491779923439026,-0.26848268508911133,0.1598498821258545
1761507967134878700,7.822878662109375,-0.7467928528785706,-0.5505321621894836,-0.32239359617233276
1761507967144849700,7.832849609375,-0.6877026557922363,-0.6953681707382202,-0.7768479585647583
1761507967154821600,7.842821533203125,-0.5585417747497559,-0.6746919751167297,-1.1248419284820557
1761507967164792800,7.852792724609375,-0.36438482999801636,-0.5165278911590576,-1.2971221208572388
1761507967174764500,7.8627646484375,-0.13483409583568573,-0.2650638818740845,-1.2261255979537964
1761507967184735700,7.87273583984375,0.09382703900337219,0.02206561155617237,-0.9260917901992798
1761507967194707700,7.882707763671875,0.25761881470680237,0.2477223128080368,-0.445052832365036
1761507967204678700,7.8926787109375,0.32917556166648865,0.34306880831718445,0.10943141579627991
1761507967214650600,7.902650634765625,0.35736244916915894,0.31306472420692444,0.6211047172546387
1761507967224621800,7.912621826171875,0.37443676590919495,0.18478773534297943,0.9861838817596436
1761507967234593500,7.922593505859375,0.38967838883399963,0.00407535582780838,1.1792635917663574
1761507967244565800,7.932565673828125,0.3948712944984436,-0.16669824719429016,1.2222051620483398
1761507967254536700,7.94253662109375,0.37587836384773254,-0.2897043526172638,1.139005422592163
1761507967264508700,7.9525087890625,0.347784161567688,-0.3341660797595978,0.9826967716217041
1761507967274479600,7.962479736328125,0.3123292624950409,-0.2806175947189331,0.810563325881958
1761507967284451800,7.972451904296875,0.2464788854122162,-0.18959154188632965,0.6546347141265869
1761507967294422500,7.982422607421875,0.14809124171733856,-0.0675804391503334,0.5584650039672852
1761507967304394800,7.992394775390625,0.03446480631828308,0.0802079513669014,0.5164903998374939
1761507967314365700,8.00236572265625,-0.07177896797657013,0.23746393620967865,0.5270324945449829
1761507967324337700,8.012337646484376,-0.15361709892749786,0.3758543133735657,0.5802360773086548
1761507967334308600,8.02230859375,-0.19306053221225739,0.48572078347206116,0.6653212904930115
1761507967344280800,8.03228076171875,-0.20762641727924347,0.5244415998458862,0.7598108053207397
1761507967354251500,8.04225146484375,-0.21091985702514648,0.48171234130859375,0.8314538598060608
1761507967364223700,8.0522236328125,-0.21051664650440216,0.36254891753196716,0.855496346950531
1761507967374195500,8.062195556640624,-0.1904965192079544,0.19578313827514648,0.8255044221878052
1761507967384166700,8.072166748046875,-0.1505914330482483,0.010197303257882595,0.7324061393737793
1761507967394138600,8.082138671875,-0.10445909947156906,-0.16768695414066315,0.5781896710395813
1761507967404109800,8.09210986328125,-0.08862527459859848,-0.3439472019672394,0.35136908292770386
1761507967414081500,8.10208154296875,-0.10102789103984833,-0.5315915942192078,0.04638051986694336
1761507967424052700,8.112052734375,-0.1447918713092804,-0.7394603490829468,-0.30858102440834045
1761507967434024400,8.1220244140625,-0.20019757747650146,-0.9252215027809143,-0.721823513507843
1761507967443995600,8.13199560546875,-0.25131934881210327,-1.0263755321502686,-1.1479988098144531
1761507967453967600,8.141967529296876,-0.28190580010414124,-0.9935688972473145,-1.4788258075714111
1761507967463939600,8.151939697265625,-0.2817172706127167,-0.8224637508392334,-1.6719191074371338
1761507967473910500,8.16191064453125,-0.2606399953365326,-0.5528743267059326,-1.7191147804260254
1761507967483882800,8.1718828125,-0.2501055896282196,-0.23264466226100922,-1.6887489557266235
1761507967493853700,8.181853759765625,-0.20433101058006287,0.07248219847679138,-1.6249103546142578
1761507967503825700,8.19182568359375,-0.05246051773428917,0.31713002920150757,-1.5405975580215454
1761507967513796900,8.201796875,0.209135502576828,0.45303288102149963,-1.412458062171936
1761507967523768600,8.2117685546875,0.47578558325767517,0.5093664526939392,-1.2196545600891113
1761507967533739800,8.22173974609375,0.6651074886322021,0.5205084681510925,-0.9583876132965088
1761507967543711700,8.231711669921875,0.7486284971237183,0.4734325706958771,-0.6793583631515503
1761507967553682700,8.2416826171875,0.723037838935852,0.402157723903656,-0.4104631543159485
1761507967563654700,8.251654541015625,0.6232617497444153,0.3170369565486908,-0.17103858292102814
1761507967573625900,8.2616259765625,0.49534177780151367,0.22639025747776031,0.0375097282230854
1761507967583597600,8.27159765625,0.3647576570510864,0.15124116837978363,0.20425690710544586
1761507967593569800,8.28156982421875,0.29212111234664917,0.09803568571805954,0.35968905687332153
1761507967603540700,8.291540771484375,0.2735551595687866,0.07193191349506378,0.5030882954597473
1761507967613512700,8.3015126953125,0.293175607919693,0.10996392369270325,0.6494525671005249
1761507967623483600,8.311483642578125,0.3283008337020874,0.20400013029575348,0.8137463927268982
1761507967633455900,8.321455810546874,0.34702587127685547,0.28973060846328735,0.9973909258842468
1761507967643426600,8.331426513671875,0.34922030568122864,0.283486545085907,1.1762440204620361
1761507967653398800,8.341398681640625,0.3383028507232666,0.214692622423172,1.3582974672317505
1761507967663369700,8.35136962890625,0.32089963555336,0.07958539575338364,1.501255989074707
1761507967673341700,8.361341796875,0.29079872369766235,-0.1196870431303978,1.5516778230667114
1761507967683312600,8.371312744140624,0.23310694098472595,-0.3432881832122803,1.4816234111785889
1761507967693284900,8.381284912109376,0.1313854604959488,-0.5268713235855103,1.2975040674209595
1761507967703256600,8.391256591796875,-0.0050336262211203575,-0.6373757719993591,1.014514684677124
1761507967713227800,8.401227783203124,-0.14415232837200165,-0.6439071893692017,0.6535077691078186
1761507967723199500,8.411199462890625,-0.25208091735839844,-0.5544492602348328,0.2730395197868347
1761507967733170700,8.421170654296875,-0.310168594121933,-0.39199569821357727,-0.0490291453897953
1761507967743142700,8.431142578125,-0.33237698674201965,-0.1903102695941925,-0.23918230831623077
1761507967753113900,8.44111376953125,-0.32175859808921814,-0.058825790882110596,-0.28570619225502014
1761507967763085600,8.45108544921875,-0.27838608622550964,-0.04308491200208664,-0.20785455405712128
1761507967773056800,8.461056884765625,-0.21363647282123566,-0.12086167931556702,-0.029912441968917847
1761507967783028500,8.471028564453125,-0.13171736896038055,-0.2521539032459259,0.192103311419487
1761507967792999700,8.480999755859376,-0.0390610545873642,-0.39208337664604187,0.4145450294017792
1761507967802971600,8.4909716796875,0.04891221225261688,-0.5307978987693787,0.6097757816314697
1761507967812943600,8.500943603515625,0.13242553174495697,-0.6737197041511536,0.7652260065078735
1761507967822914800,8.510914794921876,0.17743827402591705,-0.8482840657234192,0.8502825498580933
1761507967832887000,8.520886962890625,0.1365765482187271,-1.090801477432251,0.8123166561126709
1761507967842857700,8.530857666015624,0.0021878513507544994,-1.4078787565231323,0.5799529552459717
1761507967852830000,8.540829833984375,-0.18958893418312073,-1.7333012819290161,0.15645582973957062
1761507967862801000,8.55080078125,-0.4334745705127716,-2.096701145172119,-0.40627676248550415
1761507967872772900,8.56077294921875,-0.7904044389724731,-2.5556981563568115,-1.1654868125915527
1761507967882743800,8.570743896484375,-1.1048568487167358,-2.6878671646118164,-2.0039334297180176
1761507967892716000,8.580716064453124,-1.1442983150482178,-1.9247138500213623,-2.4151978492736816
1761507967902688000,8.59068798828125,-0.7971882820129395,-0.35633325576782227,-2.0899300575256348
1761507967912659000,8.600658935546875,-0.24204517900943756,1.4624773263931274,-1.1554360389709473
1761507967922631000,8.610630859375,0.3083982467651367,2.7647337913513184,-0.08147647231817245
1761507967932601900,8.620601806640625,0.7441151738166809,3.1094393730163574,0.725488007068634
1761507967942574000,8.630573974609375,0.9438444972038269,2.4940481185913086,1.1909511089324951
1761507967952545000,8.640544921875,0.9422587156295776,1.259640097618103,1.3876436948776245
1761507967962517000,8.65051708984375,0.7848891019821167,-0.07130054384469986,1.41727614402771
1761507967972488000,8.660488037109374,0.5330371856689453,-1.042151927947998,1.2949107885360718
1761507967982460000,8.6704599609375,0.28886523842811584,-1.439267873764038,0.9942787885665894
1761507967992430800,8.680430908203125,0.1678307205438614,-1.2480366230010986,0.5777506232261658
1761507968002403000,8.690403076171876,0.19498644769191742,-0.6779009699821472,0.14725594222545624
1761507968012374000,8.7003740234375,0.29385271668434143,0.024685604497790337,-0.19523148238658905
1761507968022346000,8.710345947265624,0.3020626902580261,0.6141352653503418,-0.35638976097106934
1761507968032318000,8.72031787109375,0.20396119356155396,1.038491129875183,-0.31242629885673523
1761507968042289000,8.730288818359375,0.03906890004873276,1.278798222541809,-0.1139235869050026
1761507968052260900,8.7402607421875,-0.15336066484451294,1.3715713024139404,0.152809277176857
1761507968062232000,8.750232177734375,-0.3491424024105072,1.3623063564300537,0.39128682017326355
1761507968072203800,8.760203857421875,-0.5236028432846069,1.261317253112793,0.537992537021637
1761507968082175000,8.770175048828126,-0.65016770362854,1.1194922924041748,0.5714961886405945
1761507968092147000,8.78014697265625,-0.7063806653022766,0.9741437435150146,0.5039486289024353
1761507968102118000,8.790117919921874,-0.6990657448768616,0.8062487244606018,0.3599296510219574
1761507968112089900,8.80008984375,-0.6503714919090271,0.6008750200271606,0.17973214387893677
1761507968122061000,8.81006103515625,-0.5957452654838562,0.35865387320518494,-0.014322278089821339
1761507968132032800,8.82003271484375,-0.5471325516700745,0.10962142050266266,-0.2189491242170334
1761507968142005000,8.8300048828125,-0.47510653734207153,-0.08198849111795425,-0.39513853192329407
1761507968151976000,8.839975830078124,-0.361176460981369,-0.16588065028190613,-0.4945729374885559
1761507968161948000,8.849947998046876,-0.22980619966983795,-0.1497642695903778,-0.48936647176742554
1761507968171918800,8.8599189453125,-0.11157666891813278,-0.04220936819911003,-0.3953617215156555
1761507968181891000,8.86989111328125,-0.029326001182198524,0.10726401209831238,-0.21959790587425232
1761507968191861800,8.87986181640625,0.009421385824680328,0.24063119292259216,-0.0007482710061594844
1761507968201834000,8.889833984375,0.034794650971889496,0.3340407609939575,0.21150140464305878
1761507968211805000,8.899804931640626,0.06946856528520584,0.3828360438346863,0.37489941716194153
1761507968221777000,8.90977685546875,0.13209359347820282,0.3747160732746124,0.47408565878868103
1761507968231747800,8.919747802734374,0.18468651175498962,0.3076137602329254,0.5222283601760864
1761507968241720000,8.929719970703125,0.19010871648788452,0.22829975187778473,0.5094007253646851
1761507968251692000,8.939692138671875,0.14732131361961365,0.14230453968048096,0.43958547711372375
1761507968261663000,8.9496630859375,0.08601907640695572,0.06563213467597961,0.3249012529850006
1761507968271635000,8.959635009765625,0.01344915758818388,0.013276793994009495,0.17923469841480255
1761507968281606000,8.96960595703125,-0.0353332981467247,0.006327275186777115,0.01871240697801113
1761507968291578000,8.979578125,-0.06264520436525345,0.055965229868888855,-0.12246488034725189
1761507968301549000,8.989549072265625,-0.07905001193284988,0.1625036597251892,-0.22845308482646942
1761507968311521000,8.99952099609375,-0.07586425542831421,0.2999643385410309,-0.28362175822257996
1761507968321492000,9.009491943359375,-0.06239291653037071,0.44213107228279114,-0.2715398073196411
1761507968331464000,9.0194638671875,-0.047146059572696686,0.548771858215332,-0.20222267508506775
1761507968341435000,9.029434814453126,-0.043250925838947296,0.5816219449043274,-0.08480258285999298
1761507968351407000,9.039406982421875,-0.05010704696178436,0.5487077832221985,0.04551427438855171
1761507968361378800,9.04937890625,-0.04823031276464462,0.4692840874195099,0.13263240456581116
1761507968371350000,9.05935009765625,-0.03205033391714096,0.3954939544200897,0.15722131729125977
1761507968381322000,9.069322021484375,-0.00886777974665165,0.35078027844429016,0.11586189270019531
1761507968391293000,9.07929296875,0.013864399865269661,0.310148686170578,0.03227582573890686
1761507968401265000,9.089264892578125,0.025094684213399887,0.259419709444046,-0.048389993607997894
1761507968411236000,9.099236083984374,0.02053559198975563,0.20221532881259918,-0.10793785005807877
1761507968421207800,9.109207763671876,0.008332189172506332,0.1536424607038498,-0.13739827275276184
1761507968431179000,9.119178955078125,0.004495174158364534,0.13057753443717957,-0.1582508385181427
1761507968441151000,9.12915087890625,0.0079170698300004,0.1268259435892105,-0.17023347318172455
1761507968451122000,9.139121826171875,0.01764102280139923,0.14796330034732819,-0.17089582979679108
1761507968461094000,9.149093994140625,0.0281546488404274,0.1787491738796234,-0.15965835750102997
1761507968471066000,9.159066162109376,0.03413715586066246,0.22078421711921692,-0.13067112863063812
1761507968481036800,9.169036865234375,0.0329725556075573,0.2628970444202423,-0.08934392780065536
1761507968491009000,9.179009033203124,0.015341419726610184,0.29218459129333496,-0.0467858724296093
1761507968500980000,9.18897998046875,-0.01085130125284195,0.30231979489326477,-0.015234872698783875
1761507968510952000,9.198951904296875,-0.04120955243706703,0.28352949023246765,-0.0019010994583368301
1761507968520923000,9.2089228515625,-0.053985003381967545,0.24963544309139252,-0.014368954114615917
1761507968530895000,9.21889501953125,-0.05245305970311165,0.2197110652923584,-0.041037652641534805
1761507968540865800,9.22886572265625,-0.04374052956700325,0.19739723205566406,-0.08392573148012161
1761507968550838000,9.238838134765626,-0.03501857444643974,0.18345899879932404,-0.10947549343109131
1761507968560809000,9.24880908203125,-0.02302449569106102,0.17151391506195068,-0.10994181036949158
1761507968570781000,9.258781005859374,-0.010778915137052536,0.15202771127223969,-0.07881496101617813
1761507968580753000,9.2687529296875,-0.009661184623837471,0.1205265074968338,-0.033093277364969254
1761507968590724000,9.27872412109375,-0.013011348433792591,0.08959570527076721,0.01456525083631277
1761507968600695800,9.28869580078125,-0.020779255777597427,0.06009054556488991,0.05080182105302811
1761507968610667000,9.2986669921875,-0.035829462110996246,0.05020175874233246,0.0506509467959404
1761507968620638700,9.308638671875,-0.048390261828899384,0.0543469674885273,0.02310667186975479
1761507968630610000,9.31860986328125,-0.05162610858678818,0.07623747736215591,-0.02562355250120163
1761507968640582000,9.328581787109375,-0.05724804103374481,0.09400688856840134,-0.06662584841251373
1761507968650553000,9.338552978515626,-0.06336283683776855,0.09977763891220093,-0.09032539278268814
1761507968660524800,9.34852490234375,-0.07192623615264893,0.0957898199558258,-0.10107816755771637
1761507968670496000,9.35849609375,-0.07634145021438599,0.08024304360151291,-0.09293023496866226
1761507968680468000,9.368468017578126,-0.07710763812065125,0.06857307255268097,-0.08627153187990189
1761507968690440000,9.37843994140625,-0.07572222501039505,0.06208343803882599,-0.08208905160427094
1761507968700411000,9.388410888671874,-0.07610678672790527,0.050628118216991425,-0.0770876333117485
1761507968710382800,9.3983828125,-0.06874138116836548,0.0377420149743557,-0.07648718357086182
1761507968720353800,9.408353759765625,-0.060128193348646164,0.028376206755638123,-0.06842126697301865
1761507968730326000,9.418325927734376,-0.045259688049554825,0.017490902915596962,-0.06251997500658035
1761507968740297000,9.428296875,-0.038337066769599915,0.01395395863801241,-0.043933235108852386
1761507968750269000,9.43826904296875,-0.0383281484246254,0.008396378718316555,-0.025118086487054825
1761507968760239900,9.448239990234375,-0.04703216254711151,0.0067265769466757774,-0.008137769997119904
1761507968770211800,9.4582119140625,-0.05327172577381134,0.00823039561510086,0.0012655409518629313
1761507968780182800,9.468182861328126,-0.06024734675884247,0.011801961809396744,0.006314894184470177
1761507968790155000,9.478155029296875,-0.07249868661165237,0.017088601365685463,0.0007379685994237661
1761507968800127000,9.488126953125,-0.08882572501897812,0.038340095430612564,-0.00946140568703413
1761507968810098000,9.498097900390626,-0.09392882883548737,0.06428627669811249,-0.029197782278060913
1761507968820070100,9.508070068359375,-0.08899372071027756,0.08399766683578491,-0.042199067771434784
1761507968830040800,9.518040771484374,-0.07890495657920837,0.09640423953533173,-0.05090763792395592
1761507968840013000,9.528012939453125,-0.07288195192813873,0.10856636613607407,-0.05268769711256027
1761507968849984000,9.53798388671875,-0.060573674738407135,0.11184285581111908,-0.05018186569213867
1761507968859956000,9.5479560546875,-0.047714073210954666,0.0960196852684021,-0.04603851959109306
1761507968869927000,9.557927001953125,-0.022229565307497978,0.07687385380268097,-0.04436459764838219
1761507968879899100,9.567899169921875,0.002151941414922476,0.06399773061275482,-0.03561664745211601
1761507968889869800,9.577869873046875,0.016492344439029694,0.0523047000169754,-0.026597177609801292
1761507968899842000,9.587842041015625,0.029149550944566727,0.023536166176199913,-0.012167639099061489
1761507968909813000,9.59781298828125,0.034176502376794815,0.01253780908882618,-0.0040922327898442745
1761507968919785000,9.607784912109375,0.023940376937389374,-0.008312877267599106,-0.00033797469222918153
1761507968929757200,9.617757080078125,0.0038456039037555456,-0.011914396658539772,-0.0031862540636211634
1761507968939728100,9.62772802734375,-0.006938867270946503,0.010828732512891293,-0.011940596625208855
1761507968949700000,9.6377001953125,-0.015761300921440125,0.05098070576786995,-0.030105184763669968
1761507968959671000,9.647671142578124,-0.02308366261422634,0.08520366251468658,-0.05046132206916809
1761507968969643000,9.65764306640625,-0.025873515754938126,0.10414522141218185,-0.04734862595796585
1761507968979614000,9.667614013671875,-0.025932639837265015,0.12003017961978912,-0.01780698075890541
1761507968989586200,9.677586181640624,-0.032690707594156265,0.1051333025097847,0.014668561518192291
1761507968999557000,9.68755712890625,-0.046645671129226685,0.06609269231557846,0.10845177620649338
1761507969009529000,9.697529052734374,-0.05431856960058212,-0.13720501959323883,0.31950587034225464
1761507969019501000,9.7075009765625,-0.05779052525758743,-0.3312549293041229,0.3269438147544861
1761507969029472000,9.717471923828125,-0.043781671673059464,-0.2438913881778717,0.14036603271961212
1761507969039444000,9.72744384765625,0.03167420253157616,0.016641665250062943,-0.10496143251657486
1761507969049415200,9.737415283203125,0.11557088047266006,0.24639946222305298,-0.2779039442539215
1761507969059387000,9.747386962890625,0.10074692964553833,0.32854095101356506,-0.27480348944664
