time,seconds_elapsed,z,y,x
1761469017395724300,0.066724365234375,-0.3444599186360836,-0.11545286395475268,-0.027731325881928205
1761469017405679400,0.076679443359375,-0.37652971211373804,-0.04933839672990143,-0.08906126224398613
1761469017415635500,0.086635498046875,-0.2774959219098091,0.010006722490489482,-0.14214819785244762
1761469017425590300,0.09659033203125,-0.12327157488167285,0.007894771837815642,-0.1020430550225079
1761469017435546400,0.10654638671875,0.021271336087584494,0.005239361958205699,-0.051987961390614505
1761469017445501400,0.11650146484375,0.20464871236383914,0.023732538569346068,-0.03144742379561066
1761469017455457500,0.12645751953125,0.4061924444496631,0.050544265388324856,0.024841230463609098
1761469017465412400,0.136412353515625,0.4461819250106811,0.03621821839399635,0.043305619371682404
1761469017475367400,0.146367431640625,0.3596446282863617,0.03200805335305631,0.037601124119758605
1761469017485323500,0.156323486328125,0.3165864078044891,0.05807224974036217,0.03998838458247483
1761469017495278300,0.1662783203125,0.2567214294284582,0.08926781766675412,0.06302110431939363
1761469017505234400,0.176234375,0.24904198084175586,0.09479111113287508,0.0733585200689733
1761469017515189500,0.186189453125,0.2778624171346426,0.08826886975727975,0.08871763643808663
1761469017525145300,0.196145263671875,0.2503729371845722,0.08168934523649513,0.12982063119895756
1761469017535100400,0.206100341796875,0.1403366914510727,0.07970723150856793,0.13488310222029684
1761469017545055500,0.216055419921875,-0.021208207723498344,0.09104038029722869,0.13541107161715626
1761469017555011300,0.22601123046875,-0.1308031394302845,0.14763773517943918,0.0818781458068639
1761469017564966400,0.23596630859375,-0.1985936501085758,0.18523272181935607,0.05202807420529425
1761469017574922200,0.245922119140625,-0.22464345264434812,0.1902588063530624,0.0870000919304788
1761469017584877600,0.255877685546875,-0.21296528981029986,0.2056413766629994,0.13119761864058674
1761469017594833400,0.26583349609375,-0.15444237369298933,0.1981959560278803,0.16324344672076402
1761469017604788200,0.275788330078125,-0.14259879116415977,0.1457745716560632,0.1716784629151225
1761469017614743600,0.28574365234375,-0.21588906830251214,0.09799714063256978,0.16983334650509058
1761469017624699400,0.295699462890625,-0.2745733124613762,0.09016016339659691,0.13073270454257727
1761469017634654200,0.305654296875,-0.249418412938714,0.0892858647800982,0.11003704945109784
1761469017644610300,0.3156103515625,-0.21308687036335466,0.0802552207801491,0.12969634723216295
1761469017654565400,0.3255654296875,-0.1528320158869028,0.022108225303143263,0.11826105324327946
1761469017664521500,0.335521484375,-0.08497019353806971,-0.0018511077594012021,0.07702865994907915
1761469017674476300,0.345476318359375,-0.06805529909431934,-0.03989712610244751,0.04324344085566699
1761469017684431400,0.355431396484375,-0.04735387184917927,-0.08816803973130881,0.014071049319952726
1761469017694387500,0.365387451171875,0.04711304883062839,-0.11471468587331474,-0.03549976792633533
1761469017704342300,0.37534228515625,0.1263461600214243,-0.15986680989451704,-0.04550459072068334
1761469017714298400,0.38529833984375,0.09882394684553146,-0.1599635482672602,-0.040016806959360836
1761469017724253400,0.39525341796875,-0.025080665242671964,-0.1545683381602168,-0.04966938224993646
1761469017734209300,0.405209228515625,-0.1274614277869463,-0.09676423783674835,-0.056301075349375604
1761469017744164400,0.415164306640625,-0.15415888057649135,-0.06015307460241019,-0.06013268940150737
1761469017754119400,0.425119384765625,-0.11039397312998771,-0.04106938475221395,-0.08632168121226132
1761469017764075300,0.4350751953125,0.02584989604949951,-0.04579641327410936,-0.0711610830899328
1761469017774030300,0.4450302734375,0.15014613780379293,-0.09168503487631678,-0.04939166128709912
1761469017783986400,0.454986328125,0.14715397025048732,-0.10666625784374772,-0.08830145685262977
1761469017793941500,0.46494140625,0.0651250908613205,-0.11049356104694306,-0.12402378148846327
1761469017803897300,0.4748974609375,-0.029181670820713042,-0.07917275930568575,-0.12170556767396629
1761469017813852400,0.484852294921875,-0.08263210597932338,-0.00768507460989058,-0.04346497465185821
1761469017823807500,0.494807373046875,-0.1726397091627121,0.059519160613045095,-0.006270239375904202
1761469017833763300,0.504763427734375,-0.175993111243844,0.11288381718434393,0.03411273401472718
1761469017843718400,0.514718505859375,-0.19273498720824717,0.15816095582470296,0.08895188358537852
1761469017853674500,0.524674560546875,-0.1811217063039541,0.17478629273734986,0.13469119637738913
1761469017863629300,0.53462939453125,-0.10312076725661753,0.19307035664245484,0.16835932842977344
1761469017873585400,0.54458544921875,-0.1019943935751915,0.1537858825456351,0.15873915757145732
1761469017883540500,0.55454052734375,-0.16635317623913287,0.15615589961260556,0.09090594026260078
1761469017893495300,0.564495361328125,-0.1904986064583063,0.17003887901455164,0.048555393126048146
1761469017903451400,0.574451416015625,-0.1635597461283207,0.1691908838830888,0.03524944642707705
1761469017913406500,0.584406494140625,-0.10379589003920554,0.1334240625184029,0.024956162080168723
1761469017923362600,0.594362548828125,-0.03127250562012195,0.11668211348876356,-0.029395898093283173
1761469017933317400,0.6043173828125,-0.028544541960954663,0.10480952406115829,-0.04484649213813245
1761469017943273200,0.614273193359375,-0.045237318086624144,0.09866882934905588,-0.07053896913621574
1761469017953228500,0.624228515625,-0.09876198752522468,0.06104037883095443,-0.10647310989182442
1761469017963183400,0.634183349609375,-0.0738777216374874,0.07014810665510594,-0.13893318132869897
1761469017973139200,0.64413916015625,0.027925533279776572,0.05015417009219527,-0.15299783744048326
1761469017983094500,0.654094482421875,0.0995318028539419,0.034373540375381706,-0.15642605832349507
1761469017993050400,0.66405029296875,0.17186930931210517,0.026583763282001016,-0.1278631404556334
1761469018003005200,0.674005126953125,0.2811854240775108,0.027054887925088405,-0.13281984954755752
1761469018012961300,0.683961181640625,0.35481764652132985,0.007186550503224134,-0.11085399185717106
1761469018022916400,0.693916259765625,0.3853390415132045,0.01583279829546809,-0.0844549740249291
1761469018032871400,0.703871337890625,0.3089449531406164,0.02675005975961685,-0.11752462872751056
1761469018042827300,0.7138271484375,0.23783961882591245,0.0025153438217937947,-0.1258055138060823
1761469018052782300,0.7237822265625,0.1617290235698223,0.00438449869453907,-0.1381393640698865
1761469018062738400,0.733738525390625,0.035602643778920175,-0.015767477974295615,-0.1332678855760023
1761469018072693200,0.743693359375,-0.08016308551728725,0.00772591807693243,-0.15081125064902007
1761469018082649300,0.7536494140625,-0.11578560304045676,0.030273119319230317,-0.14331077535841613
1761469018092604400,0.7636044921875,-0.07341010412573815,0.03171747290864586,-0.1065013496056199
1761469018102559200,0.773559326171875,-0.04074935901761055,0.04172112665921449,-0.08138181365728378
1761469018112515300,0.783515380859375,0.019417232653498647,0.04566328841373324,-0.06626169367581605
1761469018122470400,0.793470458984375,0.02321954754590988,0.041766573236137625,-0.02550195939466357
1761469018132426500,0.803426513671875,-0.027722704184055327,0.0747889912635088,0.021461451832205054
1761469018142381300,0.81338134765625,-0.05856792430281639,0.13115809034779666,0.08515760586895048
1761469018152337400,0.82333740234375,-0.039838673913478846,0.18077026251778006,0.12616104924548416
1761469018162292500,0.83329248046875,-0.051805006039142606,0.19131854453906416,0.15483813154492526
1761469018172248300,0.843248291015625,-0.04851180971264839,0.19510697703659532,0.18327482921723276
1761469018182203400,0.853203369140625,-0.03879413329660892,0.16656842642500996,0.16865531570166348
1761469018192158500,0.863158447265625,-0.017734394133090973,0.1461433319032192,0.16596077938806264
1761469018202114300,0.8731142578125,0.015373510220646857,0.12888298502266407,0.1471065509121865
1761469018212069400,0.8830693359375,0.030011107382178305,0.11552739049568772,0.13423296774849294
1761469018222025500,0.893025390625,0.06848316911756992,0.08886486288905143,0.10839311816897243
1761469018231980300,0.902980224609375,0.13870295276939867,0.04702347085103392,0.07292940793670713
1761469018241936400,0.912936279296875,0.21030863782167433,-0.005673369461297989,0.052899048353545364
1761469018251891500,0.922891357421875,0.15994330919682978,-0.03902662687823176,0.045846536026149985
1761469018261846300,0.93284619140625,0.0485766916424036,-0.028758476972579956,0.0011975392214953898
1761469018271802400,0.94280224609375,-0.037416415202617646,-0.014327800559997557,-0.019880904642492533
1761469018281757400,0.95275732421875,-0.06368015275001525,-0.02762289707139134,-0.01981346542946994
1761469018291713500,0.962713623046875,-0.05327449406981468,-0.020589783564209936,0.0013018398461863397
1761469018301668400,0.97266845703125,-0.07756430119574069,-0.032668197762221095,0.001134703118354082
1761469018311623400,0.98262353515625,-0.08719020767509937,-0.040655981645733114,-0.026008228416368365
1761469018321579500,0.99257958984375,-0.1304588560372591,-0.07023088956773281,-0.054750192645564674
1761469018331534300,1.002534423828125,-0.19643150363862513,-0.09214461521208286,-0.08482519557680934
1761469018341490200,1.012490234375,-0.22167525048851966,-0.06283493409752845,-0.10912720459718256
1761469018351445500,1.022445556640625,-0.2085153246641159,-0.037644524870067836,-0.11827022293042391
1761469018361401300,1.0324013671875,-0.19254443307220934,-0.019324878194928168,-0.10850461571943014
1761469018371356400,1.0423564453125,-0.20388181964457033,-0.0019277531921863555,-0.08632741683330386
1761469018381311500,1.0523115234375,-0.24784020383656025,0.016297493197768926,-0.0859199320109561
1761469018391267300,1.062267333984375,-0.2383084053814411,0.04536927390322089,-0.0914644143955782
1761469018401222400,1.072222412109375,-0.15745616855621336,0.0715317430332303,-0.0917803850095719
1761469018411178200,1.08217822265625,-0.044697804382443425,0.04415332224220037,-0.07508928938433528
1761469018421133300,1.09213330078125,0.08526362352669238,0.030132687935233115,-0.05082326499279588
1761469018431089400,1.10208935546875,0.17084639600515364,0.037228637545555825,-0.009024396922253071
1761469018441044200,1.112044189453125,0.17933774549663065,0.0512574551589787,0.003095262601599097
1761469018450999600,1.12199951171875,0.16153087064921856,0.05189122301787138,-0.015003873190656304
1761469018460955400,1.131955322265625,0.15652853231728076,0.04194456015154719,-0.01170961741823703
1761469018470910200,1.14191015625,0.1697200223237276,0.04178805441558361,-0.008347922432795167
1761469018480866600,1.151866455078125,0.13745324496924877,0.056389118959009644,-0.00013104250114411115
1761469018490821400,1.1618212890625,0.14532207864820956,0.046545916467159984,0.018320888784155248
1761469018500777500,1.171777587890625,0.1325537824898958,0.049382308936864135,0.03272854964733123
1761469018510732300,1.181732177734375,0.062086746078729625,0.03720993284508586,0.02377805821150541
1761469018520687400,1.191687255859375,0.015108721804618835,0.048790772784501314,-0.005639321061223745
1761469018530643500,1.2016435546875,-0.037898645761609076,0.030759879922866818,-0.012164667709358036
1761469018540598300,1.211598388671875,-0.009531798455119133,0.034203152244538064,-0.03216401109974831
1761469018550554400,1.221554443359375,0.03125964613854885,0.022048457939922807,-0.024146416599862275
1761469018560509400,1.231509521484375,0.0830582224369049,0.01512596520036459,-0.034903336403146384
1761469018570465300,1.24146533203125,0.0847796394020319,-0.000002776478976011276,-0.03091759123522788
1761469018580420600,1.251420654296875,0.006804419317841529,-0.019649141713231802,-0.015561178279854357
1761469018590375400,1.26137548828125,-0.07064706915318965,0.019586597871035335,-0.023937888415716587
1761469018600331300,1.271331298828125,-0.09150281017720699,0.05876870757192373,0.005149382119812071
1761469018610286600,1.28128662109375,-0.032488895672559734,0.052115533293038606,0.028928463244624433
1761469018620242400,1.291242431640625,0.06150690036416053,0.01607332905307412,0.07089801170695573
1761469018630197200,1.301197265625,0.14425006550252437,-0.016409136878699063,0.0909486103605479
1761469018640153300,1.3111533203125,0.2252723981976509,-0.022148118922114372,0.08819237045496701
1761469018650108400,1.3211083984375,0.1988695444405079,-0.06152575119510292,0.08427278585843741
1761469018660063200,1.331063232421875,0.09870821151137352,-0.07797726591080427,0.03849507728479802
1761469018670019300,1.341019287109375,-0.023635142609477043,-0.06750161073431372,0.0027252602454274893
1761469018679974400,1.350974365234375,-0.09555179330706595,-0.04220642595812678,0.02575085612181574
1761469018689930500,1.360930419921875,-0.17130349212288856,-0.040470395945757624,0.03195625010058284
1761469018699885300,1.37088525390625,-0.22419512435495853,-0.02183554584160447,0.0348190191205591
1761469018709841400,1.38084130859375,-0.21904373294115065,-0.015930997972935436,0.03816376297120005
1761469018719796500,1.39079638671875,-0.21450842759907243,-0.02377878886386752,0.0474202516162768
1761469018729751300,1.400751220703125,-0.19508593424856663,-0.03225654822140932,0.02148125251121819
1761469018739707400,1.410707275390625,-0.12323825713396072,-0.07142740587592125,-0.03321969416514039
1761469018749662500,1.420662353515625,-0.07700491374731064,-0.08741042629703878,-0.05858198936078697
1761469018759618300,1.430618408203125,-0.038759061983227726,-0.09999693614766002,-0.0563105372974649
1761469018769573400,1.440573486328125,-0.03817395557165146,-0.09040332450270652,-0.06278199833389371
1761469018779529200,1.450529296875,-0.12517419363260268,-0.07610591908097267,-0.07956782303787767
1761469018789484500,1.460484619140625,-0.19955986479222773,-0.05616597772762179,-0.09725490743052213
1761469018799439400,1.470439453125,-0.13853811759650705,-0.003317600115388632,-0.05562266463115811
1761469018809395200,1.480395263671875,-0.047401802644133566,-0.0003707330085337162,-0.01561162982545793
1761469018819350500,1.4903505859375,0.03141922061443329,-0.0018090952485799788,0.027645072370581326
1761469018829306400,1.500306396484375,0.08146130863428115,-0.0039398236669600005,0.0549988336443901
1761469018839261200,1.51026123046875,0.10769406652152538,-0.022557576505839824,0.08148268021587282
1761469018849216500,1.520216552734375,0.12047054598629474,-0.012263853767514227,0.0664983154432848
1761469018859172400,1.53017236328125,0.09787643686234951,0.012328151175379753,0.07504263723101466
1761469018869127200,1.540127197265625,0.061979194051027295,0.037920565332472324,0.07328165544047952
1761469018879083500,1.55008349609375,0.037141105392575265,0.05740867126509547,0.06069101740401238
1761469018889038300,1.560038330078125,0.025011107137799263,0.05944748361632227,0.032937881549075246
1761469018898994400,1.569994384765625,-0.00492693500816822,0.05127133755385875,0.03919281375799328
1761469018908949200,1.57994921875,0.0019476269364356994,0.04639715564623475,0.01363368081599474
1761469018918904300,1.589904296875,0.008270400217175483,0.02880421581044793,0.0027744696820154783
1761469018928860400,1.5998603515625,0.011029928058385848,-0.004034954604506492,0.001993658035248518
1761469018938815200,1.609815185546875,-0.00019639935493469238,-0.018149843066185712,-0.04587978070862591
1761469018948771600,1.619771484375,-0.01771101325750351,-0.021609335870295763,-0.03691562607362866
1761469018958726400,1.629726318359375,-0.03937105640172958,-0.03188420777767897,-0.03349968015030026
1761469018968682200,1.63968212890625,-0.015767477974295615,-0.010152414571493863,-0.04879040745832026
1761469018978637600,1.649637451171875,0.04971241767406463,-0.009941840560734272,-0.06922872678786515
1761469018988592400,1.65959228515625,0.12908932124972342,-0.025209552319347857,-0.0595529898174107
1761469018998548200,1.66954833984375,0.16520868237912653,-0.04376783005595207,-0.027792554549872873
1761469019008503600,1.679503662109375,0.13987199654877186,-0.044214989301562306,-0.004609028165414929
1761469019018459400,1.68945947265625,0.07714461447894573,-0.009488689965754747,-0.01841729836333543
1761469019028414500,1.69941455078125,0.027572482058405876,-0.027953298069536683,-0.04049969510547816
1761469019038370300,1.709370361328125,-0.04371346952021122,-0.03108925800770521,-0.05001308112107217
1761469019048325400,1.719325439453125,-0.06175064599215984,-0.025230448976904154,-0.05111669498141855
1761469019058280700,1.72928076171875,-0.02108721169233322,-0.001424625975638628,-0.061424628908187145
1761469019068236800,1.73923681640625,-0.026103578549623488,-0.03215074975937605,-0.059955688866786656
1761469019078191900,1.74919189453125,-0.08351531855463981,-0.048613224260509014,-0.0826443809390068
1761469019088148000,1.75914794921875,-0.07851648735404014,-0.03689604459032416,-0.07315496032088994
1761469019098102800,1.769102783203125,-0.048775429084897036,-0.02067073984593153,-0.026303375438041985
1761469019108057900,1.779057861328125,0.05656769039630889,-0.035595044994354244,0.009389723103307187
1761469019118014000,1.789013916015625,0.21259061127901077,-0.028206103786826132,0.044948820001445705
1761469019127968800,1.79896875,0.31067279984652996,-0.0565076307721436,0.07126352055110037
1761469019137924600,1.808924560546875,0.3334849356353283,-0.04820449732914567,0.09116484692711382
1761469019147880000,1.8188798828125,0.23644611864089965,-0.004959229842573404,0.08435158671569079
1761469019157835800,1.828835693359375,0.04290215313732624,0.028276830935478208,0.05715856896154582
1761469019167790600,1.83879052734375,-0.16311784757971762,0.05892725913450122,0.016027517149969934
1761469019177746000,1.848745849609375,-0.26513445298671723,0.09331994260177015,-0.01760590891521424
1761469019187701800,1.85870166015625,-0.3315799787968397,0.10712094280868768,0.0009240560423582791
1761469019197656800,1.86865673828125,-0.35177754817306994,0.11386632541567086,0.05268825514707714
1761469019207612700,1.87861279296875,-0.3120475953310728,0.10344298494830727,0.09607439240906387
1761469019217567700,1.888567626953125,-0.2645762345820665,0.10547010686174034,0.08447850103098899
1761469019227523800,1.89852392578125,-0.1535457171142101,0.06977014018818736,0.03725326053015888
1761469019237478700,1.908478759765625,-0.062302434656023975,0.02209755777865648,0.037401436829194425
1761469019247433700,1.918433837890625,0.014677929171919821,-0.025345161397755146,-0.002898096061684191
1761469019257389800,1.928389892578125,0.03132218998074531,-0.04004939405471086,-0.02736694954894483
1761469019267344600,1.9383447265625,0.07274784082472324,-0.02237199080586433,-0.047094161467067894
1761469019277300700,1.94830078125,0.14061375482678412,-0.015412234795838593,-0.05458210606966167
1761469019287255800,1.958255859375,0.18526362841427324,-0.02530658295303583,-0.030609255938418206
1761469019297211600,1.968211669921875,0.18278584012389182,-0.05095145794972777,-0.05056508898064494
1761469019307166700,1.978166748046875,0.12308978857398033,-0.056712359564006325,-0.07212631139289587
1761469019317121800,1.988121826171875,0.034084055909514424,-0.07378083713427186,-0.11245872364006936
1761469019327078000,1.998077880859375,-0.010717208847403526,-0.06888970409184694,-0.15717654789723454
1761469019337032700,2.00803271484375,-0.038897009149193765,-0.0848445213317871,-0.1637211472351104
1761469019346988800,2.01798876953125,-0.053987026253342625,-0.07241086395531893,-0.1236263431360945
1761469019356944000,2.02794384765625,-0.06685819826424122,-0.046970425489544866,-0.08956643528714775
1761469019366898700,2.037898681640625,-0.07836042000949382,-0.031173429159820076,-0.07335950644966215
1761469019376854800,2.047854736328125,-0.07070376777648925,0.001293254680931568,-0.01922404816895723
1761469019386809900,2.057809814453125,-0.02385609188377857,0.017426789488643405,0.05368895662222057
1761469019396765700,2.067765625,0.04541150560975075,0.03665186057090759,0.06257595436777919
1761469019406720800,2.077720703125,0.13331775259971618,0.05179433851465583,0.08460245620422065
1761469019416676900,2.0876767578125,0.1825865181595087,0.047938101477921005,0.13576404977329073
1761469019426631700,2.097631591796875,0.1867997519403696,0.06434490026906133,0.14303323705866933
1761469019436586800,2.107586669921875,0.1929652888327837,0.071860536596179,0.15087525579594074
1761469019446542800,2.11754296875,0.09198270264863967,0.06271262289211153,0.10066599451564252
1761469019456497700,2.12749755859375,-0.05366670825779438,0.05833206972032785,0.08752312942389398
1761469019466453800,2.137453857421875,-0.15514496900439262,0.06585647387579083,0.02390942950621247
1761469019476408800,2.147408935546875,-0.17931904079616068,0.06535524635538459,0.02373849338609725
1761469019486365000,2.157364990234375,-0.16363982562720775,0.04630903897136449,0.07727521858867258
1761469019496319700,2.16731982421875,-0.14333178161382673,0.04818418519347906,0.1128363247808069
1761469019506274800,2.17727490234375,-0.11119418359696864,0.038053251801431175,0.1141352054849267
1761469019516231000,2.18723095703125,-0.08550795367658137,0.005806055930256843,0.09932195949554443
1761469019526185700,2.197185791015625,-0.05352583848237991,-0.03287906403392553,0.05177570687942207
1761469019536141800,2.207141845703125,-0.05038578689098358,-0.058040101036429405,0.0035411797381937503
1761469019546097000,2.217096923828125,-0.06889467252790928,-0.06767375243082642,-0.07345558723527938
1761469019556052700,2.227052734375,-0.11395721856951713,-0.07503259076103568,-0.11014777981657534
1761469019566007800,2.2370078125,-0.1543909357666969,-0.055345308994501824,-0.1435766232203692
1761469019575963000,2.246962890625,-0.14120061480402946,-0.03406345151290297,-0.13646353981215506
1761469019585918700,2.256918701171875,-0.13208499593436718,-0.019617577531188726,-0.14540902627930044
1761469019595873800,2.266873779296875,-0.11226035152375698,-0.01853504299148917,-0.14242865876164287
1761469019605829600,2.27682958984375,-0.0006938274830579757,-0.042941608364880084,-0.1264591554092243
1761469019615784700,2.28678466796875,0.12954291023612022,-0.07507219211906194,-0.0930954131308943
1761469019625740800,2.29674072265625,0.20127952819168565,-0.07661226116791367,-0.07034881685897708
1761469019635695600,2.306695556640625,0.25079320842325686,-0.05658215731307864,-0.0659407180931419
1761469019645651000,2.31665087890625,0.26009119812250137,-0.03669073127657175,-0.07429587398432194
1761469019655606800,2.326606689453125,0.19416063609719275,-0.014984510903060435,-0.004781937046907842
1761469019665561600,2.3365615234375,0.0022778818041086194,-0.08065919847115874,0.006487279660068452
1761469019675517700,2.346517578125,-0.07890227180123328,0.01642038892507553,-0.08341310028918086
1761469019685472800,2.35647265625,-0.1736883414328098,0.011369973667711019,-0.05377276244815438
1761469019695427600,2.366427490234375,-0.2291074463158846,0.009695756845176219,-0.03473408078346401
1761469019705383700,2.3763837890625,-0.26642273923158644,0.03941781815290451,-0.046427989175915715
1761469019715338800,2.3863388671875,-0.21818682385087013,0.041019846522063017,0.013571429234743117
1761469019725294800,2.396294921875,-0.1427846691250801,0.03776172150894999,0.07713781941197811
1761469019735249700,2.406249755859375,-0.10513795229792594,0.03644552434384823,0.09138959559369832
1761469019745205800,2.416205810546875,-0.0960556511759758,0.04003229678943753,0.07690148990545422
1761469019755160800,2.426160888671875,-0.047674189844727516,0.042714960002154106,0.0539031473621726
1761469019765115600,2.43611572265625,0.013393734580278396,0.005405073913931847,0.07273600425645708
1761469019775071700,2.44607177734375,0.02262567330598831,-0.011286825428903103,0.05179105057902634
1761469019785026800,2.45602685546875,-0.028887071788311004,-0.005108721315860748,0.05026826145853847
1761469019794982700,2.465982666015625,-0.06304010128080845,0.010155483311414719,0.05514357587732374
1761469019804937700,2.475937744140625,-0.054881929266452786,0.020462503922730683,0.02442917906399816
1761469019814893800,2.485893798828125,-0.04128945724368095,-0.008810936834663153,-0.019083507187105712
1761469019824848600,2.4958486328125,-0.020486907711625098,-0.021338848365843294,-0.049866804518178105
1761469019834803700,2.5058037109375,0.02021101337969303,-0.041597500279545785,-0.06851082430947572
1761469019844759800,2.515759765625,0.044295068800449366,-0.05510024819225073,-0.11051361745428294
1761469019854715000,2.52571484375,0.0516875171393156,-0.04109948762953281,-0.17950433423519133
1761469019864670700,2.535670654296875,-0.00769932233095169,-0.04481587780416012,-0.20885007304381578
1761469019874625800,2.545625732421875,-0.04473521378338337,-0.025801672993600366,-0.20973701194617897
1761469019884582000,2.555581787109375,-0.03462415413558483,0.003126753718405962,-0.19062647062167523
1761469019894536700,2.56553662109375,0.031063831305503845,0.0367835241265595,-0.1505496040381491
1761469019904491800,2.57549169921875,0.04058101671338081,0.03196399501562119,-0.11238463549055158
1761469019914448000,2.58544775390625,0.041941199150681494,0.022527619758993384,-0.07256349723376333
1761469019924402700,2.595402587890625,0.04319733669161796,0.036333588401973246,-0.03433076067958027
1761469019934358800,2.60535888671875,0.043996378114819525,0.03227189192101359,-0.001255078095011413
1761469019944313900,2.61531396484375,0.07693886277377605,0.006767009916901588,0.01604746395945549
1761469019954268700,2.6252685546875,0.14450959322154522,-0.018113894969969988,0.03806848590318113
1761469019964224800,2.635224853515625,0.204175249633193,-0.04675590595602989,0.052352483854070306
1761469019974179800,2.645179931640625,0.15800912626385688,-0.03942965472117066,0.05870280272886157
1761469019984136000,2.655135986328125,-0.023566753548383713,-0.016042641653865576,0.07606500254869461
1761469019994090800,2.6650908203125,-0.1699210978537798,0.03088701343387365,0.07457217017505317
1761469020004046600,2.675046630859375,-0.2722586057782173,0.06363982073962689,0.11108425694908947
1761469020014002000,2.685001953125,-0.30858488765656944,0.08826324373409151,0.11867577152401208
1761469020023956700,2.694956787109375,-0.26048984205126763,0.09723945413306355,0.13137951454613356
1761469020033912600,2.70491259765625,-0.18202888427674768,0.08247121632918715,0.13139237402770668
1761469020043868000,2.714867919921875,-0.10926058518588543,0.048027679457515474,0.10368797268532216
1761469020053823700,2.72482373046875,-0.055063131052255625,0.03951134165525436,0.08450173577610402
1761469020063778000,2.734778076171875,-0.006173720198869705,0.02262742687165737,0.053101658253557976
1761469020073734400,2.744734375,0.028991701206564902,-0.011904372805356979,0.012572298662178218
1761469020083689200,2.754689208984375,0.059527124723792076,-0.032989684801548715,0.006800071936286986
1761469020093644000,2.76464404296875,0.127452659958601,-0.03948445364832878,-0.0028783319152891635
1761469020103600400,2.774600341796875,0.1410468855470419,-0.03369593337476253,-0.03342142728231847
1761469020113555200,2.78455517578125,0.045377603340148925,-0.030247400356084107,-0.06987999377083033
1761469020123511300,2.79451123046875,-0.13959668673872946,-0.01825067309215665,-0.13218184390496462
1761469020133466400,2.80446630859375,-0.2765074953943491,0.038569969151914116,-0.16968345317300407
1761469020143422500,2.81442236328125,-0.32390462186336516,0.07853153879269957,-0.1924393287299201
1761469020153377300,2.824377197265625,-0.29883038636147974,0.10462094268649816,-0.16585666142646222
1761469020163332000,2.83433203125,-0.17625614609420298,0.08444134735837579,-0.1290506697397679
1761469020173288400,2.844288330078125,-0.030867431950569152,0.048060412683337925,-0.09570961421728133
1761469020183243300,2.8542431640625,0.1616974593877792,0.007562690339237451,-0.0852144506227225
1761469020193199000,2.86419921875,0.31209260351657864,-0.0009762976862490177,-0.050289633040130136
1761469020203154400,2.874154541015625,0.3348556394666433,-0.03518558741062879,-0.009291961817257105
1761469020213110300,2.8841103515625,0.3343745779514313,-0.0564401184938848,0.010626315693557261
1761469020223065300,2.8940654296875,0.3495411674231291,-0.023758622858673334,0.04688329519536346
1761469020233020400,2.9040205078125,0.29738837085962294,-0.003912058877199888,0.10135540155190974
1761469020242976300,2.913976318359375,0.1954997757464647,0.029108459454029796,0.1397953511159867
1761469020252931300,2.923931396484375,0.06767068369090556,0.05751753846704959,0.16113197099212556
1761469020262887200,2.93388720703125,-0.006090133568644523,0.06646203855350613,0.14675444953888653
1761469020272842200,2.94384228515625,-0.05042962603271007,0.07379720374718308,0.15108878894876687
1761469020282797300,2.95379736328125,-0.1103594863384962,0.0712711924009025,0.13739333147555588
1761469020292753200,2.963753173828125,-0.1254652855336666,0.04361483145132661,0.1333886989440769
1761469020302708200,2.973708251953125,-0.12511574144363402,0.0340663741223514,0.15462010488007216
1761469020312664300,2.983664306640625,-0.16610592347979544,0.02583747495934367,0.1619057318435982
1761469020322619100,2.993619140625,-0.23630407982170581,0.01806552578359842,0.12269574775509536
1761469020332575200,3.0035751953125,-0.2665115865588188,0.033167817847430704,0.08395422142855823
1761469020342530300,3.0135302734375,-0.303376797619462,0.037732641544938085,0.054114269362203773
1761469020352485000,3.023485107421875,-0.3242494897782802,0.03851896961703896,0.055097690908983345
1761469020362441200,3.033441162109375,-0.290396320015192,0.02633987152352929,0.019746939531899987
1761469020372396300,3.043396240234375,-0.19935937378406524,-1.461304724216461e-7,-0.024220358618907627
1761469020382352400,3.053352294921875,-0.06317571035921574,-0.009817629659175871,-0.030838826910592615
1761469020392307200,3.06330712890625,0.08167465912401675,-0.04654650098904967,-0.026849793807044622
1761469020402263000,3.073262939453125,0.22735621873438358,-0.05895239357575774,-0.008045943811535835
1761469020412218400,3.08321826171875,0.36980537229478355,-0.05182151878252625,-0.020364486908353865
1761469020422173200,3.093173095703125,0.4070470154523849,-0.06596651012152432,-0.027088644064217803
1761469020432129000,3.10312890625,0.31237551211118697,-0.05509250327721238,-0.04527476402018219
1761469020442084400,3.11308447265625,0.1487842018008232,-0.03083703681230545,-0.06713504244424402
1761469020452040200,3.123040283203125,0.037919688549637794,0.002146364378929138,-0.1154739798080176
1761469020461995300,3.132995361328125,-0.0020627777487039565,0.004683773902058601,-0.11195577908661215
1761469020471950300,3.142950439453125,0.04062836298644543,0.019025456856936216,-0.11407437867578119
1761469020481906200,3.15290625,0.10798048224747181,0.015447013848274946,-0.10596749845724553
1761469020491861200,3.162861328125,0.13719196368455885,0.02186944811120629,-0.052187758279033
1761469020501817300,3.1728173828125,0.10525953285098075,0.042059272572398186,0.011619199188426136
1761469020511772200,3.182772216796875,0.019969021317362785,0.10786445465236902,0.029220504993759094
1761469020521728300,3.192728271484375,-0.05480535689890385,0.13575330918356776,0.05956150191742927
1761469020531683300,3.202683349609375,-0.1105775130033493,0.12023922144845127,0.07930964702572674
1761469020541638400,3.212638427734375,-0.13066636130809783,0.10882423959523439,0.056499374400451774
1761469020551594200,3.22259423828125,-0.1408276898384094,0.06778656515553594,0.03464589104335755
1761469020561549300,3.23254931640625,-0.1287812782138586,0.05282601964995265,0.03938691155798733
1761469020571505400,3.24250537109375,-0.1248988838225603,0.035110184086859224,0.05497563543189317
1761469020581460200,3.252460205078125,-0.11080489201843738,0.02755523866266012,0.07846468410156666
1761469020591416300,3.262416259765625,-0.11222995638549327,0.024468670824170112,0.09384959249906241
1761469020601371400,3.272371337890625,-0.10352058022916316,0.02261398286819458,0.0900190378928557
1761469020611326200,3.282326171875,-0.11094809988141059,0.02002995772436261,0.07391904002856463
1761469020621282300,3.2922822265625,-0.09403612804710865,0.008723989203572273,0.08880173452496529
1761469020631237400,3.3022373046875,-0.02516016021966934,0.0014727029010653495,0.08572645526546985
1761469020641193200,3.312193115234375,0.038404841718077655,-0.021987667663395404,0.04774422287363559
1761469020651148300,3.322148193359375,0.10929039580225944,-0.06486687831655144,0.03901373086404055
1761469020661104000,3.332104248046875,0.09838263281881808,-0.09677169049084186,0.018484445315413177
1761469020671059500,3.3420595703125,0.0190098208963871,-0.11947042903304099,-0.034249658267386254
1761469020681014300,3.35201416015625,-0.05370236409306526,-0.09154898740649223,-0.07943151983972638
1761469020690970000,3.36197021484375,-0.11429799483120441,-0.05381166968643665,-0.01752151856739074
1761469020700925400,3.371925537109375,-0.13791501726210117,-0.009095306733995676,0.014990429187193512
1761469020710881300,3.38188134765625,-0.1634708988010883,0.016807050155103205,0.0459742175264284
1761469020720836000,3.391836181640625,-0.2027987005829811,0.06984452059864997,0.05025441559627652
1761469020730792200,3.401792236328125,-0.2380208206117153,0.09196429020911455,0.06232559633590281
1761469020740747300,3.411747314453125,-0.25338614752590655,0.08314443941563367,0.024134872292540965
1761469020750702000,3.4217021484375,-0.2351017182946205,0.06584171469807625,-0.059273844082467254
1761469020760658200,3.431658203125,-0.16225450874865055,0.031242256612330672,-0.13337426855992526
1761469020770613200,3.44161328125,-0.02528349433839321,-0.006107376964390277,-0.1941799618521705
1761469020780569300,3.4515693359375,0.07101882507503032,-0.013575374757498503,-0.1947002959318459
1761469020790524200,3.461524169921875,0.12056114687919615,0.002781885803490877,-0.1788161693079397
1761469020800479200,3.471479248046875,0.17899053949415683,0.02362622865065932,-0.16292678198702631
1761469020810435300,3.481435302734375,0.21245324863493442,0.0462314436905086,-0.1478628491722047
1761469020820390100,3.49139013671875,0.26688743413388727,0.02204158980771899,-0.12406261566150933
1761469020830346200,3.50134619140625,0.32861119211912154,-0.012383096233010291,-0.15247377703376114
1761469020840301300,3.51130126953125,0.3114917150139809,-0.0439395333610475,-0.17038316240757703
1761469020850257200,3.521257080078125,0.24611118808686733,-0.029570962399244307,-0.14439393095262348
1761469020860212200,3.531212158203125,0.22697744854986665,-0.007427081260830163,-0.10641809176895767
1761469020870167300,3.541167236328125,0.2003290955990553,0.016795359717309475,-0.06221442757900804
1761469020880123400,3.551123291015625,0.17158289358615875,0.029348697950690984,-0.009330576794594526
1761469020890078200,3.561078125,0.13804244303405283,0.05942249530553818,0.022132008037529884
1761469020900034300,3.571034423828125,0.05600479581654071,0.0836637871146202,0.026649156668409703
1761469020909989400,3.5809892578125,-0.027763620716333388,0.09717647189944982,0.026599654970876872
1761469020919945200,3.5909453125,-0.12831892139911652,0.11879194524958729,0.049339894567243754
1761469020929900300,3.600900390625,-0.22467034065127373,0.1367844057969749,0.062397200267389416
1761469020939855400,3.61085546875,-0.31310674899518487,0.10916136259511112,0.02019366038609296
1761469020949811200,3.620811279296875,-0.31838030548393725,0.1020639516800642,0.009431626016274093
1761469020959766300,3.630766357421875,-0.23273966533839702,0.044761078877002,-0.01559347311425954
1761469020969722400,3.640722412109375,-0.11407236938178539,-0.019416940392553806,-0.010266177144274115
1761469020979677200,3.65067724609375,-0.011548983496427535,-0.06741276340708136,-0.01021031877119094
1761469020989632300,3.66063232421875,0.08777823669612407,-0.08356748713329434,-0.027811624576523898
1761469020999588400,3.67058837890625,0.1431371358245611,-0.10643106084838509,-0.01725377100929618
1761469021009543200,3.680543212890625,0.11776187154948711,-0.11041779239699244,-0.006179601950384676
1761469021019499300,3.690499267578125,0.08259002040326595,-0.09282090703845024,-0.017654789558239282
1761469021029454300,3.700454345703125,0.02517769587635994,-0.06214563665911555,-0.037164303605072196
1761469021039410400,3.710410400390625,-0.023522914406657217,-0.048673722276091576,-0.03599299480337649
1761469021049365200,3.720365234375,-0.048904023900628084,-0.04616173945516348,-0.030360140015557407
1761469021059320300,3.7303203125,-0.05715630393922329,-0.03500453175529837,-0.009787088390439748
1761469021069276200,3.740276123046875,-0.03318564576506614,-0.01852072220519185,0.04947426153663546
1761469021079231000,3.75023095703125,-0.030993104156851768,-0.024549042584002017,0.06197557732183486
1761469021089187000,3.76018701171875,-0.05154956997334957,-0.00851867588981986,0.07123827651198952
1761469021099142100,3.77014208984375,-0.1166951191008091,-0.008038052766025067,0.06320215997472405
1761469021109098000,3.780097900390625,-0.1353290924221277,-0.0036377719804644585,0.035364341511018575
1761469021119053000,3.790052978515625,-0.09772972186803817,-0.012250994285941123,0.035985176823101934
1761469021129008000,3.800008056640625,-0.07532382879257202,-0.024991087263077496,0.03397175464145839
1761469021138964000,3.8099638671875,-0.0726408733189106,-0.00033858430460095406,0.03886909822896123
1761469021148919000,3.8199189453125,-0.09051672174930572,0.030976299152523278,0.035290764818154276
1761469021158875000,3.829875,-0.1353524732977152,0.057979310759901995,0.02861066599972546
1761469021168830200,3.839830322265625,-0.10088146389722824,0.08869608219340443,0.02524279700182378
1761469021178786000,3.8497861328125,0.012989829954504966,0.08623875216916203,0.06050999828130006
1761469021188740900,3.859740966796875,0.090221538195014,0.06580708177611232,0.10116594339441508
1761469021198696200,3.8696962890625,0.14608371067047118,0.07010667866617441,0.09421711063720285
1761469021208652000,3.879652099609375,0.2332587207764387,0.05272416671067476,0.08231547777820378
1761469021218606800,3.88960693359375,0.2547679572731256,0.03358312065005302,0.10092625288702547
1761469021228563000,3.89956298828125,0.22853870651721953,0.029667262380570172,0.12572806465569883
1761469021238518000,3.90951806640625,0.19641864415705204,0.04359203509762883,0.10192074381709099
1761469021248474000,3.91947412109375,0.15887012700736522,0.03673500880971551,0.1040474171148613
1761469021258429000,3.929428955078125,0.09387480000555515,0.016297639328241346,0.11632763749528675
1761469021268384000,3.939384033203125,0.02467266896367073,0.001988689599186182,0.10657459750492125
1761469021278340000,3.949340087890625,-0.02539981419444084,-0.006831453455239534,0.06877086348515003
1761469021288295000,3.959294921875,-0.09347732512056826,-0.011728870107978582,0.06351403893548994
1761469021298251300,3.969251220703125,-0.15147007988393305,-0.02213905883282423,0.05577197344135493
1761469021308206000,3.9792060546875,-0.20481530110239982,-0.009935995341837405,0.057617053318768735
1761469021318783000,3.989782958984375,-0.23632862974107263,-0.021210399680584666,0.043260209327377376
1761469021328739000,3.999739013671875,-0.252441560152173,-0.039458442424237725,0.011558481977134943
1761469021338694100,4.009694091796875,-0.24862054055929184,-0.06505261014699935,-0.006297931100428104
1761469021348650000,4.01964990234375,-0.21169453922212123,-0.07585735114738344,-0.00783277598489076
1761469021358605000,4.02960498046875,-0.1678068821787834,-0.08266630050987005,-0.00364102338347584
1761469021368561200,4.03956103515625,-0.070187634947896,-0.06118336749821901,-0.000711253541894257
1761469021378516000,4.049515869140625,-0.005885550907254219,-0.061937546866387125,0.0240952709345147
1761469021388471000,4.059470947265625,0.036188919234275814,-0.057188306512683626,0.03147679602056742
1761469021398427100,4.06942724609375,0.017342179945111273,-0.05740121861100197,0.029214221383444962
1761469021408382000,4.0793818359375,-0.004662146592140198,-0.03179287623241544,0.037195465928316115
1761469021418338000,4.089338134765625,-0.013212532794475554,-0.01570478800162673,0.044736419359780843
1761469021428292900,4.09929296875,-0.01576864701807499,0.012491086652129888,0.0441157301781699
1761469021438248200,4.109248291015625,-0.02995674684643745,0.029540859521925446,0.10905220313221216
1761469021448204000,4.1192041015625,-0.0376969857096672,0.0561417200691998,0.15987236285246909
1761469021458158800,4.129158935546875,-0.02395370703935623,0.084882953646034,0.19913685360718517
1761469021468115200,4.139115234375,-0.02629705529510975,0.10350012196302413,0.23586356951259074
1761469021478070000,4.149070068359375,-0.028741525837779044,0.08722995516359805,0.21962427277546376
1761469021488026000,4.159026123046875,-0.0033949031352996824,0.06381488504558801,0.18195121593065558
1761469021497981200,4.168981201171875,0.019549334600567816,0.03748801913410425,0.12097027566935867
1761469021507936000,4.17893603515625,0.013873627051711081,-0.0024988310784101486,0.054765244084224105
1761469021517892000,4.18889208984375,0.013346388307213783,-0.016872662737220524,-0.022550379580073058
1761469021527847200,4.19884716796875,-0.01467325299680233,-0.044578123525530096,-0.12707027304489166
1761469021537803000,4.208802978515625,-0.09502221647500991,-0.06742021606117486,-0.20510759857986122
1761469021547758000,4.218758056640625,-0.17410101388692856,-0.04921075176224112,-0.286718837078847
1761469021557714000,4.2287138671875,-0.19934476073682306,-0.012216507494449615,-0.3179162681687623
1761469021567669200,4.238669189453125,-0.1850970396757126,-0.00006488192975521087,-0.32299948971718545
1761469021577624000,4.2486240234375,-0.10722527996599673,0.019208412208408115,-0.34979243877045807
1761469021587580000,4.258579833984375,-0.024564532414078712,0.007035159333795308,-0.3674622067021206
1761469021597535200,4.26853515625,0.01945581109821796,-0.02180442005097866,-0.3441030314898118
1761469021607491000,4.278490966796875,0.06779167972207069,-0.011556290020048618,-0.33519374884720887
1761469021617446000,4.28844580078125,0.0873807618111372,0.023465046739578246,-0.290469092990458
1761469021627402000,4.298402099609375,0.10302432114481926,0.06353226871192455,-0.2686306610720232
1761469021637357000,4.308357177734375,0.10548749638795853,0.0741619454063475,-0.25895233028568326
1761469021647312100,4.31831201171875,0.07061316688358783,0.056733548482507466,-0.2529067299785092
1761469021657268000,4.32826806640625,0.09863514627516269,0.046913434605300425,-0.2478264310395345
1761469021667846000,4.338845947265625,0.1434253051161766,0.061020724282413716,-0.16764917086642234
1761469021677802000,4.348802001953125,0.21232406929731368,0.05464622081443667,-0.1088020277634263
1761469021687757000,4.358757080078125,0.22291151428520678,0.060722910379618404,-0.05608250069525093
1761469021697711900,4.3687119140625,0.222536251232028,0.026438363461941478,-0.023371340574137867
1761469021707668000,4.37866796875,0.19008593400418758,0.0197362354747951,0.03262834067586809
1761469021717623000,4.388623046875,0.15314648866355418,0.009655570965260266,0.055890850580669935
1761469021727579100,4.3985791015625,0.10248071578741073,-0.000987695863097906,0.11542747378516942
1761469021737534000,4.408533935546875,0.0537789364606142,0.009480214398354291,0.1499216448655352
1761469021747490000,4.418489990234375,-0.0008855506628751755,0.008291735266149044,0.1788828778686002
1761469021757445000,4.428445068359375,-0.07247370005846022,0.0011927169159054755,0.22335746795441955
1761469021767400000,4.43839990234375,-0.14714344885647296,0.019820114365965126,0.22721301087141035
1761469021777356000,4.44835595703125,-0.18756430657207965,0.02269230880141258,0.2185796956259757
1761469021787311000,4.45831103515625,-0.20704057593643663,-0.0006605097353458404,0.2249090813105926
1761469021797267000,4.468266845703125,-0.20229834984540937,-0.009401596204191445,0.20384674833118915
1761469021807222000,4.478221923828125,-0.1926250970929861,-0.04629004200994968,0.17247849071901292
1761469021817177000,4.488177001953125,-0.17578268336355685,-0.049232232941687104,0.15065032446626572
1761469021827133000,4.4981328125,-0.2061673002332449,-0.042853199429064986,0.13707652061134576
1761469021837088000,4.508087890625,-0.2654144389718771,-0.040040480095893144,0.11544113698434084
1761469021847044000,4.518044189453125,-0.28009470623135563,-0.03523834051117301,0.08933185934629291
1761469021856999200,4.527999267578125,-0.2774129198014736,-0.057223523956537244,0.023636969240382312
1761469021866955000,4.537955078125,-0.22455460531711577,-0.07349690562635659,-0.038864093260280785
1761469021876910000,4.54791015625,-0.1629050816118717,-0.08622939981892705,-0.05531955349873751
1761469021886866200,4.5578662109375,-0.11434767919182777,-0.08799743240475653,-0.08028331436347216
1761469021896821000,4.567821044921875,-0.024928689551353453,-0.054837651733309026,-0.07854509239401668
1761469021906776000,4.577776123046875,-0.006115852531790733,-0.009771160168945789,-0.026454474346525966
1761469021916732200,4.587732177734375,0.016229834789037705,0.04802417232617735,0.0025530454836785793
1761469021926687000,4.59768701171875,0.035983752050995826,0.0874098417751491,-0.0011615180600434542
1761469021936643000,4.60764306640625,0.02960135753750801,0.11147387732118368,-0.05460048197656869
1761469021946598100,4.61759814453125,0.01302840839922428,0.10905468735024332,-0.08894746313858777
1761469021956553000,4.627552978515625,0.0198462717205286,0.09982406379878521,-0.1243999213244766
1761469021966509000,4.637509033203125,0.05235796374678611,0.07499781170859933,-0.16347762080281972
1761469021976464100,4.647464111328125,0.16132336537837982,0.04275616879537701,-0.16784772564582526
1761469021986420200,4.657420166015625,0.27640345049798487,0.003952537018060684,-0.11533164872787892
1761469021996375000,4.667375,0.3888093479722738,0.0022882570676505563,-0.028725780279375612
1761469022006331000,4.677330810546875,0.45414662027955055,0.008420914603769779,0.0366148164961487
1761469022016286200,4.6872861328125,0.4632049560040235,0.0015279402196407318,0.07985836694967001
1761469022026241000,4.697240966796875,0.40412732861340045,0.004162380376458168,0.10893201081864536
1761469022036196900,4.70719677734375,0.30220950740575786,0.029136662635207176,0.14822974625583737
1761469022046152200,4.717152099609375,0.19816402651965617,0.05354454318284988,0.17664817761909216
1761469022056108000,4.72710791015625,0.0270791455835104,0.05949746023789048,0.18912450509350745
1761469022066063400,4.7370634765625,-0.10759878945350647,0.05215338108539581,0.1772072728065774
1761469022076019500,4.74701953125,-0.18141572081446647,0.06101619423776865,0.18303787865620105
1761469022085974500,4.756974609375,-0.2646206582456827,0.058107759445160626,0.16124799858722835
1761469022095930600,4.7669306640625,-0.3331593569427728,0.05133958048447966,0.14267806694544852
1761469022105885400,4.776885498046875,-0.39194823051989075,0.02087415346354246,0.09436061076112091
1761469022115840500,4.786840576171875,-0.3700567167073488,0.0016420681186020373,0.043484044678509234
1761469022125796600,4.796796630859375,-0.351065015989542,-0.02262859591543674,0.017884798921830952
1761469022135751400,4.80675146484375,-0.30022564011216163,-0.041867549392580986,0.0047899011576548215
1761469022145707500,4.81670751953125,-0.22025603134036062,-0.05268544213548303,0.0020691709568724033
1761469022155662600,4.82666259765625,-0.14718027373552323,-0.06252367619127035,-0.025199140523187814
1761469022165617400,4.836617431640625,-0.061843584972620005,-0.0682204265281558,-0.016268997755646705
1761469022175573500,4.846573486328125,-0.012549684971570968,-0.0628346418365836,-0.032807204374112185
1761469022185528600,4.856528564453125,0.017570143482089042,-0.07617080101072787,-0.07535115519091487
1761469022195484400,4.866484375,0.02905541409254074,-0.0794964383020997,-0.10500004166457802
1761469022205439500,4.876439453125,-0.0017155717462301254,-0.05654591695591807,-0.1242453883498907
1761469022215395300,4.886395263671875,-0.03950374287068844,-0.03757175189480185,-0.14922555236015467
1761469022225350700,4.8963505859375,-0.02856616927087307,-0.011528525230288505,-0.15764427500683814
1761469022235306500,4.906306396484375,-0.0230880301207304,0.02147431131377816,-0.13930248956512659
1761469022245261300,4.91626123046875,-0.02624211023747921,0.03976794676482677,-0.1303865579860285
1761469022255216600,4.926216552734375,-0.024967267996072767,0.055804158677905794,-0.1283390143390745
1761469022265172500,4.93617236328125,0.02613222012221813,0.06798427968472243,-0.11051358092166483
1761469022275127300,4.946127197265625,0.021447861698269843,0.036787761910259724,-0.12504863102417438
1761469022285083600,4.956083740234375,0.0037602293163537977,0.031010932074487206,-0.13224237845316528
1761469022295038500,4.96603857421875,0.027750176712870597,0.06116714701578021,-0.122787809952721
1761469022304993300,4.9759931640625,0.08135434112846851,0.0783683110550046,-0.08809048098307103
1761469022314949600,4.98594970703125,0.10266776279211044,0.09734057641997933,-0.05239526354987174
1761469022324904400,4.995904541015625,0.08454349255859851,0.09443871749863028,-0.05851546346321702
1761469022334860500,5.005860595703125,0.058819268715381616,0.079077189976722,-0.06932999520525336
1761469022344815600,5.015815673828125,0.07841185793578624,0.061369683850556606,-0.08072265562880784
1761469022354771700,5.025771728515625,0.10097615644335746,0.038750732546299696,-0.07371668585687875
1761469022364726500,5.0357265625,0.1543576180189848,0.025944296334683894,-0.06872187324427068
1761469022374681600,5.045681640625,0.20345044248998165,0.01957651486843824,-0.017554251793213186
1761469022384637700,5.0556376953125,0.18999708667695522,0.02743804202377796,0.025284151925519107
1761469022394592500,5.065592529296875,0.09760054253041743,0.040083296324312685,0.016036979098059238
1761469022404548400,5.07554833984375,-0.03371756068468094,0.050264498598873615,0.026769422047212717
1761469022414503700,5.085503662109375,-0.1296750121831894,0.07797697364985942,0.03191515090521425
1761469022424459500,5.09545947265625,-0.13554478099942208,0.06716273416876793,0.04811057196799665
1761469022434414600,5.10541455078125,-0.10429565625488757,0.04489405760690569,0.07393957135993987
1761469022444369700,5.11536962890625,-0.06449439174234867,0.031035335863381624,0.10826777475625277
1761469022454325500,5.125325439453125,-0.037593525335192675,0.010999240659177303,0.14001052823662757
1761469022464280600,5.135280517578125,-0.014391513445973395,-0.01441957049667835,0.12854345086999236
1761469022474236400,5.145236328125,0.008611176478862762,-0.023819997657090423,0.11580606130659579
1761469022484191500,5.15519140625,0.029641689547896383,-0.04801189736649394,0.10323427410107106
1761469022494147600,5.165147705078125,0.0050350715577602385,-0.03795432147160172,0.10122680673617869
1761469022504102400,5.175102294921875,-0.06728840637505054,-0.027844723128527402,0.08679671484548598
1761469022514057500,5.185057373046875,-0.11331541353464127,-0.023278584256768226,0.06470438123121858
1761469022524013600,5.195013671875,-0.15710019472539424,-0.0045353053420782085,0.024485220100171862
1761469022533968400,5.204968505859375,-0.16040917314291,-0.014325900863856076,0.004236833852156997
1761469022543924500,5.214924560546875,-0.1633370432883501,-0.03037628743276,-0.01973203422371298
1761469022553879600,5.224879638671875,-0.13790157325863836,-0.00611205313950777,-0.04263166563287377
1761469022563835600,5.234835693359375,-0.08336158929765224,-0.020418957041949033,-0.047675030094943935
1761469022573790500,5.24479052734375,-0.02769464713335037,-0.0015017828650772571,-0.022367935685254633
1761469022583745500,5.25474560546875,0.02017886467576027,0.013085107022523879,0.0071188555618748066
1761469022593701600,5.26470166015625,0.00566109450161457,0.04540288391187787,0.0647396717403084
1761469022603656400,5.274656494140625,-0.005101707053184509,0.0983246190212667,0.08464410338886082
1761469022613612300,5.2846123046875,-0.05432721799314022,0.10979425367116928,0.07157295182645321
1761469022623567600,5.294567626953125,-0.060464697834849354,0.0862386060386896,0.032692272757552564
1761469022633523500,5.3045234375,-0.026458383336663244,0.053339960521459576,-0.0044886166561394925
1761469022643478300,5.314478271484375,0.01925590461194515,0.0241270177796483,-0.02527710113022476
1761469022653433600,5.32443359375,0.09574293196499348,0.018887948082387446,-0.03416245490796864
1761469022663389400,5.334389404296875,0.1680605646789074,0.023505086489021776,-0.008750402286462485
1761469022673344500,5.344344482421875,0.21722586986422537,0.018448679882287978,0.010364997876249253
1761469022683300600,5.354300537109375,0.2269452998459339,0.0168454824693501,0.02863883264828473
1761469022693255400,5.36425537109375,0.152779408916831,0.021809973008930682,0.07305760089363902
1761469022703211500,5.37421142578125,0.0501321043908596,0.05619695738777518,0.07663323089070617
1761469022713166600,5.38416650390625,-0.1016150388687849,0.08570639885812997,0.032346418461948634
1761469022723121400,5.394121337890625,-0.1993611273497343,0.08875628794804215,-0.008405607436783612
1761469022733077500,5.404077392578125,-0.20305062951743602,0.0770370624512434,-0.03982018840871751
1761469022743032600,5.414032470703125,-0.1406236916989088,0.03486453876271844,-0.08196746805813163
1761469022752988700,5.42398876953125,-0.07512158421874046,0.015635083766281605,-0.09661503862440586
1761469022762943500,5.433943603515625,0.00007072714865207672,0.004532674993574619,-0.12142810243945568
1761469022772898600,5.443898681640625,-0.008148235142230988,-0.0038929157853126524,-0.14239961533024906
1761469022782854700,5.453854736328125,-0.035605566388368606,-0.00585457124710083,-0.18537443184498698
1761469022792809500,5.4638095703125,-0.042433951103687285,0.0027602584935724735,-0.18084164725355803
1761469022802765600,5.473765625,-0.10536942296624183,0.0025995149739086627,-0.1948307173784822
1761469022812720600,5.483720703125,-0.1036152727752924,0.013768559242039917,-0.18515362870115787
1761469022822676500,5.493676513671875,-0.06607260084450245,-0.009860738148540257,-0.17674593890514223
1761469022832631600,5.503631591796875,0.01495733063519001,-0.0008960720568895339,-0.1657652933485806
1761469022842586600,5.513586669921875,0.09687982704043388,-0.03487213754728436,-0.14547299489360302
1761469022852542500,5.52354248046875,0.10935177060067652,-0.04229235067591071,-0.10927801124472171
1761469022862497500,5.53349755859375,0.09105389736592769,-0.022166385231167075,-0.07065963637381792
1761469022872453400,5.543453369140625,0.08114508229196071,-0.00437295438721776,-0.012694536802358925
1761469022882408700,5.55340869140625,0.0830669902652502,0.01233867256939411,0.012522248975373804
1761469022892364500,5.563364501953125,0.10107084898948669,0.008358516892045736,0.0309616130400449
1761469022902319400,5.5733193359375,0.12111059745550155,0.0027928455889225006,0.03286646028067917
1761469022912274700,5.583274658203125,0.056501054900884626,0.003897591960430145,0.037566637328267094
1761469022922230500,5.59323046875,-0.0005003507375717163,0.026724048535525798,0.050368835756182666
1761469022932185300,5.603185302734375,-0.05195055198967456,0.050481356219947336,0.06206625127997249
1761469022942141400,5.613141357421875,-0.09920680868327617,0.048757455036789174,0.0659319502647966
1761469022952096500,5.623096435546875,-0.1301835462272167,0.0295223009519279,0.07112882478814572
1761469022962052600,5.633052490234375,-0.07709960629343986,0.022707798631489275,0.08681074337083845
1761469022972007400,5.64300732421875,-0.021468319964408872,0.002930938885360956,0.08068444251026957
1761469022981962500,5.65296240234375,0.0317278481721878,-0.024557956542819736,0.06397993941418827
1761469022991918600,5.662918701171875,0.007218260815739631,-0.025593875461816785,0.07247841276619583
1761469023001873400,5.672873291015625,-0.038249358895421026,0.0004411678962409496,0.08650043531265109
1761469023011829500,5.68282958984375,-0.12518179241716862,0.020756226172298192,0.08140435428265481
1761469023021784600,5.69278466796875,-0.1868874302238226,0.02738134340047836,0.07118749617282301
1761469023031740400,5.702740478515625,-0.21558394787609575,0.024654694915562866,0.029672011620923876
1761469023041695500,5.712695556640625,-0.21126666919887066,0.003146042940765619,-0.01327865683324635
1761469023051650600,5.722650634765625,-0.17109423328638076,-0.022863719845563173,-0.03187507462315261
1761469023061607000,5.73260693359375,-0.08869242893159389,-0.026274551202356815,-0.022908947226777672
1761469023071561700,5.742561767578125,-0.009397358420491218,-0.0454962612837553,-0.044935522128455335
1761469023081517800,5.752517822265625,0.06687631844282149,-0.059534285116940734,-0.06051449179332703
1761469023091473000,5.762472900390625,0.15934826591312884,-0.049464726523309945,-0.11151344214659184
1761469023101429000,5.772428955078125,0.18405717523396015,-0.08446955053955316,-0.13963194071520119
1761469023111383800,5.7823837890625,0.18273849385082722,-0.09066182930842041,-0.14074695275239646
1761469023121339000,5.7923388671875,0.1509235519170761,-0.032079291958361865,-0.13260204207841306
1761469023131295000,5.802294921875,0.09534311899244785,0.024389614238590002,-0.09956398809049279
1761469023141249800,5.812249755859375,0.07369009011089801,0.05080576586872339,-0.06097885790206491
1761469023151206000,5.822205810546875,0.03899579334855079,0.05746215501800179,-0.015262962518259883
1761469023161161000,5.832160888671875,-0.011383563801646231,0.0734098118647933,-0.02174183967616409
1761469023171115800,5.84211572265625,-0.08511807757616043,0.08359802840203047,-0.03142897482346743
1761469023181072000,5.85207177734375,-0.10011398665606976,0.0973309318087995,-0.06713990128245205
1761469023191027000,5.86202685546875,-0.08024433405995368,0.07842676324397325,-0.08511964847873896
1761469023200982800,5.871982666015625,-0.06607084727883339,0.04516892902553081,-0.09770710817743092
1761469023210937900,5.881937744140625,-0.027103695502877233,0.055007016950845714,-0.07756605476140975
1761469023220894000,5.89189404296875,-0.015723638832569123,0.05251899952739477,-0.06238558289483189
1761469023230848800,5.901848876953125,0.019778467181324956,0.03303761559650302,-0.04984112208765
1761469023240803800,5.911803955078125,0.02735211730599403,0.030676293292641637,-0.05007241009287536
1761469023250760000,5.921760009765625,0.013624620726704596,-0.006177665721625089,-0.07153875729590654
1761469023260714800,5.93171484375,0.033949031352996824,-0.03652209671139717,-0.08254713110961019
1761469023270670800,5.9416708984375,0.06419745462238788,-0.06535656152963638,-0.08925543310921638
1761469023280626000,5.9516259765625,0.07903904992341995,-0.08330679037049413,-0.04940148856136948
1761469023290582000,5.96158203125,0.11275953321754932,-0.11252499380931258,-0.02069229409061372
1761469023300536800,5.971536865234375,0.09447276589870453,-0.1537925314821303,-0.001911642307601869
1761469023310492000,5.981491943359375,0.09936287602782248,-0.16884192431494593,0.015915471610240636
1761469023320448000,5.991447998046875,0.0828840349137783,-0.1711653988264501,0.07128774167690426
1761469023330402800,6.00140283203125,0.030624855366349218,-0.1529980201035738,0.0873437177363783
1761469023340359000,6.01135888671875,-0.008106149566173552,-0.11707418154627083,0.1099517457878217
1761469023350314000,6.02131396484375,-0.031468904975056645,-0.1034492685586214,0.1469747777586803
1761469023360269800,6.031269775390625,-0.0973538742929697,-0.056387657654285425,0.17568532393630593
1761469023370225000,6.041224853515625,-0.16033143173158168,-0.023496610921621322,0.1839461526075378
1761469023380180000,6.051179931640625,-0.22713819206953048,0.00028159342035651204,0.17074560251180082
1761469023390136000,6.061135986328125,-0.2777525270193815,0.03041632718220353,0.16146942278556525
1761469023400091000,6.0710908203125,-0.32819559705555434,0.030265812795609234,0.13848445118051023
1761469023410046700,6.081046630859375,-0.3059568772405386,0.04557137234658003,0.11184855585247278
1761469023420002000,6.091001953125,-0.21271862157285212,0.02558379245921969,0.10853789693452418
1761469023429956900,6.100956787109375,-0.10607318732142448,-0.006263298178464174,0.10762922112438827
1761469023439912700,6.11091259765625,0.0263426480025053,-0.02075096547529101,0.0837980810187757
1761469023449868000,6.120867919921875,0.1580687474966049,-0.04828399230614304,0.04037004084382206
1761469023459823900,6.130823974609375,0.2506879944831133,-0.0810126880839467,-0.011622267928346992
1761469023469778700,6.14077880859375,0.24545535452663897,-0.0924392142444849,-0.07204498978499323
1761469023479734800,6.15073486328125,0.2149631856292486,-0.07636310871243476,-0.10540822060666978
1761469023489689900,6.16068994140625,0.16771043606698513,-0.05092442381232977,-0.12296985198874026
1761469023499645000,6.17064501953125,0.12427286087870597,-0.043425007967650885,-0.09723488755580037
1761469023509600800,6.180600830078125,0.10921557700037955,-0.021651275315880774,-0.05665116742867976
1761469023519555800,6.190555908203125,0.0622708704739809,-0.017654899156093598,-0.01861066551096737
1761469023529512000,6.200511962890625,0.031713235124945637,-0.011174158834666013,-0.010367335963807999
1761469023539466800,6.210466796875,-0.005831190371513366,0.016568419093638657,0.007520970089361071
1761469023549423000,6.220423095703125,-0.045537177816033364,0.03100654816031456,0.05127338338047266
1761469023559378000,6.2303779296875,-0.07679916204214096,0.04803761632964015,0.08197451885342598
1761469023569332700,6.240332763671875,-0.0995019922375679,0.07546294500231743,0.06781754481568932
1761469023579288800,6.250288818359375,-0.17562018627822398,0.04276274466663599,0.04638177541401237
1761469023589244000,6.260243896484375,-0.2409668109357357,0.04720131163597106,-0.043901064514182506
1761469023599199700,6.27019970703125,-0.3190893305361271,0.013037176227569579,-0.08782824985031037
1761469023609154800,6.28015478515625,-0.37654315611720085,0.01117021331191063,-0.16418810715973375
1761469023619111000,6.29011083984375,-0.35694004550278186,0.015530454348027705,-0.20292265575621277
1761469023629066000,6.30006591796875,-0.24836276640594004,-0.0014392390228807925,-0.2549034202210605
1761469023639020800,6.310020751953125,-0.1178711771428585,-0.033437574699521064,-0.2632190478194505
1761469023648977000,6.319976806640625,0.021796236744523047,-0.02883811808004975,-0.28092322947736825
1761469023658932000,6.329931884765625,0.11965922960340976,-0.04640270860418677,-0.26328349135778845
1761469023668887800,6.3398876953125,0.2224748764336109,-0.03200081989467144,-0.22334654470160603
1761469023678843000,6.3498427734375,0.289594355982542,-0.05872282260358333,-0.19051917432229964
1761469023688798000,6.3597978515625,0.29368367112278937,-0.0658205257795751,-0.14315580399241298
1761469023698753800,6.36975390625,0.2872638672083616,-0.05417158904001117,-0.10626516622956841
1761469023708709000,6.379709228515625,0.27579379416704175,-0.05701265768483281,-0.056100840069539845
1761469023718665000,6.3896650390625,0.2597708801269531,-0.03569587502032518,0.007082140280678868
1761469023728619800,6.399619873046875,0.19080138879716396,-0.04237301469668746,0.05684424231536686
1761469023738576000,6.409575927734375,0.08514847271442413,-0.025756226416677235,0.07774572217725217
1761469023748531000,6.419531005859375,-0.03347206149101257,-0.032077830653637646,0.07642601788081228
1761469023758485800,6.42948583984375,-0.1277741469979286,-0.01685980325564742,0.05520842127446085
1761469023768441900,6.43944189453125,-0.19320260471999645,-0.022576719597727057,0.05362761835642159
1761469023778397000,6.44939697265625,-0.23277765926122665,-0.025296938341856,0.058623600012809036
1761469023788353000,6.45935302734375,-0.2636778244376182,-0.000999240170419216,0.06472151502911001
1761469023798307800,6.469307861328125,-0.24297113649547097,0.01382555012628436,0.10515957960784435
1761469023808263700,6.479263671875,-0.16280805097818374,0.03646788230612874,0.15447218430936335
1761469023818219000,6.489218994140625,-0.08634849615395068,0.0350621071614325,0.15582495062518864
1761469023828173800,6.499173828125,-0.06150047062337398,0.027149142079800365,0.12580898440480232
1761469023838130000,6.5091298828125,-0.044455227798223494,-0.017667904768139123,0.07052461181730031
1761469023848085000,6.5190849609375,-0.020828268495202064,-0.033368454986065624,0.03425009665880352
1761469023858040800,6.529040771484375,0.020696166548132895,-0.03582476209700108,-0.0013075024019926786
1761469023867996000,6.538995849609375,0.03543488599658012,-0.03714621995911002,-0.005163374112546444
1761469023877951000,6.548950927734375,0.03996083898842334,-0.02877060580179095,0.0022384265765547752
1761469023887906800,6.55890673828125,0.09318389513194561,-0.006594868220388889,-0.02466517977695912
1761469023897862000,6.56886181640625,0.11976152093410491,0.0017005203075706958,-0.033777620308846235
1761469023907817700,6.578817626953125,0.12355214538872242,0.008737140946090221,-0.014052600347809493
1761469023917772800,6.588772705078125,0.14270342058241367,0.019417671044915912,-0.0048518604779615995
1761469023927729000,6.59872900390625,0.1527361542969942,0.03293678557053208,0.008247238537296652
1761469023937683700,6.60868359375,0.12483283284902572,0.03767696583494544,0.029874986847117542
1761469023947639000,6.61863916015625,0.03991699984669685,0.04463701410591602,0.05619688432253897
1761469023957595000,6.628594970703125,-0.03471884668171406,0.06727101684883237,0.05304609214141964
1761469023967549700,6.6385498046875,-0.026755904978513715,0.07827434916123747,0.038184805759228765
1761469023977506000,6.648506103515625,0.007778817307949066,0.04709712060913443,0.0610860811362043
1761469023987460900,6.6584609375,0.08672551277279854,0.030530308950692413,0.08620766291115432
1761469023997417000,6.6684169921875,0.14421616323292255,0.03134396342113614,0.12786493055392056
1761469024007371800,6.678371826171875,0.08214052307009696,0.02207081590220332,0.14633611452896148
1761469024017326800,6.688326904296875,-0.05077741655707359,0.029585137055069207,0.11924520544242113
1761469024027283000,6.698282958984375,-0.17255846062004565,0.05843538396432996,0.12341964158285408
1761469024037237800,6.70823779296875,-0.2190109997153282,0.06449483013376593,0.11443510174695402
1761469024047193900,6.71819384765625,-0.21629121936261653,0.06480959517136216,0.10370306065659969
1761469024057149000,6.72814892578125,-0.13996727361679076,0.047333267452567815,0.1358935213718563
1761469024067103700,6.738103759765625,-0.017713351345062255,0.02186564871892333,0.1607157183414325
1761469024077059600,6.7480595703125,0.05341594836711883,-0.011787030036002398,0.13043357546553014
1761469024087014400,6.758014404296875,0.031239772394299505,-0.017996406070142985,0.10648450806867331
1761469024096970500,6.767970458984375,-0.027028292179107665,-0.024459172343462704,0.10630078553222119
1761469024106925600,6.777925537109375,-0.08658288943171501,0.03302811711579561,0.11345599104911089
1761469024116881700,6.787881591796875,-0.10764847381412983,0.05556055918037891,0.11473781102057545
1761469024126836500,6.79783642578125,-0.10147300004959106,0.08166253029480576,0.1248543505610898
1761469024136791600,6.80779150390625,-0.10219313101768493,0.08489303664863108,0.08600169201027602
1761469024146747600,6.81774755859375,-0.145285838291049,0.04583835271969437,0.06672679043691605
1761469024156702500,6.827702392578125,-0.2269014607042074,0.031166853288561103,0.002197656174749136
1761469024166658300,6.837658203125,-0.2287847902327776,0.04945873517394066,-0.05148063292298466
1761469024176613600,6.847613525390625,-0.09529986437261104,0.029647242505848406,-0.06780194538775831
1761469024186569500,6.857569580078125,0.08034136469364166,-0.02019961520284414,-0.08310987955890596
1761469024196524500,6.867524658203125,0.22534370986819266,-0.02618102770000696,-0.08552658531181513
1761469024206479600,6.877479736328125,0.3200046918153763,-0.02840279540270567,-0.07337156221363693
1761469024216435500,6.887435546875,0.3177823395907879,-0.032020255247503515,-0.07327054952457547
1761469024226390500,6.897390625,0.21725918761193752,-0.013014818265289068,-0.04978698074761778
1761469024236346400,6.907346435546875,0.08112403950393199,0.0293380304262042,-0.05016228033341467
1761469024246301400,6.917301513671875,-0.008760229560732842,0.045019875943660734,-0.052849948514811694
1761469024256256500,6.927256591796875,-0.04395253897309303,0.04421484317108988,-0.031764965312182904
1761469024266212400,6.93721240234375,-0.05127133755385875,0.057822074371576306,0.017914682603441177
1761469024276167400,6.94716748046875,-0.03918634748458862,0.04959668233990669,0.03921845965590328
1761469024286123500,6.95712353515625,-0.036214638197422024,0.03731675422042608,0.06123944506701082
1761469024296078300,6.967078369140625,-0.04206628683507442,0.014940964022278784,0.0570888647262007
1761469024306034700,6.97703466796875,-0.0578004470616579,0.012361322792619466,0.0245779398849234
1761469024315989500,6.986989501953125,-0.12122399470210074,0.018895692997425793,0.02008113992232829
1761469024325944300,6.9969443359375,-0.19697920064926147,0.0029774083755910396,0.0029200521651655434
1761469024335900700,7.006900634765625,-0.23394845660626887,0.009568477203696966,-0.018778240630216894
1761469024345855500,7.01685546875,-0.23240941047072408,0.0048546004243195055,-0.008906944555044174
1761469024355811600,7.0268115234375,-0.22571078961491584,0.008689064020663499,-0.007779328764602541
1761469024365766400,7.036766357421875,-0.17639818491339682,0.005974398234486579,0.009079451577737927
1761469024375722500,7.046722412109375,-0.11726327437758445,0.010330255356431006,0.019630948469415307
1761469024385677600,7.056677490234375,-0.04220423400104046,0.035384909375011916,0.03325454628281295
1761469024395632400,7.06663232421875,-0.028785949501395222,0.0336504867978394,0.02462057345025241
1761469024405588700,7.076588623046875,-0.018592472267150877,0.04749035771042108,0.03838818284422159
1761469024415543600,7.08654345703125,0.02517243517935276,0.08654489550888537,0.04145231965519488
1761469024425499400,7.09649951171875,0.10674129584133625,0.07543401116877793,0.050200639582425356
1761469024435454700,7.106454833984375,0.1961854199230671,0.0606175503090024,0.017560170077346265
1761469024445409500,7.116409423828125,0.25391689340174195,0.037160102353990074,0.018156930394098162
1761469024455365400,7.126365478515625,0.25165654725432396,0.030867870341986417,0.01149392884094268
1761469024465320700,7.13632080078125,0.1765250261634588,0.0398201153434813,0.007454553789645433
1761469024475276500,7.146276611328125,0.08229834398031234,0.0506039596863091,-0.010785196049697696
1761469024485231400,7.1562314453125,-0.010520224970579146,0.06092661625817418,-0.03275923704653978
1761469024495187500,7.1661875,-0.1019943935751915,0.0925100875236094,-0.005415010786056518
1761469024505142500,7.176142578125,-0.11906418631970882,0.09512553071901202,0.014735285382345318
1761469024515097600,7.18609765625,-0.10481938786804676,0.06845759628489613,0.02049056097343564
1761469024525053400,7.196053466796875,-0.09156009332239627,0.052720951840281485,0.007327676006965339
1761469024535008500,7.206008544921875,-0.08338204756379126,0.030647797850519416,-0.023246362487599252
1761469024544964600,7.215964599609375,-0.037891631498932835,-0.011313713435828685,-0.036033326813764865
1761469024554919400,7.22591943359375,-0.014327800559997557,-0.04293883188590407,-0.05507266606558114
1761469024564874500,7.23587451171875,-0.01781681171953678,-0.053852878479659555,-0.07373608467709272
1761469024574830600,7.24583056640625,-0.031152094110846518,-0.04991349320411682,-0.062139206918329
1761469024584785400,7.255785400390625,-0.07441723534166812,-0.030679946554452178,-0.04845343058891594
1761469024594741500,7.265741455078125,-0.07705927428305148,0.003783171800523996,-0.01602349856197834
1761469024604696600,7.275696533203125,-0.09267068491280078,0.03252235955074429,0.008701448578201234
1761469024614652400,7.28565234375,-0.0906833104878664,0.03619578736647963,-0.0076311159329488865
1761469024624607500,7.295607421875,-0.03359422656595707,0.030452129147946833,-0.008811009899899363
1761469024634562600,7.3055625,0.03404781555235386,0.0398417426533997,-0.01961107472516596
1761469024644518700,7.3155185546875,0.08867723136246204,0.021515227846056223,-0.02812299208063632
1761469024654473500,7.325473388671875,0.07276362291574477,0.03367445219531655,-0.038000169907324015
1761469024664429300,7.33542919921875,0.06265256326794624,0.053023003526777024,-0.0517367631085217
1761469024674384600,7.345384521484375,0.0345686245560646,0.055029082652181385,-0.030202246040105817
1761469024684339500,7.35533935546875,-0.01779284632205963,0.07563786317780613,-0.01347132986113429
1761469024694295300,7.36529541015625,-0.08517419167757034,0.12018237669467925,-0.02562083653397858
1761469024704250600,7.375250732421875,-0.08268880460262298,0.13273892979845403,-0.021706914493255316
1761469024714206500,7.38520654296875,-0.060467620444297786,0.11656608589366077,-0.013722820404171943
1761469024724161500,7.39516162109375,-0.024360534274578093,0.10620397409424186,-0.024652649088948965
1761469024734117600,7.40511767578125,0.024425416204333306,0.08194646180272101,-0.040685426935926076
1761469024744072400,7.415072509765625,0.07200140637159347,0.046366906638443464,-0.028375395939126608
1761469024754027500,7.425027587890625,0.041003041517734526,0.028383944571763277,-0.053076706475391984
1761469024763983600,7.434983642578125,-0.03259761674404144,0.019953969878703355,-0.09059274612758308
1761469024773938400,7.4449384765625,-0.06647475190460682,0.027827625863254067,-0.12467366023194044
1761469024783894500,7.45489453125,-0.0765314510166645,-0.012109832249581813,-0.13179573066420852
1761469024793849300,7.464849365234375,-0.03562193300127983,-0.030092940446734426,-0.09325454921536147
1761469024803804400,7.474804443359375,0.03219020498692989,-0.03776829738020897,-0.07031780066620558
1761469024813760500,7.484760498046875,0.11075813026726246,-0.06692308019399643,-0.04864073332194239
1761469024823715300,7.49471533203125,0.12006488779485225,-0.06516220800131559,-0.04662073526903986
1761469024833671700,7.504671630859375,0.09816694424152374,-0.0656746875680983,-0.062333487381413574
1761469024843626500,7.51462646484375,-0.002941314148902893,-0.07209989831000566,-0.0656085269967094
1761469024853582600,7.52458251953125,-0.08458908526599407,-0.05184928357228637,-0.07388802383579313
1761469024863537700,7.53453759765625,-0.1037719246417284,-0.009665946228802203,-0.03980882676448673
1761469024873492500,7.544492431640625,-0.10374679020047187,0.00777560243755579,-0.002240728131495416
1761469024883448600,7.554448486328125,-0.08988310002088547,0.01770224542915821,0.025761012189649043
1761469024893403600,7.564403564453125,-0.11487725602388381,0.030679215902090072,0.04430160813909024
1761469024903359500,7.574359375,-0.15241116012632847,0.058104836835712194,0.05672244256660342
1761469024913314600,7.584314453125,-0.11464052465856074,0.05944368422403931,0.05427632805611938
1761469024923269600,7.59426953125,-0.07649871779084205,0.043728959350287915,0.04873973671700805
1761469024933225500,7.6042255859375,-0.0067787003546953195,0.023320815963298082,0.04159143586494028
1761469024943180500,7.6141806640625,0.07494622765183448,0.015925591145455838,0.05139083574768156
1761469024953136400,7.624136474609375,0.1348772570014,-0.004697364035993815,0.011504304104484617
1761469024963091700,7.634091796875,0.15331424644589423,-0.01868219637721777,-0.020430537881888446
1761469024973047600,7.644047607421875,0.09135258805155753,-0.027581396017223595,-0.046196956899017094
1761469024983002400,7.65400244140625,0.00467383702993393,0.012073445761948824,-0.068877940588817
1761469024992957700,7.663957763671875,-0.006508651241660118,0.005914777001738548,-0.08647899066582322
1761469025002913500,7.67391357421875,-0.007934300130605696,-0.004493219766020774,-0.07832644467465578
1761469025012868400,7.683868408203125,0.024163550397753714,-0.0298719911724329,-0.0609051350787282
1761469025022824400,7.693824462890625,0.05882862106561661,-0.007431757435947656,-0.037955709711089726
1761469025032779500,7.703779541015625,0.03006196078658104,-0.0007242226213216781,-0.026642288536205885
1761469025042735600,7.713735595703125,0.009525953236222266,0.017133797891438006,-0.0017285773582756518
1761469025052690400,7.7236904296875,0.022508184406161307,0.04766337618976831,0.023743936746194957
1761469025062645500,7.7336455078125,0.059572717431187625,0.05043123346790671,0.052880891642346974
1761469025072601300,7.743601318359375,0.05653495717048645,0.040165129388868806,0.08860632155071943
1761469025082556400,7.753556396484375,0.01208732815682888,0.050085781031101936,0.11345372602678835
1761469025092512300,7.76351220703125,0.018800562059879303,0.05396905220523476,0.08162208868656307
1761469025102467300,7.77346728515625,0.0063613517254590985,0.031099487140774724,0.08350625846534968
1761469025112422400,7.78342236328125,-0.035789690783619876,0.031246348265558478,0.10299995388854294
1761469025122378200,7.793378173828125,-0.01961421653032303,0.046702129942178726,0.0907616364210844
1761469025132333300,7.803333251953125,-0.00911971052289009,0.05692249518334865,0.10327128164321184
1761469025142289400,7.813289306640625,-0.008501286363601684,0.052899961668998,0.10192315496988594
1761469025152244200,7.823244140625,-0.06284253288209438,0.05171659710332751,0.09699256669990718
1761469025162199600,7.833199462890625,-0.15421967085301874,0.051948360032588244,0.07101257799733429
1761469025172155400,7.8431552734375,-0.2171586498469114,0.07270590137913822,0.021911862480826674
1761469025182110200,7.853110107421875,-0.22548808677494525,0.06006766134127974,-0.030762765999697145
1761469025192066300,7.86306640625,-0.13593231901228428,0.008156710709631443,-0.06071775928046554
1761469025202021400,7.873021484375,-0.019207389295101164,-0.04708177690953016,-0.05629150380343199
1761469025211977500,7.8829775390625,0.11867080308794975,-0.06487593840584159,-0.06771919900774956
1761469025221932300,7.892932373046875,0.23532500565648076,-0.11210749904960393,-0.1110682921949774
1761469025231887400,7.902887451171875,0.2673918765246868,-0.13988617120459676,-0.1317584308611229
1761469025241843500,7.912843505859375,0.18640578418672082,-0.1581133172906935,-0.13653755489643662
1761469025251798300,7.92279833984375,0.07292670452296733,-0.12022840779349207,-0.1317098059464246
1761469025261754400,7.93275439453125,-0.030033903735876083,-0.0796780784793198,-0.13978208977561443
1761469025271709400,7.94270947265625,-0.04069558300375938,-0.07889511140808463,-0.10771942015849054
1761469025281664300,7.952664306640625,-0.03407470355927944,-0.06354468980208039,-0.06280293152406811
1761469025291620600,7.96262060546875,-0.022751345512270926,-0.06758534349501133,-0.013892624013125895
1761469025301575400,7.972575439453125,-0.0018961890101432798,-0.06502206887826323,-0.01112283050622791
1761469025311531300,7.98253125,-0.034600773259997365,-0.07917480513229966,-0.005244330394268036
1761469025323352300,7.994352294921875,-0.10058043512403965,-0.03142798844277859,0.00008647270705550908
1761469025333308400,8.004308349609374,-0.1811485943108797,-0.0321484116718173,0.05221143141556531
1761469025343263500,8.014263427734376,-0.22865210376381873,0.012678133656829595,0.035212219689227636
1761469025353218300,8.02421826171875,-0.22334698309302328,0.012154255913197994,0.034930735866725446
1761469025363174400,8.03417431640625,-0.15606734454631804,0.012151625564694403,0.04097100241165608
1761469025373129500,8.04412939453125,-0.10684709430336951,0.0279155964076519,0.0612386778820306
1761469025383085600,8.05408544921875,-0.08941665155291557,0.030604104839265345,0.0841991361003369
1761469025393040400,8.064040283203125,-0.06037468146383762,0.030249884574115274,0.07835515931248664
1761469025402995500,8.073995361328125,-0.04236556204259395,0.01607756683677435,0.08155534359328448
1761469025412951600,8.08395166015625,-0.025178280398249625,0.008415215515345334,0.057445240415818985
1761469025422906400,8.09390625,0.021323358535766602,-0.010583645595610142,0.029875900162570176
1761469025432862200,8.1038623046875,0.10682546699345111,-0.020094839654117822,0.05320362079069018
1761469025442817500,8.113817626953125,0.16553484559357165,-0.021875147199630737,0.060130826237984
1761469025452773400,8.1237734375,0.16838731241524219,-0.02315744209513068,0.04386489722225815
1761469025462728400,8.133728515625,0.14887188008427618,-0.039203444749861954,0.0158200484117493
1761469025472683500,8.14368359375,0.06642974371910094,-0.05070405905991792,-0.01830090544205159
1761469025482639400,8.153639404296875,-0.026752982369065283,-0.06693067897856235,-0.0932135230852291
1761469025492594400,8.163594482421875,-0.05348199934065342,-0.08084025412648915,-0.13629052133280783
1761469025502550300,8.17355029296875,-0.02200140392780304,-0.11067805076837539,-0.1597617420848459
1761469025512505300,8.18350537109375,-0.051935354420542715,-0.13115370643362403,-0.14521522074025123
1761469025522460400,8.19346044921875,-0.11675883198678493,-0.08925240090191364,-0.11329846239984034
1761469025532416300,8.203416259765625,-0.12909633551239966,-0.05582695503160357,-0.09824877730607987
1761469025542371300,8.213371337890624,-0.09480009815692901,-0.02639306301549077,-0.07063282143212854
1761469025552327400,8.223327392578126,-0.05650631559789181,-0.007911942168325185,-0.04850114218816161
1761469025562282200,8.2332822265625,-0.006792144358158111,0.006916939781606197,-0.024412520190142093
1761469025572237600,8.243237548828125,-0.002449146717786789,0.010707271975278853,-0.013432422622852026
1761469025582193400,8.253193359375,-0.03914718451797962,0.013859744656831026,-0.007200505963340402
1761469025592148200,8.263148193359376,-0.09930851549208164,0.042725919787585734,0.004214256694167852
1761469025602104300,8.273104248046875,-0.0556698647737503,0.0845556213878095,0.00009502133969217539
1761469025612059400,8.283059326171875,0.07632628383338451,0.10862667119652032,0.001847892889007926
1761469025622015500,8.293015380859375,0.10657236901521683,0.02141103681921959,0.12293730142600834
1761469025631970300,8.30297021484375,0.05474456662237644,0.042901714745908974,0.07378145818877965
1761469025641925400,8.31292529296875,0.019352350723743438,0.04711071074306965,-0.031296799811162054
1761469025651881500,8.322881591796875,0.0008884732723236083,0.011187456707656383,-0.024460049126297234
1761469025662459400,8.33345947265625,-0.018867197555303573,0.060592561998218296,-0.040132980684936044
1761469025672414200,8.343414306640625,0.052853638309240336,0.06517813622280955,-0.023910890810936686
1761469025682370300,8.353370361328125,0.042940147060155864,0.03975523341372609,0.01616385688073933
1761469025692325400,8.363325439453124,0.060602645000815386,0.05472966131418943,-0.010046762239933013
1761469025702281500,8.373281494140626,0.13909750504493712,0.020794073964655397,-0.01708528257459402
1761469025712236300,8.383236328125,0.0986567735850811,-0.04422931008785963,-0.0034692104805260893
1761469025722192400,8.3931923828125,0.03283785524070263,-0.06547638851702213,-0.07404021872282028
1761469025732147500,8.4031474609375,-0.01004910032749176,-0.05182882530614733,-0.12262366889957338
1761469025742102300,8.413102294921876,-0.01104863275885582,-0.06252060745134949,-0.07869538758490234
1761469025752058400,8.423058349609375,-0.03702010936141014,-0.008000058843195438,-0.02803717696070671
1761469025762013400,8.433013427734375,-0.1115536645591259,0.03775514563769102,0.02109444515071809
1761469025771969300,8.44296923828125,-0.16885960610210896,0.07600523518547415,0.02172335417140275
1761469025781924600,8.452924560546874,-0.1899848117172718,0.06874488879367709,0.02956394813656807
1761469025791879400,8.46287939453125,-0.1846995647907257,0.035483839704841376,0.05069554695989936
1761469025801835300,8.472835205078125,-0.14039981981515884,0.030038872171938416,0.06153835494834929
1761469025811790600,8.48279052734375,-0.09217091869711876,0.039913784976303573,0.05296794887129217
1761469025821746400,8.492746337890624,0.008343465453386305,0.01316241004243493,0.017501717888377608
1761469025831701200,8.502701171875,0.09581541267931461,0.002645984464138746,0.024143092131614682
1761469025841657300,8.5126572265625,0.11819558679163455,-0.0005795534536242484,0.011835435754992067
1761469025851612400,8.5226123046875,0.0823398450344801,0.023916151507943868,-0.008311389814689756
1761469025861567500,8.5325673828125,0.035574586728215216,0.030671470987051724,-0.03474116811137646
1761469025871523300,8.5425234375,-0.017474281892180442,0.038115211121737956,-0.05568086109180003
1761469025881478400,8.552478515625,-0.028487843337655066,0.003880348564684391,-0.08197999874614179
1761469025891434500,8.5624345703125,-0.024620646515488624,0.011997604046761989,-0.07131265692245214
1761469025901389300,8.572389404296874,0.06673018797039985,0.016723317394405603,-0.06543748127873987
1761469025911344400,8.582344482421876,0.12909575099051,-0.008016571586579084,0.011921981527283788
1761469025921300500,8.592300537109375,0.07797463556230068,0.04353197547346353,0.02603979259841144
1761469025931255300,8.60225537109375,0.060634209182858466,0.043405134223401545,-0.02306486844085157
1761469025941211400,8.61221142578125,0.009059504768252373,0.0053084816716611385,-0.02279207938145846
1761469025951166500,8.62216650390625,-0.014922843843698502,0.00847878227084875,-0.012529117107577621
1761469025961122300,8.632122314453126,-0.052477206212282176,-0.007454407659173011,0.01017035208698362
1761469025971077400,8.642077392578125,-0.09981763405799865,0.030592560531944035,0.002320442304201424
1761469025981032400,8.652032470703125,-0.10022679938077926,0.04429609171375632,0.024955321829952297
1761469025990988500,8.661988525390624,-0.14828385106325148,0.045113253315538164,0.08566201172713189
1761469026000943400,8.671943359375,-0.15374971525371073,0.053459056856483216,0.05977923632133752
1761469026010899200,8.681899169921875,-0.12429156557917594,0.04321677204445004,0.04383968971576541
1761469026020854500,8.6918544921875,-0.10522563058137893,0.022725772679597137,0.04087163369040936
1761469026030810400,8.701810302734375,-0.1046300027757883,0.01669657551795244,0.015706979958713053
1761469026040765200,8.71176513671875,-0.09481120407283306,0.02302680145278573,0.0155837554378435
1761469026050720500,8.721720458984375,-0.06321078167259693,0.006122574533522129,-0.0035007746625691652
1761469026060676400,8.73167626953125,-0.012189619487524032,0.002882277438044548,0.007767346065863967
1761469026070631200,8.741631103515624,0.06265723944306373,0.017434096012264488,-0.004443827666342258
1761469026080587300,8.751587158203124,0.10667933652102947,-0.007176759761571884,-0.019119564881175756
1761469026090542300,8.761542236328125,0.13077566690146922,-0.02180558909475803,-0.05752148398980498
1761469026100497200,8.7714970703125,0.10740472818613052,-0.020872838289290666,-0.08002353091612457
1761469026110453200,8.781453369140625,0.09416589190661907,-0.03224515004456043,-0.10380184485595673
1761469026120408300,8.791408203125,0.10949907011687755,-0.024644027391076087,-0.09535579581093043
1761469026130364400,8.801364501953126,0.07826222033202648,0.006289017141610383,-0.08029252058323472
1761469026140319200,8.8113193359375,0.011654781958460807,0.019553718514740467,-0.07427771727312356
1761469026150275300,8.821275390625,-0.07657412111461162,0.061206309982389205,-0.06922079920973628
1761469026160230400,8.83123046875,-0.09252104730904102,0.1099611346706748,-0.053217941576987504
1761469026170185200,8.841185302734376,-0.0089449384778738,0.08588526255637406,-0.07850143591538071
1761469026180141300,8.851141357421875,0.06380816304385661,0.0017129413977265357,-0.06402768754605204
1761469026190096400,8.861096435546875,0.04719195928573608,-0.014874474657326936,-0.0073985492860898375
1761469026200052200,8.87105224609375,0.10225275225043297,0.027100626762956378,-0.0016708558216691016
1761469026210007300,8.88100732421875,0.09788637373447417,0.01322378484085202,0.08294793046284467
1761469026219962400,8.89096240234375,0.0833890618264675,0.039438568679988385,0.08852456155139952
1761469026229918200,8.900918212890625,0.02836100208759308,0.06105550333485007,0.0857362460071221
1761469026239873500,8.91087353515625,-0.10363280843198298,0.051138212693482635,0.05278795266188681
1761469026249829400,8.920829345703124,-0.11779518929719925,0.07219517537802457,0.025939254833385345
1761469026259784200,8.9307841796875,-0.11502221745252608,0.0065425535112619395,0.043505123999156056
1761469026269740300,8.940740234375,-0.15242518865168095,0.026768910590559244,0.07558189520686864
1761469026279695400,8.9506953125,-0.10064122540056705,0.049314650528132914,0.06989351083952933
1761469026289650200,8.960650146484374,-0.04522328956127167,0.022580811250954864,0.0995148151865229
1761469026299606300,8.970606201171876,-0.01674187596440315,0.010008037664741277,0.07090634114388376
1761469026309561300,8.980561279296875,-0.0591296498388052,-0.01324409697651863,0.04473846518639475
1761469026319517400,8.990517333984375,-0.18176526490449904,-0.026649229733645915,-0.0020387758186087013
1761469026329472300,9.00047216796875,-0.21762918996810912,0.02122194398790598,-0.01612739732787013
1761469026339427300,9.01042724609375,-0.13579378732442854,0.013018179266154766,0.0063817734589800236
1761469026349383400,9.020383544921875,-0.02811901002526283,-0.007498100670427083,0.008528612761944531
1761469026359338200,9.030338134765625,0.03057692457139492,-0.0020600012697279454,0.012219064777716993
1761469026369294300,9.04029443359375,0.08329027762711047,0.01234042613506317,0.057776920055598015
1761469026379249400,9.05024951171875,0.10985036777257919,0.01246639060229063,0.07627276354786008
1761469026389205200,9.060205322265626,0.11197276675403117,0.04018412635028362,0.06924290144369005
1761469026399160300,9.070160400390625,0.04986497788727283,0.05504749509170651,0.041743082762695845
1761469026409115400,9.080115478515625,-0.01086860001683235,0.03864113469198346,0.010850516370870172
1761469026419071200,9.0900712890625,-0.052174423873424525,0.0003232406049966812,-0.048968138645403086
1761469026429026300,9.1000263671875,-0.04746785361766815,0.01931990975886583,-0.05840053184665739
1761469026438982100,9.109982177734375,-0.01989595608115196,0.0008462415657937526,-0.03385609237253666
1761469026448937500,9.1199375,0.046156186497211454,0.020326018061488867,-0.013419855402223764
1761469026458892300,9.129892333984374,0.03246960645020008,0.021972177833318708,0.005884199200384318
1761469026468848000,9.13984814453125,0.018386136040091514,0.03239975608438253,0.011494074971415101
1761469026478803500,9.149803466796875,0.02178045465350151,0.026045418621599672,-0.006468501894362271
1761469026488759300,9.15975927734375,0.007049333989620208,0.0020417349606752394,-0.015241627469286322
1761469026498714000,9.169714111328124,-0.013367431095242499,-0.015247253492474555,-0.012356317823939025
1761469026508670200,9.179670166015624,-0.0655956309825182,-0.01985956959351897,-0.028604199726320802
1761469026518625300,9.189625244140625,-0.10880524263381958,0.01305325057953596,-0.027750505506433546
1761469026528580000,9.199580078125,-0.1687351029396057,0.013692863657325506,-0.020911307136155664
1761469026538536200,9.2095361328125,-0.1544622474372387,0.034786943481862544,-0.010445406168699264
1761469026548491300,9.2194912109375,-0.06623159079849719,0.006553367166221141,0.022762999417446552
1761469026558447400,9.229447265625,0.017674188378453255,0.015498597905039786,0.05059292683564126
1761469026568402200,9.239402099609375,0.051368952709436415,0.016713672783225775,0.038299627777934074
1761469026578357200,9.249357177734375,-0.011418635115027427,0.014179332000017164,0.0460930216005072
1761469026588313300,9.259313232421874,-0.0495353075414896,0.019895517689734698,0.016423348067142067
1761469026598268200,9.26926806640625,-0.03817278652787209,0.020843319933861494,0.010173347761668264
1761469026608224500,9.279224609375,-0.05046235925853252,0.005862900684028864,-0.0007813961686566472
1761469026618179300,9.289179443359375,-0.05167524217963219,0.022039836242049932,-0.008913995350338518
1761469026628134100,9.299134033203124,-0.0032312370061874387,0.025739421412348747,0.00017236089222133158
1761469026638090500,9.309090576171876,0.007611059525609016,0.021562574119120836,0.02372877570968121
1761469026648045300,9.31904541015625,-0.01137538049519062,0.0486333902657032,0.011278824785538016
1761469026658001200,9.329001220703125,-0.004662146592140198,0.058054567953199146,-0.006716229577735066
1761469026667956500,9.33895654296875,0.01464578046798706,0.052882864403724666,-0.02471380469165742
1761469026677912300,9.348912353515624,0.0630552988499403,0.021082243256270883,-0.03005176818612963
1761469026687867400,9.358867431640626,0.12729191643893717,0.023240736464411018,-0.007544935486838221
1761469026697822200,9.368822265625,0.15441022498905657,0.01599967929497361,0.006563048310019076
1761469026707778300,9.3787783203125,0.09133914404809475,0.024874621276557443,-0.003534275073371827
1761469026717733400,9.3887333984375,0.007898059773445128,0.026653175256401297,-0.04099124148208648
1761469026727689200,9.398689208984376,-0.0944955622524023,0.027388065402209758,-0.07908840549048037
1761469026737644300,9.408644287109375,-0.08059037101864815,0.04321574913114309,-0.06449081154577434
1761469026747599400,9.418599365234375,-0.06280921513438224,0.045147740107029675,-0.06285995894093066
1761469026757555200,9.42855517578125,-0.04768529576063156,0.04629851757735014,-0.059238042116723955
1761469026767510500,9.438510498046876,-0.07238426820933819,0.06036109132990241,-0.031126229017227888
1761469026777466400,9.44846630859375,-0.10321604432463645,0.05628741215020418,-0.018113748839497564
1761469026787421200,9.458421142578125,-0.08633446762859821,0.05823796169608831,-0.03956446008197963
1761469026797377300,9.468377197265625,0.024562194326519966,0.026687515917420385,-0.03908274097964167
1761469026807332400,9.478332275390626,0.11156418595314026,0.003923018662631512,-0.010049465653672814
1761469026817287200,9.488287109375,0.12527648496329782,-0.032303309972584245,-0.002409837620705366
1761469026827243300,9.4982431640625,0.10476444281041622,-0.02840644866451621,-0.01066566132325679
1761469026837198300,9.5081982421875,0.1530325068950653,-0.02410012977272272,-0.00535655859708786
1761469026847154400,9.518154541015624,0.21212474733293055,-0.03453706037402153,0.016688246081024406
1761469026857109200,9.528109130859375,0.260862182494998,-0.04880450904890895,0.02068228415325284
1761469026867064300,9.538064208984375,0.24936405240297316,-0.06827054928019642,0.05271371838189661
1761469026877020400,9.5480205078125,0.1316921972244978,-0.049248453424125906,0.042327641185000535
1761469026886975200,9.557975341796874,-0.03849368904531002,-0.05052417244836688,-0.07127853545714169
1761469026896931300,9.567931396484376,-0.35517069774270055,-0.031224720955640075,-0.17351521335560827
1761469026906886400,9.577886474609375,-0.5589636700600386,-0.017497662767767905,-0.13413111480921505
1761469026916841200,9.58784130859375,-0.6325245808333159,-0.008050619986653327,0.01865041299946606
1761469026926797300,9.59779736328125,-0.41347675623893737,0.10693871810957789,0.007096388001739978
1761469026936752400,9.60775244140625,-0.06648293521106242,0.12434651063680648,0.12640819240696727
1761469026946708200,9.617708251953125,0.13069675644636153,0.08345292084291576,0.28331710234396157
1761469026956663300,9.627663330078125,0.22129297317266464,0.07180997545272111,0.2624657452341169
1761469026966619100,9.637619140625,0.16630582996606827,0.048829789620637894,0.22676789745241402
1761469026976574200,9.64757421875,0.010915946289896965,0.019542466468364,0.12759415078852324
1761469026986529300,9.657529296875,0.020487492233514783,0.009163257403671741,0.04100026503875851
1761469026996485000,9.667485107421875,0.025861001965403554,-0.03932005686685443,0.03267601574249565
1761469027006440400,9.6774404296875,0.09135024996399879,-0.025535277142375707,-0.10445661897026001
1761469027016396300,9.687396240234374,0.06595394290089607,-0.07630904043763875,-0.17590287567712365
1761469027026351000,9.69735107421875,-0.033031916508078574,-0.08419847851321101,-0.22486955301780254
1761469027036306400,9.707306396484375,-0.10157412233650684,-0.06132818279638886,-0.12690478028487415
1761469027046262300,9.71726220703125,-0.0546200634598732,-0.005970452711731195,-0.010709756193310022
1761469027056217000,9.727217041015624,0.06436521240472794,0.05276785972192883,0.023812654600851236
1761469027066183700,9.73718359375,0.14049158975183962,0.0436903809055686,0.08865074521433562
1761469027076139000,9.747138916015626,0.23049802389144897,0.06608911358788609,0.11023487357813865
1761469027086094800,9.7570947265625,0.29726094508767126,0.01019026236385107,0.06738408530186861
