time,seconds_elapsed,z,y,x
1761469017395724300,0.066724365234375,0.032390840351581573,-0.23295791447162628,0.03916088491678238
1761469017405679400,0.076679443359375,0.03526252880692482,-0.20289987325668335,0.09183528274297714
1761469017415635500,0.086635498046875,0.034251753240823746,-0.17997880280017853,0.12822838127613068
1761469017425590300,0.09659033203125,0.03896501660346985,-0.156632199883461,0.15494707226753235
1761469017435546400,0.10654638671875,0.0340062715113163,-0.14193066954612732,0.1678275316953659
1761469017445501400,0.11650146484375,0.039568282663822174,-0.12846679985523224,0.14988873898983002
1761469017455457500,0.12645751953125,0.04598556086421013,-0.12129313498735428,0.10166671872138977
1761469017465412400,0.136412353515625,0.04290401563048363,-0.10959865897893906,0.05493330582976341
1761469017475367400,0.146367431640625,0.03167242556810379,-0.09276489168405533,0.01847834140062332
1761469017485323500,0.156323486328125,0.021396350115537643,-0.07810072600841522,-0.005051753018051386
1761469017495278300,0.1662783203125,0.021056752651929855,-0.07261180877685547,-0.01753927767276764
1761469017505234400,0.176234375,0.021701237186789513,-0.06999258697032928,-0.02163468673825264
1761469017515189500,0.186189453125,0.01837752014398575,-0.08529005199670792,-0.02619507536292076
1761469017525145300,0.196145263671875,0.012077013030648232,-0.11843176186084747,-0.024526871740818024
1761469017535100400,0.206100341796875,-0.0004138818185310811,-0.13795123994350433,-0.02192964218556881
1761469017545055500,0.216055419921875,-0.013780021108686924,-0.11274920403957367,-0.02163882553577423
1761469017555011300,0.22601123046875,-0.020732343196868896,-0.05945229157805443,-0.02049415372312069
1761469017564966400,0.23596630859375,-0.017970912158489227,0.0020760525949299335,-0.03151324763894081
1761469017574922200,0.245922119140625,-0.015059880912303925,0.06559691578149796,-0.0345633439719677
1761469017584877600,0.255877685546875,-0.012264094315469265,0.1086069643497467,-0.03288421779870987
1761469017594833400,0.26583349609375,-0.005214544478803873,0.11537091434001923,-0.027903907001018524
1761469017604788200,0.275788330078125,-0.004066189285367727,0.092775858938694,-0.01915329322218895
1761469017614743600,0.28574365234375,-0.005760306492447853,0.08039798587560654,-0.00264950143173337
1761469017624699400,0.295699462890625,-0.004730728454887867,0.0891355574131012,0.019430767744779587
1761469017634654200,0.305654296875,-0.004366593901067972,0.09922230243682861,0.0336952731013298
1761469017644610300,0.3156103515625,0.005129706114530563,0.11109787225723267,0.04485498368740082
1761469017654565400,0.3255654296875,0.011452178470790386,0.11901853233575821,0.05124398693442345
1761469017664521500,0.335521484375,0.01298269722610712,0.11643792688846588,0.0532112643122673
1761469017674476300,0.345476318359375,0.012953123077750206,0.12126173824071884,0.06345630437135696
1761469017684431400,0.355431396484375,0.008198048919439316,0.11618921160697937,0.07254460453987122
1761469017694387500,0.365387451171875,0.0020728493109345436,0.09294813871383667,0.06819617748260498
1761469017704342300,0.37534228515625,-0.011614733375608921,0.060187529772520065,0.05460766330361366
1761469017714298400,0.38529833984375,-0.023632828146219254,0.04026268795132637,0.04423492029309273
1761469017724253400,0.39525341796875,-0.02553752064704895,0.04166271165013313,0.04322851076722145
1761469017734209300,0.405209228515625,-0.02173701673746109,0.04878215119242668,0.053097162395715714
1761469017744164400,0.415164306640625,-0.011383445002138615,0.06667725741863251,0.06801405549049377
1761469017754119400,0.425119384765625,0.00041204423177987337,0.07909108698368073,0.07340814173221588
1761469017764075300,0.4350751953125,0.00822815578430891,0.07715097069740295,0.07112208753824234
1761469017774030300,0.4450302734375,0.010567788034677505,0.060202471911907196,0.05645522102713585
1761469017783986400,0.454986328125,-0.0006161570781841874,0.049002815037965775,0.03978836163878441
1761469017793941500,0.46494140625,-0.017178576439619064,0.05923080816864967,0.032998859882354736
1761469017803897300,0.4748974609375,-0.029466668143868446,0.07180865108966827,0.02598169818520546
1761469017813852400,0.484852294921875,-0.02937014400959015,0.09141743928194046,0.023225300014019012
1761469017823807500,0.494807373046875,-0.02383263409137726,0.10927765816450119,0.02765680104494095
1761469017833763300,0.504763427734375,-0.013024542480707169,0.121515654027462,0.03313879668712616
1761469017843718400,0.514718505859375,0.005998150911182165,0.12479453533887863,0.04794277623295784
1761469017853674500,0.524674560546875,0.02498709037899971,0.11022524535655975,0.06878971308469772
1761469017863629300,0.53462939453125,0.043022818863391876,0.08178400993347168,0.08758363872766495
1761469017873585400,0.54458544921875,0.055308301001787186,0.038076307624578476,0.10115095227956772
1761469017883540500,0.55454052734375,0.05864764004945755,0.017349455505609512,0.12405573576688766
1761469017893495300,0.564495361328125,0.05974983051419258,0.005136475432664156,0.14420180022716522
1761469017903451400,0.574451416015625,0.06568468362092972,0.0014759603654965758,0.15555670857429504
1761469017913406500,0.584406494140625,0.06531380116939545,-0.0002114284288836643,0.15415185689926147
1761469017923362600,0.594362548828125,0.060113176703453064,0.003816336626186967,0.14723987877368927
1761469017933317400,0.6043173828125,0.057383403182029724,0.013655221089720726,0.14336566627025604
1761469017943273200,0.614273193359375,0.05119767785072327,0.018360227346420288,0.14546343684196472
1761469017953228500,0.624228515625,0.047706715762615204,0.04265625774860382,0.15553846955299377
1761469017963183400,0.634183349609375,0.048200998455286026,0.06402439624071121,0.16271568834781647
1761469017973139200,0.64413916015625,0.04637692868709564,0.06260008364915848,0.16059881448745728
1761469017983094500,0.654094482421875,0.04256674647331238,0.05589904263615608,0.14911766350269318
1761469017993050400,0.66405029296875,0.03810860216617584,0.05391155183315277,0.13236649334430695
1761469018003005200,0.674005126953125,0.033617448061704636,0.034195370972156525,0.10737672448158264
1761469018012961300,0.683961181640625,0.029520846903324127,0.00836416520178318,0.07424216717481613
1761469018022916400,0.693916259765625,0.027234788984060287,-0.020114615559577942,0.04051775485277176
1761469018032871400,0.703871337890625,0.02344067580997944,-0.03509331867098808,0.018688812851905823
1761469018042827300,0.7138271484375,0.014407765120267868,-0.03833651542663574,0.0029838865157216787
1761469018052782300,0.7237822265625,0.0031411233358085155,-0.04405603185296059,-0.0008509848266839981
1761469018062738400,0.733738525390625,-0.012535840272903442,-0.04186398535966873,0.008316148072481155
1761469018072693200,0.743693359375,-0.029649659991264343,-0.025201406329870224,0.022489141672849655
1761469018082649300,0.7536494140625,-0.043797969818115234,-0.008918838575482368,0.03134734556078911
1761469018092604400,0.7636044921875,-0.05340537056326866,0.0055260141380131245,0.03178703784942627
1761469018102559200,0.773559326171875,-0.05927657335996628,0.0217228252440691,0.018601195886731148
1761469018112515300,0.783515380859375,-0.07094725966453552,0.029694220051169395,0.0016744941240176558
1761469018122470400,0.793470458984375,-0.08127819746732712,0.024228082969784737,-0.009107845835387707
1761469018132426500,0.803426513671875,-0.0853714719414711,0.02190953493118286,-0.006566657684743404
1761469018142381300,0.81338134765625,-0.08143745362758636,0.0155259370803833,0.0011146976612508297
1761469018152337400,0.82333740234375,-0.07107669115066528,0.015296106226742268,0.006602940149605274
1761469018162292500,0.83329248046875,-0.0602184534072876,0.022852294147014618,0.009310043416917324
1761469018172248300,0.843248291015625,-0.04929991066455841,0.0257332194596529,0.011433320119976997
1761469018182203400,0.853203369140625,-0.03875725716352463,0.037182945758104324,0.016057100147008896
1761469018192158500,0.863158447265625,-0.03002074360847473,0.041625868529081345,0.022355083376169205
1761469018202114300,0.8731142578125,-0.021744970232248306,0.03504040092229843,0.026401493698358536
1761469018212069400,0.8830693359375,-0.014623909257352352,0.030183229595422745,0.025443408638238907
1761469018222025500,0.893025390625,-0.0057840789668262005,0.03811012953519821,0.020544257014989853
1761469018231980300,0.902980224609375,-0.00019873405108228326,0.04063938185572624,0.004219548311084509
1761469018241936400,0.912936279296875,-0.0022349869832396507,0.02305825985968113,-0.014222309924662113
1761469018251891500,0.922891357421875,-0.003070965874940157,0.018831320106983185,-0.02601519413292408
1761469018261846300,0.93284619140625,-0.004335168749094009,0.02139727585017681,-0.02198955975472927
1761469018271802400,0.94280224609375,-0.004271623678505421,0.02293236367404461,-0.013995648361742496
1761469018281757400,0.95275732421875,-0.00020444387337192893,0.017146911472082138,-0.005848771892488003
1761469018291713500,0.962713623046875,0.00538269430398941,0.007242605090141296,0.0032725122291594744
1761469018301668400,0.97266845703125,0.010056808590888977,-0.0011484825517982244,0.009475014172494411
1761469018311623400,0.98262353515625,0.012764304876327515,-0.022581981495022774,0.012326274067163467
1761469018321579500,0.99257958984375,0.010350949130952358,-0.03400960564613342,0.014649350196123123
1761469018331534300,1.002534423828125,0.003895677626132965,-0.03398393839597702,0.024777229875326157
1761469018341490200,1.012490234375,-0.0004601885739248246,-0.02525223046541214,0.03460962325334549
1761469018351445500,1.022445556640625,-0.004115249030292034,-0.021297281607985497,0.03869445621967316
1761469018361401300,1.0324013671875,-0.006843924522399902,-0.01873984932899475,0.04304925724864006
1761469018371356400,1.0423564453125,-0.007823874242603779,-0.011566368862986565,0.054229963570833206
1761469018381311500,1.0523115234375,-0.006632909178733826,0.004818730056285858,0.0756409764289856
1761469018391267300,1.062267333984375,-0.0025419003795832396,0.01583477295935154,0.09796417504549026
1761469018401222400,1.072222412109375,0.0009644175879657269,0.019310196861624718,0.11149223148822784
1761469018411178200,1.08217822265625,-0.0005255745491012931,0.017837338149547577,0.1142672449350357
1761469018421133300,1.09213330078125,-0.0035440013743937016,0.009356766007840633,0.10653369128704071
1761469018431089400,1.10208935546875,-0.005962985567748547,-0.002834550105035305,0.09420686215162277
1761469018441044200,1.112044189453125,-0.0028422933537513018,-0.009699646383523941,0.08092115074396133
1761469018450999600,1.12199951171875,-0.005260222591459751,-0.004481837619096041,0.06569083780050278
1761469018460955400,1.131955322265625,-0.0064722271636128426,0.0012349035823717713,0.05027539283037186
1761469018470910200,1.14191015625,-0.009443284943699837,-0.0021224410738795996,0.03305314481258392
1761469018480866600,1.151866455078125,-0.010881657712161541,-0.006048473529517651,0.020715251564979553
1761469018490821400,1.1618212890625,-0.0062394216656684875,-0.009520948864519596,0.00461279833689332
1761469018500777500,1.171777587890625,0.0003497714060358703,-0.01281820796430111,-0.004207058809697628
1761469018510732300,1.181732177734375,0.001566755585372448,-0.01817517727613449,-0.008294029161334038
1761469018520687400,1.191687255859375,0.002581419888883829,-0.015855563804507256,-0.005104627925902605
1761469018530643500,1.2016435546875,0.0005755496677011251,-0.009753268212080002,-0.000029461225494742393
1761469018540598300,1.211598388671875,-0.0015232875011861324,-0.006857080850750208,0.002929577138274908
1761469018550554400,1.221554443359375,-0.0014009069418534636,-0.001916794222779572,-0.00009262259118258953
1761469018560509400,1.231509521484375,-0.0039820424281060696,-0.010175789706408978,-0.006531347520649433
1761469018570465300,1.24146533203125,-0.010132001712918282,-0.020682748407125473,-0.014649678021669388
1761469018580420600,1.251420654296875,-0.012660940177738667,-0.01419502217322588,-0.01725025475025177
1761469018590375400,1.26137548828125,-0.011350919492542744,0.010681002400815487,-0.014053522609174252
1761469018600331300,1.271331298828125,-0.00032117156661115587,0.026694057509303093,-0.005839002318680286
1761469018610286600,1.28128662109375,0.012121881358325481,0.03162712976336479,-0.0021647606045007706
1761469018620242400,1.291242431640625,0.01744580641388893,0.02343311905860901,-0.0017133550718426704
1761469018630197200,1.301197265625,0.027098920196294785,0.004138394258916378,-0.009865518659353256
1761469018640153300,1.3111533203125,0.03115890920162201,-0.023224785923957825,-0.030549759045243263
1761469018650108400,1.3211083984375,0.027458887547254562,-0.04301713407039642,-0.0490371510386467
1761469018660063200,1.331063232421875,0.02268250845372677,-0.040671687573194504,-0.061415255069732666
1761469018670019300,1.341019287109375,0.019327133893966675,-0.03499044477939606,-0.06251707673072815
1761469018679974400,1.350974365234375,0.01983446627855301,-0.03205431252717972,-0.05742058530449867
1761469018689930500,1.360930419921875,0.023702533915638924,-0.023547399789094925,-0.046906497329473495
1761469018699885300,1.37088525390625,0.029785728082060814,-0.02057637646794319,-0.025239817798137665
1761469018709841400,1.38084130859375,0.0330708883702755,-0.02345249615609646,-0.0006283866241574287
1761469018719796500,1.39079638671875,0.041165031492710114,-0.026748424395918846,0.01858392357826233
1761469018729751300,1.400751220703125,0.04482031241059303,-0.019811443984508514,0.03378543630242348
1761469018739707400,1.410707275390625,0.04288285970687866,-0.015396722592413425,0.03704274818301201
1761469018749662500,1.420662353515625,0.034881554543972015,-0.017530128359794617,0.038669876754283905
1761469018759618300,1.430618408203125,0.025853708386421204,-0.03156552091240883,0.03940251097083092
1761469018769573400,1.440573486328125,0.01061900146305561,-0.04476786404848099,0.04006567969918251
1761469018779529200,1.450529296875,0.001326167257502675,-0.030737534165382385,0.046356067061424255
1761469018789484500,1.460484619140625,-0.001041451352648437,0.0027585902716964483,0.0537024550139904
1761469018799439400,1.470439453125,-0.0016648974269628525,0.03329599276185036,0.052446506917476654
1761469018809395200,1.480395263671875,0.004170612897723913,0.050593532621860504,0.0472167506814003
1761469018819350500,1.4903505859375,0.007128586061298847,0.0474264994263649,0.04198763519525528
1761469018829306400,1.500306396484375,0.010485021397471428,0.0312500074505806,0.04420239105820656
1761469018839261200,1.51026123046875,0.010432290844619274,0.01264756266027689,0.049542561173439026
1761469018849216500,1.520216552734375,0.009396635927259922,-0.008373433724045753,0.0499098040163517
1761469018859172400,1.53017236328125,0.007394470740109682,-0.01743989810347557,0.04377840831875801
1761469018869127200,1.540127197265625,0.009091771207749844,-0.007912389002740383,0.02913549169898033
1761469018879083500,1.55008349609375,0.01674516312777996,0.011295127682387829,0.015546980313956738
1761469018889038300,1.560038330078125,0.018971577286720276,0.03509523719549179,0.006358150392770767
1761469018898994400,1.569994384765625,0.023552214726805687,0.045646414160728455,0.007331801578402519
1761469018908949200,1.57994921875,0.026436973363161087,0.0414675772190094,0.007777595426887274
1761469018918904300,1.589904296875,0.02416716143488884,0.03220750018954277,0.014375044032931328
1761469018928860400,1.5998603515625,0.01813506707549095,0.02018742263317108,0.016413306817412376
1761469018938815200,1.609815185546875,0.012117920443415642,0.016346877440810204,0.01751985028386116
1761469018948771600,1.619771484375,0.006351115647703409,0.018860377371311188,0.017389923334121704
1761469018958726400,1.629726318359375,0.003455460537225008,0.027205392718315125,0.015907607972621918
1761469018968682200,1.63968212890625,0.001875292044132948,0.03742056339979172,0.012910813093185425
1761469018978637600,1.649637451171875,-0.0004496476030908525,0.0411527194082737,0.0040699178352952
1761469018988592400,1.65959228515625,-0.0007098877686075866,0.033523693680763245,-0.009102074429392815
1761469018998548200,1.66954833984375,-0.005315558519214392,0.017236333340406418,-0.021075911819934845
1761469019008503600,1.679503662109375,-0.009531401097774506,0.001725979265756905,-0.028715329244732857
1761469019018459400,1.68945947265625,-0.007136420346796513,-0.0029310905374586582,-0.031090067699551582
1761469019028414500,1.69941455078125,-0.01038773451000452,-0.0038441645447164774,-0.030416065827012062
1761469019038370300,1.709370361328125,-0.011658062227070332,0.001648871460929513,-0.024797063320875168
1761469019048325400,1.719325439453125,-0.01211830135434866,0.010602828115224838,-0.024337098002433777
1761469019058280700,1.72928076171875,-0.013455208390951157,0.01190617959946394,-0.02706310898065567
1761469019068236800,1.73923681640625,-0.0172712542116642,0.03189905360341072,-0.031638987362384796
1761469019078191900,1.74919189453125,-0.021893968805670738,0.05468612536787987,-0.029300730675458908
1761469019088148000,1.75914794921875,-0.02275325357913971,0.07202882319688797,-0.01957702450454235
1761469019098102800,1.769102783203125,-0.020265329629182816,0.07313697040081024,-0.010166745632886887
1761469019108057900,1.779057861328125,-0.020415058359503746,0.06019869074225426,-0.008792957291007042
1761469019118014000,1.789013916015625,-0.01856282912194729,0.030713772401213646,-0.01919020339846611
1761469019127968800,1.79896875,-0.018019208684563637,0.0013902988284826279,-0.04668523371219635
1761469019137924600,1.808924560546875,-0.014862564392387867,-0.017718413844704628,-0.07739068567752838
1761469019147880000,1.8188798828125,-0.010561106726527214,-0.023235440254211426,-0.09894052892923355
1761469019157835800,1.828835693359375,-0.005366078112274408,-0.016125598922371864,-0.09929020702838898
1761469019167790600,1.83879052734375,-0.004576671402901411,-0.002878646133467555,-0.08729404211044312
1761469019177746000,1.848745849609375,-0.006248071324080229,0.014852680265903473,-0.06822367012500763
1761469019187701800,1.85870166015625,-0.0017618711572140455,0.03395787626504898,-0.044455427676439285
1761469019197656800,1.86865673828125,0.006838541012257338,0.0405566580593586,-0.016886649653315544
1761469019207612700,1.87861279296875,0.019059091806411743,0.03448115289211273,0.008398830890655518
1761469019217567700,1.888567626953125,0.0282448660582304,0.025088446214795113,0.026605531573295593
1761469019227523800,1.89852392578125,0.03279370814561844,0.018259622156620026,0.030201267451047897
1761469019237478700,1.908478759765625,0.03134787827730179,0.012364980764687061,0.02787180244922638
1761469019247433700,1.918433837890625,0.027085863053798676,0.012656555511057377,0.015828020870685577
1761469019257389800,1.928389892578125,0.023606175556778908,0.014109842479228973,0.010017802007496357
1761469019267344600,1.9383447265625,0.021722253412008286,0.008562734350562096,0.00040402146987617016
1761469019277300700,1.94830078125,0.021486297249794006,-0.010052494704723358,-0.012963449582457542
1761469019287255800,1.958255859375,0.023867139592766762,-0.029551822692155838,-0.03179996833205223
1761469019297211600,1.968211669921875,0.025858119130134583,-0.04295817390084267,-0.04623696208000183
1761469019307166700,1.978166748046875,0.024856271222233772,-0.0410248227417469,-0.05075596272945404
1761469019317121800,1.988121826171875,0.020770182833075523,-0.03108910098671913,-0.043746788054704666
1761469019327078000,1.998077880859375,0.013474361971020699,-0.020620204508304596,-0.03284722566604614
1761469019337032700,2.00803271484375,0.0052004531025886536,-0.015066981315612793,-0.020453672856092453
1761469019346988800,2.01798876953125,-0.0038831145502626896,-0.006378244608640671,-0.013463776558637619
1761469019356944000,2.02794384765625,-0.007605947554111481,0.005654716398566961,-0.009873302653431892
1761469019366898700,2.037898681640625,-0.012310722842812538,0.015823034569621086,-0.007732509635388851
1761469019376854800,2.047854736328125,-0.0094595430418849,0.020444950088858604,-0.007110928185284138
1761469019386809900,2.057809814453125,-0.0017053548945114017,0.015435432083904743,-0.004473519511520863
1761469019396765700,2.067765625,0.002981808502227068,0.003454402554780245,-0.013153028674423695
1761469019406720800,2.077720703125,0.01114827673882246,-0.008465558290481567,-0.025496719405055046
1761469019416676900,2.0876767578125,0.01845465786755085,-0.0229819156229496,-0.0393022783100605
1761469019426631700,2.097631591796875,0.027425851672887802,-0.03809743374586105,-0.056551363319158554
1761469019436586800,2.107586669921875,0.03390159457921982,-0.04205915331840515,-0.07039260864257812
1761469019446542800,2.11754296875,0.03489052876830101,-0.036102768033742905,-0.07705999910831451
1761469019456497700,2.12749755859375,0.03386574611067772,-0.013107703998684883,-0.07204367220401764
1761469019466453800,2.137453857421875,0.03160364553332329,0.01117582805454731,-0.06191687658429146
1761469019476408800,2.147408935546875,0.027486931532621384,0.022380545735359192,-0.0512799471616745
1761469019486365000,2.157364990234375,0.028805185109376907,0.02024606429040432,-0.04229561239480972
1761469019496319700,2.16731982421875,0.0353858582675457,0.014820671640336514,-0.031844571232795715
1761469019506274800,2.17727490234375,0.04091909900307655,0.004827732220292091,-0.024820584803819656
1761469019516231000,2.18723095703125,0.04570959135890007,-0.011203697882592678,-0.01642310619354248
1761469019526185700,2.197185791015625,0.041781049221754074,-0.024868030101060867,-0.013527924194931984
1761469019536141800,2.207141845703125,0.03406880050897598,-0.03644878417253494,-0.00989457219839096
1761469019546097000,2.217096923828125,0.024343742057681084,-0.04525509849190712,-0.007097349036484957
1761469019556052700,2.227052734375,0.013047678396105766,-0.04124011844396591,-0.0014597037807106972
1761469019566007800,2.2370078125,0.005623837932944298,-0.02346854843199253,0.003977796994149685
1761469019575963000,2.246962890625,0.00033906102180480957,-0.0063726515509188175,0.003131178207695484
1761469019585918700,2.256918701171875,0.004138789605349302,0.02157716266810894,0.006365343928337097
1761469019595873800,2.266873779296875,0.005615512374788523,0.045855335891246796,0.011533740907907486
1761469019605829600,2.27682958984375,0.00503793079406023,0.040674250572919846,0.011290697380900383
1761469019615784700,2.28678466796875,0.0028530731797218323,0.021995369344949722,0.004344906657934189
1761469019625740800,2.29674072265625,0.0008467173320241272,0.0014882930554449558,-0.006448108237236738
1761469019635695600,2.306695556640625,-0.0016726329922676086,-0.013085856102406979,-0.020357798784971237
1761469019645651000,2.31665087890625,0.0001510069123469293,-0.06056548282504082,-0.030155792832374573
1761469019655606800,2.326606689453125,0.005208882503211498,-0.10562536120414734,-0.02803405374288559
1761469019665561600,2.3365615234375,-0.007849715650081635,-0.08775297552347183,-0.024094507098197937
1761469019675517700,2.346517578125,-0.01876574568450451,-0.06332778930664062,-0.028353434056043625
1761469019685472800,2.35647265625,-0.01613662950694561,-0.010773648507893085,-0.03929906338453293
1761469019695427600,2.366427490234375,-0.0159496758133173,0.02599448524415493,-0.03664682060480118
1761469019705383700,2.3763837890625,-0.01921890117228031,0.045374102890491486,-0.017796989530324936
1761469019715338800,2.3863388671875,-0.018623417243361473,0.048741936683654785,0.0008240982424467802
1761469019725294800,2.396294921875,-0.015491914004087448,0.03754764795303345,0.012315005995333195
1761469019735249700,2.406249755859375,-0.008506708778440952,0.0284204613417387,0.021894395351409912
1761469019745205800,2.416205810546875,-0.0026929574087262154,0.024969331920146942,0.02893257513642311
1761469019755160800,2.426160888671875,0.0018578522140160203,0.020591627806425095,0.029964551329612732
1761469019765115600,2.43611572265625,0.009014632552862167,0.012627230025827885,0.02818656712770462
1761469019775071700,2.44607177734375,0.007863081060349941,-0.004685713443905115,0.031345341354608536
1761469019785026800,2.45602685546875,0.009615846909582615,-0.018844563513994217,0.0371517539024353
1761469019794982700,2.465982666015625,0.013940021395683289,-0.024958381429314613,0.04369061067700386
1761469019804937700,2.475937744140625,0.020338671281933784,-0.02380111627280712,0.042887624353170395
1761469019814893800,2.485893798828125,0.019316017627716064,-0.018636712804436684,0.039570391178131104
1761469019824848600,2.4958486328125,0.019936440512537956,-0.0206987876445055,0.039619967341423035
1761469019834803700,2.5058037109375,0.013367755338549614,-0.026921262964606285,0.03663642704486847
1761469019844759800,2.515759765625,0.003008578671142459,-0.036550961434841156,0.03213873878121376
1761469019854715000,2.52571484375,-0.011819103732705116,-0.03261720389127731,0.022404618561267853
1761469019864670700,2.535670654296875,-0.026347441598773003,-0.01172389555722475,0.025942131876945496
1761469019874625800,2.545625732421875,-0.040263522416353226,0.005262811202555895,0.031039953231811523
1761469019884582000,2.555581787109375,-0.05301452428102493,0.012811408378183842,0.03198032081127167
1761469019894536700,2.56553662109375,-0.05848172679543495,0.009320536628365517,0.02266325056552887
1761469019904491800,2.57549169921875,-0.05934225767850876,0.009766031987965107,0.018218493089079857
1761469019914448000,2.58544775390625,-0.0545823909342289,0.01342201977968216,0.013333456590771675
1761469019924402700,2.595402587890625,-0.04869871959090233,0.01785684935748577,0.014341732487082481
1761469019934358800,2.60535888671875,-0.041868776082992554,0.01700064353644848,0.014409642666578293
1761469019944313900,2.61531396484375,-0.03864728659391403,0.01320632454007864,0.013960182666778564
1761469019954268700,2.6252685546875,-0.03935808315873146,0.005391278304159641,0.0009479771833866835
1761469019964224800,2.635224853515625,-0.03871530294418335,-0.009633170440793037,-0.01898295432329178
1761469019974179800,2.645179931640625,-0.041528668254613876,-0.03081861510872841,-0.03154668211936951
1761469019984136000,2.655135986328125,-0.040992919355630875,-0.03476730361580849,-0.028150169178843498
1761469019994090800,2.6650908203125,-0.03300929442048073,-0.022980419918894768,-0.015990443527698517
1761469020004046600,2.675046630859375,-0.021901438012719154,-0.002004811307415366,0.0035415298771113157
1761469020014002000,2.685001953125,-0.01046901848167181,0.020033380016684532,0.021971669048070908
1761469020023956700,2.694956787109375,0.0028414023108780384,0.03026674874126911,0.03575688600540161
1761469020033912600,2.70491259765625,0.010131007060408592,0.02195076271891594,0.04563215374946594
1761469020043868000,2.714867919921875,0.01254791859537363,0.012318098917603493,0.04919968545436859
1761469020053823700,2.72482373046875,0.014958345331251621,0.01759035885334015,0.04734665900468826
1761469020063778000,2.734778076171875,0.020697392523288727,0.018772218376398087,0.04173543304204941
1761469020073734400,2.744734375,0.015394238755106926,0.01316306833177805,0.03827332332730293
1761469020083689200,2.754689208984375,0.012063524685800076,0.0011148769408464432,0.03354521095752716
1761469020093644000,2.76464404296875,0.009140972048044205,-0.028477102518081665,0.025684092193841934
1761469020103600400,2.774600341796875,0.003965592943131924,-0.05992193520069122,0.01081183459609747
1761469020113555200,2.78455517578125,-0.008014637045562267,-0.08320701867341995,0.009752695448696613
1761469020123511300,2.79451123046875,-0.02237590402364731,-0.07950469851493835,0.01940528117120266
1761469020133466400,2.80446630859375,-0.027190901339054108,-0.05715012922883034,0.037124622613191605
1761469020143422500,2.81442236328125,-0.0315394401550293,-0.022927865386009216,0.05879628285765648
1761469020153377300,2.824377197265625,-0.034120574593544006,0.009856180287897587,0.07711030542850494
1761469020163332000,2.83433203125,-0.03361082077026367,0.029214628040790558,0.08796507120132446
1761469020173288400,2.844288330078125,-0.03638716787099838,0.04324362426996231,0.08090795576572418
1761469020183243300,2.8542431640625,-0.0377052016556263,0.04210416227579117,0.06437519937753677
1761469020193199000,2.86419921875,-0.04006316512823105,0.021749623119831085,0.04751259461045265
1761469020203154400,2.874154541015625,-0.046079326421022415,0.010918792337179184,0.026790719479322433
1761469020213110300,2.8841103515625,-0.04942798241972923,0.011307880282402039,0.007479873485863209
1761469020223065300,2.8940654296875,-0.05029232054948807,-0.0021425276063382626,-0.0124655244871974
1761469020233020400,2.9040205078125,-0.0458107516169548,-0.018740946426987648,-0.026594925671815872
1761469020242976300,2.913976318359375,-0.03504476323723793,-0.022945502772927284,-0.03459596261382103
1761469020252931300,2.923931396484375,-0.024942860007286072,-0.01581275835633278,-0.040884751826524734
1761469020262887200,2.93388720703125,-0.015126354992389679,0.005384928081184626,-0.05100852996110916
1761469020272842200,2.94384228515625,-0.00022756680846214294,0.030153924599289894,-0.05761823058128357
1761469020282797300,2.95379736328125,0.007896548137068748,0.04288395494222641,-0.05549813061952591
1761469020292753200,2.963753173828125,0.015805071219801903,0.0327218659222126,-0.046019941568374634
1761469020302708200,2.973708251953125,0.020818039774894714,0.01198564376682043,-0.03115624189376831
1761469020312664300,2.983664306640625,0.025743024423718452,-0.007487122900784016,-0.013381507247686386
1761469020322619100,2.993619140625,0.03224056959152222,-0.015279962681233883,0.006003253627568483
1761469020332575200,3.0035751953125,0.03316575288772583,-0.017784133553504944,0.02281871810555458
1761469020342530300,3.0135302734375,0.03553074598312378,-0.007011155132204294,0.04075920581817627
1761469020352485000,3.023485107421875,0.040618181228637695,0.013365755788981915,0.06113824248313904
1761469020362441200,3.033441162109375,0.03839251771569252,0.028495604172348976,0.08068118244409561
1761469020372396300,3.043396240234375,0.04039015248417854,0.043414365500211716,0.09092369675636292
1761469020382352400,3.053352294921875,0.04037732630968094,0.051292140036821365,0.09461034834384918
1761469020392307200,3.06330712890625,0.04123060032725334,0.044545289129018784,0.09020335227251053
1761469020402263000,3.073262939453125,0.043804749846458435,0.034316565841436386,0.07471313327550888
1761469020412218400,3.08321826171875,0.041827619075775146,0.009478861466050148,0.047907885164022446
1761469020422173200,3.093173095703125,0.03729366511106491,-0.020682748407125473,0.015808887779712677
1761469020432129000,3.10312890625,0.03218359127640724,-0.041686031967401505,-0.0014135092496871948
1761469020442084400,3.11308447265625,0.025390328839421272,-0.03747323900461197,-0.001377267763018608
1761469020452040200,3.123040283203125,0.019165989011526108,-0.019947510212659836,-0.00013543548993766308
1761469020461995300,3.132995361328125,0.014274410903453827,0.005791060160845518,-0.0013341852463781834
1761469020471950300,3.142950439453125,0.007185874506831169,0.029243122786283493,-0.013822014443576336
1761469020481906200,3.15290625,-0.0018964414484798908,0.03886687383055687,-0.025966746732592583
1761469020491861200,3.162861328125,-0.01192670501768589,0.02594042383134365,-0.03975073620676994
1761469020501817300,3.1728173828125,-0.011505034752190113,0.009307364001870155,-0.04394848644733429
1761469020511772200,3.182772216796875,-0.00799924973398447,-0.00770624028518796,-0.04065495729446411
1761469020521728300,3.192728271484375,0.0014520888216793537,-0.013305403292179108,-0.0392000749707222
1761469020531683300,3.202683349609375,0.008057260885834694,-0.00675802119076252,-0.04008876904845238
1761469020541638400,3.212638427734375,0.01166568137705326,0.008463757112622261,-0.040761154145002365
1761469020551594200,3.22259423828125,0.011662486009299755,0.021731093525886536,-0.03589742258191109
1761469020561549300,3.23254931640625,0.013157956302165985,0.01985991559922695,-0.024253983050584793
1761469020571505400,3.24250537109375,0.014239465817809105,0.014294440858066082,-0.008019886910915375
1761469020581460200,3.252460205078125,0.018075354397296906,0.004645654931664467,0.009011213667690754
1761469020591416300,3.262416259765625,0.024200359359383583,-0.0016021211631596088,0.024087900295853615
1761469020601371400,3.272371337890625,0.032914720475673676,-0.004853994585573673,0.03443978726863861
1761469020611326200,3.282326171875,0.03781653568148613,-0.00004379310121294111,0.04180289804935455
1761469020621282300,3.2922822265625,0.04643946886062622,0.0013810700038447976,0.044876474887132645
1761469020631237400,3.3022373046875,0.05582258477807045,0.0035606008023023605,0.035672321915626526
1761469020641193200,3.312193115234375,0.05908435210585594,0.010926852934062481,0.01804092526435852
1761469020651148300,3.322148193359375,0.060009803622961044,0.0109484251588583,-0.001643031369894743
1761469020661104000,3.332104248046875,0.057701002806425095,0.00817158818244934,-0.013169026002287865
1761469020671059500,3.3420595703125,0.04707125946879387,0.007707399316132069,-0.012125067412853241
1761469020681014300,3.35201416015625,0.03571227937936783,0.01093083806335926,-0.0030809142626821995
1761469020690970000,3.36197021484375,0.03084375523030758,0.008172867819666862,0.012843990698456764
1761469020700925400,3.371925537109375,0.02783156745135784,-0.00799233466386795,0.027252960950136185
1761469020710881300,3.38188134765625,0.02753063105046749,-0.029260871931910515,0.04243750497698784
1761469020720836000,3.391836181640625,0.03256334364414215,-0.04273981600999832,0.05409061908721924
1761469020730792200,3.401792236328125,0.042461249977350235,-0.04465596005320549,0.06822428107261658
1761469020740747300,3.411747314453125,0.045970045030117035,-0.03571517765522003,0.08426298946142197
1761469020750702000,3.4217021484375,0.0459844246506691,-0.018326332792639732,0.10048403590917587
1761469020760658200,3.431658203125,0.032879557460546494,-0.004045427776873112,0.10365999490022659
1761469020770613200,3.44161328125,0.01588858664035797,0.0015783694107085466,0.09551046043634415
1761469020780569300,3.4515693359375,0.003997086547315121,0.010732309892773628,0.08244682103395462
1761469020790524200,3.461524169921875,-0.00761908944696188,0.009566111490130424,0.06606677919626236
1761469020800479200,3.471479248046875,-0.012312574312090874,0.011343300342559814,0.054308634251356125
1761469020810435300,3.481435302734375,-0.012975701130926609,0.012718822807073593,0.04439181834459305
1761469020820390100,3.49139013671875,-0.019097892567515373,0.009334026835858822,0.02739611826837063
1761469020830346200,3.50134619140625,-0.030127640813589096,0.003100099740549922,0.006504684686660767
1761469020840301300,3.51130126953125,-0.0445396713912487,0.0020611388608813286,-0.013175254687666893
1761469020850257200,3.521257080078125,-0.053266849368810654,0.005716593936085701,-0.02555362693965435
1761469020860212200,3.531212158203125,-0.057483967393636703,-0.002099783858284354,-0.03627071902155876
1761469020870167300,3.541167236328125,-0.05763976275920868,-0.008272991515696049,-0.04810713976621628
1761469020880123400,3.551123291015625,-0.056324202567338943,-0.01685435138642788,-0.060644201934337616
1761469020890078200,3.561078125,-0.05250256881117821,-0.027433225885033607,-0.07503005862236023
1761469020900034300,3.571034423828125,-0.0482943058013916,-0.032138288021087646,-0.08506666123867035
1761469020909989400,3.5809892578125,-0.04132614657282829,-0.03065437078475952,-0.08617772161960602
1761469020919945200,3.5909453125,-0.03570542111992836,-0.026291437447071075,-0.07822974771261215
1761469020929900300,3.600900390625,-0.022161118686199188,-0.017272375524044037,-0.0662527084350586
1761469020939855400,3.61085546875,-0.01657755672931671,0.007550753653049469,-0.04355856776237488
1761469020949811200,3.620811279296875,-0.013273105956614017,0.029983891174197197,-0.021886294707655907
1761469020959766300,3.630766357421875,-0.014428548514842987,0.03083978034555912,-0.005159181077033281
1761469020969722400,3.640722412109375,-0.020785249769687653,0.0220582727342844,0.0030380291864275932
1761469020979677200,3.65067724609375,-0.025451071560382843,0.006945264060050249,0.004814745392650366
1761469020989632300,3.66063232421875,-0.0325276218354702,-0.011640138924121857,-0.0028522289358079433
1761469020999588400,3.67058837890625,-0.03584661707282066,-0.02405398339033127,-0.010894645005464554
1761469021009543200,3.680543212890625,-0.036460209637880325,-0.02615974470973015,-0.0163424052298069
1761469021019499300,3.690499267578125,-0.03754137456417084,-0.02497643232345581,-0.02306394651532173
1761469021029454300,3.700454345703125,-0.04065115004777908,-0.016585875302553177,-0.022285504266619682
1761469021039410400,3.710410400390625,-0.03551051393151283,-0.004903221502900124,-0.018532980233430862
1761469021049365200,3.720365234375,-0.03376108407974243,0.00480453297495842,-0.01045747846364975
1761469021059320300,3.7303203125,-0.028698911890387535,0.005555175710469484,-0.004066836088895798
1761469021069276200,3.740276123046875,-0.024841856211423874,-0.0031408441718667746,-0.0010697143152356148
1761469021079231000,3.75023095703125,-0.021345600485801697,-0.017890669405460358,-0.001824085135012865
1761469021089187000,3.76018701171875,-0.014522581361234188,-0.02272164262831211,-0.006260644644498825
1761469021099142100,3.77014208984375,-0.012559795752167702,-0.013278443366289139,-0.0009773443453013897
1761469021109098000,3.780097900390625,-0.012543284334242344,-0.008559588342905045,0.003980662673711777
1761469021119053000,3.790052978515625,-0.01678229682147503,-0.00993653479963541,0.0043866923078894615
1761469021129008000,3.800008056640625,-0.021669995039701462,-0.01868501864373684,0.011454455554485321
1761469021138964000,3.8099638671875,-0.031150896102190018,-0.02593480795621872,0.015833761543035507
1761469021148919000,3.8199189453125,-0.03561541810631752,-0.01763559877872467,0.019681762903928757
1761469021158875000,3.829875,-0.034809235483407974,0.0029092226177453995,0.030062228441238403
1761469021168830200,3.839830322265625,-0.03397992625832558,0.020262112841010094,0.03275734558701515
1761469021178786000,3.8497861328125,-0.03185974806547165,0.02545996941626072,0.024973582476377487
1761469021188740900,3.859740966796875,-0.02728283777832985,0.028205953538417816,0.013902288861572742
1761469021198696200,3.8696962890625,-0.022058874368667603,0.030267251655459404,0.001335938461124897
1761469021208652000,3.879652099609375,-0.021586963906884193,0.026715127751231194,-0.01347896084189415
1761469021218606800,3.88960693359375,-0.017516160383820534,0.01656959019601345,-0.027881434187293053
1761469021228563000,3.89956298828125,-0.009461961686611176,0.014535200782120228,-0.03609834983944893
1761469021238518000,3.90951806640625,-0.0026139323599636555,0.012845496647059917,-0.04269285127520561
1761469021248474000,3.91947412109375,0.004942786879837513,0.011255855672061443,-0.055177219212055206
1761469021258429000,3.929428955078125,0.012305175885558128,0.00918526854366064,-0.05608021467924118
1761469021268384000,3.939384033203125,0.017944686114788055,0.0050150249153375626,-0.055815231055021286
1761469021278340000,3.949340087890625,0.02278011478483677,0.002753456821665168,-0.054838962852954865
1761469021288295000,3.959294921875,0.024802785366773605,-0.001426640897989273,-0.052674610167741776
1761469021298251300,3.969251220703125,0.027100427076220512,-0.00424602534621954,-0.04674253612756729
1761469021308206000,3.9792060546875,0.03074975684285164,-0.0043387035839259624,-0.03343525156378746
1761469021318783000,3.989782958984375,0.03163531795144081,0.00034989340929314494,-0.017487306147813797
1761469021328739000,3.999739013671875,0.03217301145195961,0.011025440879166126,-0.00670203659683466
1761469021338694100,4.009694091796875,0.027931587770581245,0.01833309419453144,0.005769568961113691
1761469021348650000,4.01964990234375,0.027944104745984077,0.02326766587793827,0.015114868059754372
1761469021358605000,4.02960498046875,0.025278914719820023,0.030552957206964493,0.019943242892622948
1761469021368561200,4.03956103515625,0.025163067504763603,0.03462546318769455,0.017897136509418488
1761469021378516000,4.049515869140625,0.026837922632694244,0.03172425925731659,0.010048694908618927
1761469021388471000,4.059470947265625,0.026419272646307945,0.019706210121512413,0.006051822565495968
1761469021398427100,4.06942724609375,0.02236761897802353,0.013410250656306744,0.00515974685549736
1761469021408382000,4.0793818359375,0.021811017766594887,0.01740046590566635,0.009407754987478256
1761469021418338000,4.089338134765625,0.018492568284273148,0.027926793321967125,0.010422358289361
1761469021428292900,4.09929296875,0.018885917961597443,0.03712322190403938,0.01198323629796505
1761469021438248200,4.109248291015625,0.023139286786317825,0.048321448266506195,0.0137969721108675
1761469021448204000,4.1192041015625,0.03253624960780144,0.053787317126989365,0.01753205433487892
1761469021458158800,4.129158935546875,0.04470624402165413,0.05423857644200325,0.022549940273165703
1761469021468115200,4.139115234375,0.06059626117348671,0.04881025478243828,0.0277622789144516
1761469021478070000,4.149070068359375,0.0775555968284607,0.04491117596626282,0.032347384840250015
1761469021488026000,4.159026123046875,0.09192415326833725,0.04620467498898506,0.032276809215545654
1761469021497981200,4.168981201171875,0.09963774681091309,0.0405837744474411,0.03306391462683678
1761469021507936000,4.17893603515625,0.10283806920051575,0.0291428342461586,0.033064182847738266
1761469021517892000,4.18889208984375,0.10292376577854156,0.006192151457071304,0.03221879154443741
1761469021527847200,4.19884716796875,0.09303278475999832,-0.01995502971112728,0.032012663781642914
1761469021537803000,4.208802978515625,0.08101177215576172,-0.024763798341155052,0.0369870588183403
1761469021547758000,4.218758056640625,0.06338537484407425,-0.01681000180542469,0.04323084279894829
1761469021557714000,4.2287138671875,0.052477553486824036,-0.001799179008230567,0.05037657171487808
1761469021567669200,4.238669189453125,0.04772487282752991,0.020788153633475304,0.057188671082258224
1761469021577624000,4.2486240234375,0.03721776604652405,0.03321004658937454,0.05823490768671036
1761469021587580000,4.258579833984375,0.023819133639335632,0.026488492265343666,0.05769508332014084
1761469021597535200,4.26853515625,0.0073275817558169365,0.014791416935622692,0.05597386136651039
1761469021607491000,4.278490966796875,-0.012545458972454071,-0.0028411061502993107,0.052151426672935486
1761469021617446000,4.28844580078125,-0.027023043483495712,-0.012449483387172222,0.04619010537862778
1761469021627402000,4.298402099609375,-0.041172683238983154,-0.024514667689800262,0.034021057188510895
1761469021637357000,4.308357177734375,-0.051427509635686874,-0.019596967846155167,0.023080158978700638
1761469021647312100,4.31831201171875,-0.06636730581521988,0.0010569121222943068,0.01436709426343441
1761469021657268000,4.32826806640625,-0.08239245414733887,0.018749140202999115,0.0089698676019907
1761469021667846000,4.338845947265625,-0.09836290031671524,0.020754234865307808,-0.0015943595208227634
1761469021677802000,4.348802001953125,-0.10678309947252274,0.017136074602603912,-0.015408400446176529
1761469021687757000,4.358757080078125,-0.11484742164611816,0.018519585952162743,-0.031569529324769974
1761469021697711900,4.3687119140625,-0.11818430572748184,0.021468330174684525,-0.04838728532195091
1761469021707668000,4.37866796875,-0.1192847266793251,0.022020136937499046,-0.06349673122167587
1761469021717623000,4.388623046875,-0.11875350028276443,0.01700565032660961,-0.07235502451658249
1761469021727579100,4.3985791015625,-0.11725600808858871,0.013385615311563015,-0.07351269572973251
1761469021737534000,4.408533935546875,-0.11092465370893478,0.01119316928088665,-0.07806723564863205
1761469021747490000,4.418489990234375,-0.10014843940734863,0.010635503567755222,-0.07708293199539185
1761469021757445000,4.428445068359375,-0.08422182500362396,0.015579313039779663,-0.07319290935993195
1761469021767400000,4.43839990234375,-0.06803034245967865,0.015065057203173637,-0.06439089775085449
1761469021777356000,4.44835595703125,-0.055136967450380325,0.01229873951524496,-0.052810776978731155
1761469021787311000,4.45831103515625,-0.039547353982925415,0.007909583859145641,-0.0433214008808136
1761469021797267000,4.468266845703125,-0.023703528568148613,0.005327731370925903,-0.031709689646959305
1761469021807222000,4.478221923828125,-0.009069989435374737,-0.0013714502565562725,-0.022758804261684418
1761469021817177000,4.488177001953125,0.0014985435409471393,-0.01779370941221714,-0.014530209824442863
1761469021827133000,4.4981328125,0.014001285657286644,-0.02705431915819645,0.0018615470035001636
1761469021837088000,4.508087890625,0.027999311685562134,-0.032253097742795944,0.023480473086237907
1761469021847044000,4.518044189453125,0.04049886018037796,-0.03023282252252102,0.04628272354602814
1761469021856999200,4.527999267578125,0.04683413729071617,-0.024521857500076294,0.06658060103654861
1761469021866955000,4.537955078125,0.045178718864917755,-0.02166242152452469,0.083551324903965
1761469021876910000,4.54791015625,0.03976767882704735,-0.022830640897154808,0.09237056225538254
1761469021886866200,4.5578662109375,0.03105168417096138,-0.030077634379267693,0.0910126194357872
1761469021896821000,4.567821044921875,0.02638493850827217,-0.04206721484661102,0.08451225608587265
1761469021906776000,4.577776123046875,0.025220071896910667,-0.05925632268190384,0.07870417088270187
1761469021916732200,4.587732177734375,0.026749547570943832,-0.0823257565498352,0.07643859088420868
1761469021926687000,4.59768701171875,0.030146677047014236,-0.09140793979167938,0.07349313795566559
1761469021936643000,4.60764306640625,0.03030344285070896,-0.08502086997032166,0.06741531938314438
1761469021946598100,4.61759814453125,0.02583998627960682,-0.06761232018470764,0.0600396953523159
1761469021956553000,4.627552978515625,0.017106033861637115,-0.0403854064643383,0.05342632904648781
1761469021966509000,4.637509033203125,0.0025830178055912256,-0.00878567062318325,0.04597160592675209
1761469021976464100,4.647464111328125,-0.018103398382663727,0.011775940656661987,0.03303107991814613
1761469021986420200,4.657420166015625,-0.037218768149614334,0.014835113659501076,0.013318626210093498
1761469021996375000,4.667375,-0.04953804239630699,0.008235862478613853,-0.009113196283578873
1761469022006331000,4.677330810546875,-0.05520391836762428,0.0034629451110959053,-0.03895071893930435
1761469022016286200,4.6872861328125,-0.05605016648769379,-0.0009331759065389633,-0.0719330757856369
1761469022026241000,4.697240966796875,-0.05564802885055542,-0.00369540648534894,-0.0953928604722023
1761469022036196900,4.70719677734375,-0.04949066415429115,-0.011301548220217228,-0.11232185363769531
1761469022046152200,4.717152099609375,-0.03952298313379288,-0.018854806199669838,-0.1179424524307251
1761469022056108000,4.72710791015625,-0.025740060955286026,-0.017986616119742393,-0.11463640630245209
1761469022066063400,4.7370634765625,-0.014003242366015911,-0.014359922148287296,-0.1031147688627243
1761469022076019500,4.74701953125,-0.0011278531746938825,-0.012134790420532227,-0.08788284659385681
1761469022085974500,4.756974609375,0.01181750651448965,-0.013577956706285477,-0.06954564899206161
1761469022095930600,4.7669306640625,0.02255330979824066,-0.007379664573818445,-0.04403235763311386
1761469022105885400,4.776885498046875,0.03192364051938057,0.0052748778834939,-0.021014921367168427
1761469022115840500,4.786840576171875,0.03767511248588562,0.01566888950765133,-0.0005566866602748632
1761469022125796600,4.796796630859375,0.040353719145059586,0.023580340668559074,0.015588461421430111
1761469022135751400,4.80675146484375,0.04336928576231003,0.030134443193674088,0.030449675396084785
1761469022145707500,4.81670751953125,0.051678616553545,0.027171406894922256,0.042841896414756775
1761469022155662600,4.82666259765625,0.05308206379413605,0.01572764292359352,0.049471449106931686
1761469022165617400,4.836617431640625,0.05655030161142349,-0.0024340515956282616,0.053849950432777405
1761469022175573500,4.846573486328125,0.05516832694411278,-0.016980862244963646,0.05750264227390289
1761469022185528600,4.856528564453125,0.05020526051521301,-0.028332587331533432,0.04816613346338272
1761469022195484400,4.866484375,0.04283091053366661,-0.03308989480137825,0.03924813121557236
1761469022205439500,4.876439453125,0.036955710500478745,-0.02382688596844673,0.039172232151031494
1761469022215395300,4.886395263671875,0.027688927948474884,-0.018141426146030426,0.04192757606506348
1761469022225350700,4.8963505859375,0.018733780831098557,-0.01799122430384159,0.04689197242259979
1761469022235306500,4.906306396484375,0.012717317789793015,-0.025999801233410835,0.05071047320961952
1761469022245261300,4.91626123046875,0.008143605664372444,-0.02313796803355217,0.056862909346818924
1761469022255216600,4.926216552734375,0.0021312879398465157,-0.019160106778144836,0.06123221293091774
1761469022265172500,4.93617236328125,-0.0033969017677009106,-0.02290264703333378,0.05680151283740997
1761469022275127300,4.946127197265625,-0.011627006344497204,-0.029722580686211586,0.05429369583725929
1761469022285083600,4.956083740234375,-0.02360617183148861,-0.02205747179687023,0.05239566043019295
1761469022295038500,4.96603857421875,-0.03238921985030174,-0.019544420763850212,0.047101132571697235
1761469022304993300,4.9759931640625,-0.03622017800807953,-0.02097480557858944,0.03619282692670822
1761469022314949600,4.98594970703125,-0.037215329706668854,-0.01959630288183689,0.020828990265727043
1761469022324904400,4.995904541015625,-0.03898952901363373,-0.011783918365836143,0.011742018163204193
1761469022334860500,5.005860595703125,-0.04645222797989845,0.002162226475775242,0.005269613116979599
1761469022344815600,5.015815673828125,-0.05195005610585213,0.010174612514674664,0.00036060833372175694
1761469022354771700,5.025771728515625,-0.06255688518285751,0.006544949021190405,-0.011317246593534946
1761469022364726500,5.0357265625,-0.07223641127347946,-0.002242417074739933,-0.02435688115656376
1761469022374681600,5.045681640625,-0.07754858583211899,-0.010429027490317822,-0.04167882725596428
1761469022384637700,5.0556376953125,-0.0802314504981041,-0.021664105355739594,-0.05149044841527939
1761469022394592500,5.065592529296875,-0.07922569662332535,-0.024575399234890938,-0.05480659008026123
1761469022404548400,5.07554833984375,-0.07739157974720001,-0.007656602654606104,-0.04542027786374092
1761469022414503700,5.085503662109375,-0.0697796419262886,0.008512502536177635,-0.03071754053235054
1761469022424459500,5.09545947265625,-0.06442748755216599,0.020857319235801697,-0.015387054532766342
1761469022434414600,5.10541455078125,-0.05662882328033447,0.022137388586997986,-0.006191079039126635
1761469022444369700,5.11536962890625,-0.047978077083826065,0.012719651684165001,-0.0026229755021631718
1761469022454325500,5.125325439453125,-0.03868544101715088,0.011208891868591309,-0.0033239773474633694
1761469022464280600,5.135280517578125,-0.030367324128746986,0.013381498865783215,-0.00930037721991539
1761469022474236400,5.145236328125,-0.02387119084596634,0.008009985089302063,-0.0199806559830904
1761469022484191500,5.15519140625,-0.017777612432837486,0.004838959779590368,-0.02720767632126808
1761469022494147600,5.165147705078125,-0.012605659663677216,-0.0075226458720862865,-0.026386667042970657
1761469022504102400,5.175102294921875,-0.0049890195950865746,-0.02241610735654831,-0.018503177911043167
1761469022514057500,5.185057373046875,0.0005921769188717008,-0.026752308011054993,-0.007690636906772852
1761469022524013600,5.195013671875,0.0030835638754069805,-0.0221684742718935,0.0032448347192257643
1761469022533968400,5.204968505859375,0.0055120112374424934,-0.008173010312020779,0.010688180103898048
1761469022543924500,5.214924560546875,0.001958821900188923,0.002895086770877242,0.019324546679854393
1761469022553879600,5.224879638671875,-0.0005112737417221069,0.011098186485469341,0.026522662490606308
1761469022563835600,5.234835693359375,-0.0037411553785204887,0.010375937446951866,0.03153952583670616
1761469022573790500,5.24479052734375,-0.007500646635890007,0.0018940255977213383,0.031819116324186325
1761469022583745500,5.25474560546875,-0.006241770461201668,-0.010195394046604633,0.027718380093574524
1761469022593701600,5.26470166015625,-0.000774592102970928,-0.013951987959444523,0.024897810071706772
1761469022603656400,5.274656494140625,0.011904984712600708,-0.016161613166332245,0.023592861369252205
1761469022613612300,5.2846123046875,0.021123006939888,-0.010009239427745342,0.02720865234732628
1761469022623567600,5.294567626953125,0.028668541461229324,0.007497049868106842,0.032419659197330475
1761469022633523500,5.3045234375,0.02784113585948944,0.018696870654821396,0.03324136510491371
1761469022643478300,5.314478271484375,0.02048388682305813,0.018987156450748444,0.02919096313416958
1761469022653433600,5.32443359375,0.016733132302761078,0.02210770547389984,0.021091453731060028
1761469022663389400,5.334389404296875,0.018925447016954422,0.019777972251176834,0.007211057469248772
1761469022673344500,5.344344482421875,0.022332556545734406,0.011426441371440887,-0.008474382571876049
1761469022683300600,5.354300537109375,0.025531545281410217,-0.006733653601258993,-0.025432594120502472
1761469022693255400,5.36425537109375,0.03227793797850609,-0.02417728863656521,-0.030994057655334473
1761469022703211500,5.37421142578125,0.03938085585832596,-0.03574073314666748,-0.028735965490341187
1761469022713166600,5.38416650390625,0.050301458686590195,-0.033902764320373535,-0.015186906792223454
1761469022723121400,5.394121337890625,0.054460249841213226,-0.017951492220163345,-0.00026707910001277924
1761469022733077500,5.404077392578125,0.05621207877993584,0.004026510752737522,0.007189771626144648
1761469022743032600,5.414032470703125,0.053373150527477264,0.008459076285362244,0.013397600501775742
1761469022752988700,5.42398876953125,0.04756246879696846,-0.001073647988960147,0.013174937106668949
1761469022762943500,5.433943603515625,0.03913010284304619,-0.021991446614265442,0.008341033942997456
1761469022772898600,5.443898681640625,0.031366534531116486,-0.03400520980358124,0.010208792053163052
1761469022782854700,5.453854736328125,0.02127554826438427,-0.03821966424584389,0.01318034715950489
1761469022792809500,5.4638095703125,0.010455634444952011,-0.03779536113142967,0.014294598251581192
1761469022802765600,5.473765625,0.007973302155733109,-0.022763416171073914,0.016521800309419632
1761469022812720600,5.483720703125,0.005351559724658728,-0.0021432344801723957,0.021341275423765182
1761469022822676500,5.493676513671875,-0.0022152794990688562,0.014979293569922447,0.025284353643655777
1761469022832631600,5.503631591796875,-0.010955169796943665,0.018563436344265938,0.017821887508034706
1761469022842586600,5.513586669921875,-0.01466149091720581,0.015492812730371952,0.005809699185192585
1761469022852542500,5.52354248046875,-0.02245626598596573,0.01068462897092104,-0.0026002107188105583
1761469022862497500,5.53349755859375,-0.02215799316763878,0.0047921184450387955,-0.00793558731675148
1761469022872453400,5.543453369140625,-0.015761053189635277,0.00021914264652878046,-0.006803460884839296
1761469022882408700,5.55340869140625,-0.008815263397991657,-0.0008024459239095449,-0.010589944198727608
1761469022892364500,5.563364501953125,-0.003917860332876444,-0.0015263748355209827,-0.017544584348797798
1761469022902319400,5.5733193359375,-0.0032717776484787464,-0.013275975361466408,-0.027083227410912514
1761469022912274700,5.583274658203125,-0.0015351211186498404,-0.018712593242526054,-0.02949541248381138
1761469022922230500,5.59323046875,-0.0003172574797645211,-0.02008119225502014,-0.02901710756123066
1761469022932185300,5.603185302734375,0.007590143010020256,-0.011382866650819778,-0.02752557396888733
1761469022942141400,5.613141357421875,0.01146237924695015,-0.0037254795897752047,-0.021739058196544647
1761469022952096500,5.623096435546875,0.015882303938269615,0.009950773790478706,-0.015265758149325848
1761469022962052600,5.633052490234375,0.018099118024110794,0.010111895389854908,-0.01365987304598093
1761469022972007400,5.64300732421875,0.019940262660384178,0.008634855039417744,-0.016818050295114517
1761469022981962500,5.65296240234375,0.018423592671751976,0.010037275031208992,-0.02682328037917614
1761469022991918600,5.662918701171875,0.015930550172924995,0.00402456521987915,-0.0317627489566803
1761469023001873400,5.672873291015625,0.017329508438706398,-0.0023180197458714247,-0.028488924726843834
1761469023011829500,5.68282958984375,0.02376588247716427,0.002764479722827673,-0.012500675395131111
1761469023021784600,5.69278466796875,0.03353302553296089,0.0074319359846413136,0.004285495728254318
1761469023031740400,5.702740478515625,0.03771863505244255,0.017954599112272263,0.02182925119996071
1761469023041695500,5.712695556640625,0.037199053913354874,0.026271916925907135,0.03959759697318077
1761469023051650600,5.722650634765625,0.03461730480194092,0.025575213134288788,0.051258429884910583
1761469023061607000,5.73260693359375,0.036818407475948334,0.024786118417978287,0.05333489552140236
1761469023071561700,5.742561767578125,0.037551574409008026,0.027378706261515617,0.0485081821680069
1761469023081517800,5.752517822265625,0.038571033626794815,0.03527817130088806,0.04020551219582558
1761469023091473000,5.762472900390625,0.032195065170526505,0.03500281274318695,0.025490790605545044
1761469023101429000,5.772428955078125,0.021527240052819252,0.030169975012540817,0.014832818880677223
1761469023111383800,5.7823837890625,0.007381177041679621,0.025876343250274658,0.0014101602137088776
1761469023121339000,5.7923388671875,0.0030221152119338512,0.02426033839583397,-0.011232398450374603
1761469023131295000,5.802294921875,0.0016140934312716126,0.029734240844845772,-0.021471824496984482
1761469023141249800,5.812249755859375,0.005711633246392012,0.022570069879293442,-0.026547279208898544
1761469023151206000,5.822205810546875,0.009892205707728863,0.007268785499036312,-0.026307962834835052
1761469023161161000,5.832160888671875,0.012832868844270706,-0.0024142013862729073,-0.01902128756046295
1761469023171115800,5.84211572265625,0.015605284832417965,0.0019188136793673038,-0.008900001645088196
1761469023181072000,5.85207177734375,0.015594898723065853,0.010288596153259277,-0.006260276772081852
1761469023191027000,5.86202685546875,0.010466175153851509,0.011088917031884193,-0.0060196323320269585
1761469023200982800,5.871982666015625,0.0025171716697514057,0.005065112374722958,-0.006110179238021374
1761469023210937900,5.881937744140625,0.00006291747558861971,-0.008457702584564686,-0.004381582606583834
1761469023220894000,5.89189404296875,0.0011590745998546481,-0.018836040049791336,-0.006475626025348902
1761469023230848800,5.901848876953125,0.0046048955991864204,-0.018552539870142937,-0.010849297046661377
1761469023240803800,5.911803955078125,0.0025670446921139956,-0.01972193270921707,-0.01422884687781334
1761469023250760000,5.921760009765625,0.0004925519460812211,-0.006265868898481131,-0.017768286168575287
1761469023260714800,5.93171484375,-0.0003402185102459043,0.008158876560628414,-0.01707453280687332
1761469023270670800,5.9416708984375,-0.005625652149319649,0.012071982026100159,-0.018599502742290497
1761469023280626000,5.9516259765625,-0.004326562397181988,0.016004936769604683,-0.016467109322547913
1761469023290582000,5.96158203125,-0.004850880708545446,0.011119993403553963,-0.02256777696311474
1761469023300536800,5.971536865234375,-0.0105481818318367,0.01011731382459402,-0.02865922637283802
1761469023310492000,5.981491943359375,-0.017280027270317078,0.009256836026906967,-0.0417923778295517
1761469023320448000,5.991447998046875,-0.020408442243933678,0.009900256060063839,-0.05234621837735176
1761469023330402800,6.00140283203125,-0.021109651774168015,0.018392276018857956,-0.05535239726305008
1761469023340359000,6.01135888671875,-0.021165577694773674,0.019393624737858772,-0.05811089649796486
1761469023350314000,6.02131396484375,-0.018661076202988625,0.013111546635627747,-0.05268023908138275
1761469023360269800,6.031269775390625,-0.013862858526408672,0.0017691438551992178,-0.04089388623833656
1761469023370225000,6.041224853515625,-0.010742592625319958,-0.006352739874273539,-0.02637077122926712
1761469023380180000,6.051179931640625,-0.0024455138482153416,0.0007698843837715685,-0.012056812644004822
1761469023390136000,6.061135986328125,0.005652755498886108,0.02202126383781433,0.001426585833542049
1761469023400091000,6.0710908203125,0.014254232868552208,0.045578524470329285,0.023404855281114578
1761469023410046700,6.081046630859375,0.020210810005664825,0.06294561177492142,0.044283296912908554
1761469023420002000,6.091001953125,0.02842639572918415,0.05838547646999359,0.05829312279820442
1761469023429956900,6.100956787109375,0.03704821318387985,0.05243486166000366,0.06826832890510559
1761469023439912700,6.11091259765625,0.039774756878614426,0.04286213219165802,0.06733036041259766
1761469023449868000,6.120867919921875,0.041197046637535095,0.031382929533720016,0.05197254195809364
1761469023459823900,6.130823974609375,0.035172175616025925,0.02002374641597271,0.026942821219563484
1761469023469778700,6.14077880859375,0.02758520469069481,0.022054318338632584,0.005049142520874739
1761469023479734800,6.15073486328125,0.020349929109215736,0.028143370524048805,-0.01303984597325325
1761469023489689900,6.16068994140625,0.01339566707611084,0.03754206374287605,-0.031026573851704597
1761469023499645000,6.17064501953125,0.012642791494727135,0.04665939509868622,-0.03867597132921219
1761469023509600800,6.180600830078125,0.015441651456058025,0.04474705457687378,-0.04253140464425087
1761469023519555800,6.190555908203125,0.01651224121451378,0.03667687624692917,-0.041301023215055466
1761469023529512000,6.200511962890625,0.017195284366607666,0.030126472935080528,-0.03596974536776543
1761469023539466800,6.210466796875,0.02005631849169731,0.0223857294768095,-0.032586198300123215
1761469023549423000,6.220423095703125,0.028213150799274445,0.013918206095695496,-0.03150069713592529
1761469023559378000,6.2303779296875,0.04106290265917778,0.0018988266820088029,-0.028319019824266434
1761469023569332700,6.240332763671875,0.049398984760046005,-0.018277136608958244,-0.024127691984176636
1761469023579288800,6.250288818359375,0.059151213616132736,-0.02871992439031601,-0.01897767186164856
1761469023589244000,6.260243896484375,0.05810413882136345,-0.03336312249302864,-0.007120396476238966
1761469023599199700,6.27019970703125,0.0561179518699646,-0.030322857201099396,0.010551807470619678
1761469023609154800,6.28015478515625,0.05007404461503029,-0.023681621998548508,0.03397715836763382
1761469023619111000,6.29011083984375,0.04239242523908615,-0.016853809356689453,0.055314403027296066
1761469023629066000,6.30006591796875,0.03685784339904785,-0.0131978215649724,0.06622163951396942
1761469023639020800,6.310020751953125,0.029096592217683792,-0.009669666178524494,0.06942249834537506
1761469023648977000,6.319976806640625,0.020836099982261658,-0.007892274297773838,0.06288842856884003
1761469023658932000,6.329931884765625,0.013562473468482494,-0.009476589038968086,0.053671229630708694
1761469023668887800,6.3398876953125,0.007323853671550751,-0.019286392256617546,0.03585208207368851
1761469023678843000,6.3498427734375,0.003273451467975974,-0.026851367205381393,0.01650421693921089
1761469023688798000,6.3597978515625,-0.0006616491009481251,-0.02249067649245262,-0.00007703201845288277
1761469023698753800,6.36975390625,-0.001205732929520309,-0.021350044757127762,-0.01574254408478737
1761469023708709000,6.379709228515625,-0.0017012180760502815,-0.028330570086836815,-0.02745771035552025
1761469023718665000,6.3896650390625,-0.00047163659473881125,-0.04491833597421646,-0.03598834574222565
1761469023728619800,6.399619873046875,0.0028126456309109926,-0.060302022844552994,-0.040793247520923615
1761469023738576000,6.409575927734375,0.002758051035925746,-0.06351353228092194,-0.0434899628162384
1761469023748531000,6.419531005859375,0.006094035692512989,-0.04992825537919998,-0.04345071315765381
1761469023758485800,6.42948583984375,0.0046873539686203,-0.023791460320353508,-0.039225075393915176
1761469023768441900,6.43944189453125,0.0024460379499942064,-0.010268726386129856,-0.02817002683877945
1761469023778397000,6.44939697265625,-0.0030043874867260456,-0.006057470105588436,-0.00797953736037016
1761469023788353000,6.45935302734375,-0.006025428418070078,-0.0037564137019217014,0.013576952740550041
1761469023798307800,6.469307861328125,-0.00581210944801569,-0.011504348367452621,0.03367023915052414
1761469023808263700,6.479263671875,-0.0004217479727230966,-0.019306685775518417,0.042130544781684875
1761469023818219000,6.489218994140625,0.010298274457454681,-0.020535467192530632,0.0454895906150341
1761469023828173800,6.499173828125,0.010262817144393921,-0.016493752598762512,0.04222869127988815
1761469023838130000,6.5091298828125,0.0064896512776613235,-0.0031329388730227947,0.03540034592151642
1761469023848085000,6.5190849609375,0.001823547761887312,0.009146027266979218,0.031041264533996582
1761469023858040800,6.529040771484375,-0.008000054396688938,0.0056498292833566666,0.02543823979794979
1761469023867996000,6.538995849609375,-0.018308011814951897,-0.0038075284101068974,0.02676793374121189
1761469023877951000,6.548950927734375,-0.02669457346200943,-0.005019799340516329,0.024990273639559746
1761469023887906800,6.55890673828125,-0.03191811218857765,-0.007230989634990692,0.019391102716326714
1761469023897862000,6.56886181640625,-0.039164308458566666,-0.0021267752163112164,0.006262251175940037
1761469023907817700,6.578817626953125,-0.046374399214982986,0.008171217516064644,-0.00960213877260685
1761469023917772800,6.588772705078125,-0.04776297137141228,0.015013677068054676,-0.021683035418391228
1761469023927729000,6.59872900390625,-0.05068829655647278,0.007348076906055212,-0.03224256634712219
1761469023937683700,6.60868359375,-0.05227713659405708,-0.0031240051612257957,-0.03904881328344345
1761469023947639000,6.61863916015625,-0.05095212534070015,0.006242893636226654,-0.032875217497348785
1761469023957595000,6.628594970703125,-0.049417611211538315,0.019765092059969902,-0.024138715118169785
1761469023967549700,6.6385498046875,-0.04809113219380379,0.034782759845256805,-0.023803280666470528
1761469023977506000,6.648506103515625,-0.04720030352473259,0.045553650707006454,-0.027834773063659668
1761469023987460900,6.6584609375,-0.045619674026966095,0.037201568484306335,-0.039177749305963516
1761469023997417000,6.6684169921875,-0.04157646372914314,0.012659475207328796,-0.05056968703866005
1761469024007371800,6.678371826171875,-0.04068487882614136,-0.005691427271813154,-0.054661862552165985
1761469024017326800,6.688326904296875,-0.04130806028842926,-0.0017773793078958988,-0.04632403701543808
1761469024027283000,6.698282958984375,-0.03443901985883713,0.014502659440040588,-0.034931033849716187
1761469024037237800,6.70823779296875,-0.028697773814201355,0.03660663217306137,-0.02176063321530819
1761469024047193900,6.71819384765625,-0.02090863324701786,0.06117236614227295,-0.012877903878688812
1761469024057149000,6.72814892578125,-0.014142605476081371,0.06639561802148819,-0.00925493985414505
1761469024067103700,6.738103759765625,-0.009566713124513626,0.0509350411593914,-0.015339466743171215
1761469024077059600,6.7480595703125,-0.008895330131053925,0.029683813452720642,-0.029763944447040558
1761469024087014400,6.758014404296875,-0.010966910049319267,0.01916857808828354,-0.03384315222501755
1761469024096970500,6.767970458984375,-0.009671282023191452,0.018233276903629303,-0.030157603323459625
1761469024106925600,6.777925537109375,-0.005393006838858128,0.014638285152614117,-0.022806435823440552
1761469024116881700,6.787881591796875,0.004935263656079769,0.012890718877315521,-0.01338151004165411
1761469024126836500,6.79783642578125,0.016902372241020203,0.008752638474106789,-0.0060929493047297
1761469024136791600,6.80779150390625,0.02632570080459118,-0.0025671275798231363,0.002481896663084626
1761469024146747600,6.81774755859375,0.026753995567560196,-0.003544948296621442,0.01649981364607811
1761469024156702500,6.827702392578125,0.027052536606788635,0.016768578439950943,0.03817501664161682
1761469024166658300,6.837658203125,0.024733198806643486,0.035273294895887375,0.05343150347471237
1761469024176613600,6.847613525390625,0.020739255473017693,0.043166641145944595,0.05180404335260391
1761469024186569500,6.857569580078125,0.01917816698551178,0.04086682200431824,0.04042552784085274
1761469024196524500,6.867524658203125,0.01772168278694153,0.02662796713411808,0.02111095003783703
1761469024206479600,6.877479736328125,0.010393505915999413,0.0010260595008730888,-0.0036663408391177654
1761469024216435500,6.887435546875,0.0016801757737994194,-0.02246062457561493,-0.026478445157408714
1761469024226390500,6.897390625,0.001913332613185048,-0.0365789532661438,-0.03496133163571358
1761469024236346400,6.907346435546875,0.0020358378533273935,-0.03567667305469513,-0.03347129374742508
1761469024246301400,6.917301513671875,-0.000031365081667900085,-0.022873355075716972,-0.03257524222135544
1761469024256256500,6.927256591796875,0.002878671046346426,-0.007557248696684837,-0.035019222646951675
1761469024266212400,6.93721240234375,0.008278245106339455,-0.0004008345422334969,-0.03366539627313614
1761469024276167400,6.94716748046875,0.011811461299657822,-0.008356762118637562,-0.02784319594502449
1761469024286123500,6.95712353515625,0.015485751442611217,-0.01911439560353756,-0.022215381264686584
1761469024296078300,6.967078369140625,0.016961941495537758,-0.03552985563874245,-0.01646481826901436
1761469024306034700,6.97703466796875,0.016916316002607346,-0.052504606544971466,-0.011587624438107014
1761469024315989500,6.986989501953125,0.01598447561264038,-0.05205053836107254,-0.0055638207122683525
1761469024325944300,6.9969443359375,0.016156962141394615,-0.041851673275232315,-0.000988165382295847
1761469024335900700,7.006900634765625,0.014534031972289085,-0.017669374123215675,0.0020401151850819588
1761469024345855500,7.01685546875,0.017507581040263176,-0.0011605529580265284,0.00871461071074009
1761469024355811600,7.0268115234375,0.015111269429326057,-0.003362986957654357,0.017483601346611977
1761469024365766400,7.036766357421875,0.013961645774543285,-0.010953474789857864,0.030862197279930115
1761469024375722500,7.046722412109375,0.015396556816995144,-0.022268181666731834,0.03891559690237045
1761469024385677600,7.056677490234375,0.013057941570878029,-0.029882680624723434,0.03662505000829697
1761469024395632400,7.06663232421875,0.014221742749214172,-0.025964105501770973,0.03457149118185043
1761469024405588700,7.076588623046875,0.016951879486441612,-0.013583449646830559,0.034959062933921814
1761469024415543600,7.08654345703125,0.02037137746810913,0.0015286582056432962,0.034961190074682236
1761469024425499400,7.09649951171875,0.02647717110812664,0.00543934665620327,0.029347658157348633
1761469024435454700,7.106454833984375,0.02365049347281456,-0.002619378501549363,0.018175963312387466
1761469024445409500,7.116409423828125,0.02027238719165325,-0.016774162650108337,0.0005692117847502232
1761469024455365400,7.126365478515625,0.018803386017680168,-0.027232129126787186,-0.014079505577683449
1761469024465320700,7.13632080078125,0.012352297082543373,-0.03048376739025116,-0.021555203944444656
1761469024475276500,7.146276611328125,0.007861941121518612,-0.029682422056794167,-0.025749681517481804
1761469024485231400,7.1562314453125,0.005243651568889618,-0.01698405109345913,-0.024476878345012665
1761469024495187500,7.1661875,0.0036398961674422026,-0.003659989219158888,-0.014963800087571144
1761469024505142500,7.176142578125,0.004663500469177961,0.000316458084853366,-0.004954514093697071
1761469024515097600,7.18609765625,0.005724770482629538,-0.006537453271448612,-0.0007906616665422916
1761469024525053400,7.196053466796875,0.007028890307992697,-0.0055312467738986015,0.005182258784770966
1761469024535008500,7.206008544921875,0.004811542574316263,0.005561884492635727,0.0035971449688076973
1761469024544964600,7.215964599609375,-0.003384457202628255,0.008819317445158958,0.0003027713391929865
1761469024554919400,7.22591943359375,-0.012309242971241474,0.0052837044931948185,-0.004952976945787668
1761469024564874500,7.23587451171875,-0.02058284357190132,0.004438008647412062,-0.005493638105690479
1761469024574830600,7.24583056640625,-0.02809242531657219,0.007085990160703659,-0.006200174801051617
1761469024584785400,7.255785400390625,-0.027458619326353073,0.012958901934325695,-0.0038124695420265198
1761469024594741500,7.265741455078125,-0.025960590690374374,0.01383295189589262,0.005031355656683445
1761469024604696600,7.275696533203125,-0.02383728325366974,0.01276056095957756,0.011645564809441566
1761469024614652400,7.28565234375,-0.020464656874537468,0.022714659571647644,0.014874381944537163
1761469024624607500,7.295607421875,-0.016778992488980293,0.02674820087850094,0.012640194036066532
1761469024634562600,7.3055625,-0.016062868759036064,0.022560380399227142,0.0015752926701679826
1761469024644518700,7.3155185546875,-0.018343353644013405,0.01562957465648651,-0.011811865493655205
1761469024654473500,7.325473388671875,-0.019779596477746964,0.00969045888632536,-0.014560513198375702
1761469024664429300,7.33542919921875,-0.024781329557299614,0.0011359872296452522,-0.014368496835231781
1761469024674384600,7.345384521484375,-0.024052422493696213,-0.004131212830543518,-0.014344528317451477
1761469024684339500,7.35533935546875,-0.023895323276519775,-0.00019867888477165252,-0.007656884845346212
1761469024694295300,7.36529541015625,-0.021745620295405388,0.008415848948061466,-0.0038690706714987755
1761469024704250600,7.375250732421875,-0.016012519598007202,0.01302170380949974,-0.000870944932103157
1761469024714206500,7.38520654296875,-0.01112854853272438,0.012759381905198097,-0.0008238069713115692
1761469024724161500,7.39516162109375,-0.007594972383230925,0.00881229992955923,0.0017138778930529952
1761469024734117600,7.40511767578125,-0.005435415077954531,-0.0031775168608874083,-0.0008046734146773815
1761469024744072400,7.415072509765625,-0.00951835885643959,-0.026341024786233902,-0.007526224013417959
1761469024754027500,7.425027587890625,-0.008775336667895317,-0.035509221255779266,-0.011295128613710403
1761469024763983600,7.434983642578125,-0.008251691237092018,-0.023050324991345406,-0.011234535835683346
1761469024773938400,7.4449384765625,-0.010497535578906536,-0.009089767932891846,-0.010214012116193771
1761469024783894500,7.45489453125,-0.012857070192694664,-0.0002340667851967737,-0.006589098833501339
1761469024793849300,7.464849365234375,-0.012573709711432457,-0.0004503154777921736,-0.0022494778968393803
1761469024803804400,7.474804443359375,-0.013675026595592499,-0.007891937159001827,-0.00458939466625452
1761469024813760500,7.484760498046875,-0.015688110142946243,-0.026913298293948174,-0.009556456468999386
1761469024823715300,7.49471533203125,-0.018322179093956947,-0.0380638986825943,-0.016727343201637268
1761469024833671700,7.504671630859375,-0.021901467815041542,-0.041959039866924286,-0.026152003556489944
1761469024843626500,7.51462646484375,-0.02349388785660267,-0.03146796673536301,-0.02704596519470215
1761469024853582600,7.52458251953125,-0.02849503792822361,-0.021546360105276108,-0.01958352141082287
1761469024863537700,7.53453759765625,-0.028010666370391846,-0.016946908086538315,-0.01093980297446251
1761469024873492500,7.544492431640625,-0.02786419168114662,-0.018815914168953896,-0.006507503800094128
1761469024883448600,7.554448486328125,-0.02693931758403778,-0.02175217494368553,-0.0019784923642873764
1761469024893403600,7.564403564453125,-0.020458780229091644,-0.02059289999306202,0.00733910920098424
1761469024903359500,7.574359375,-0.01443866454064846,-0.01309358049184084,0.018945125862956047
1761469024913314600,7.584314453125,-0.009965086355805397,-0.014217168092727661,0.025496501475572586
1761469024923269600,7.59426953125,-0.002942523919045925,-0.01517051924020052,0.028002779930830002
1761469024933225500,7.6042255859375,0.0001989408629015088,-0.01388447917997837,0.02690449357032776
1761469024943180500,7.6141806640625,0.002450650092214346,-0.018985005095601082,0.02145124226808548
1761469024953136400,7.624136474609375,0.0024570415262132883,-0.03779704123735428,0.009644385427236557
1761469024963091700,7.634091796875,-0.0018735723569989204,-0.04969479888677597,-0.0033071651123464108
1761469024973047600,7.644047607421875,-0.0063868314027786255,-0.0401255302131176,-0.00819060392677784
1761469024983002400,7.65400244140625,-0.008528921753168106,-0.027001427486538887,-0.010330021381378174
1761469024992957700,7.663957763671875,-0.012699432671070099,-0.012266690842807293,-0.009217885322868824
1761469025002913500,7.67391357421875,-0.017528504133224487,-0.0038024685345590115,-0.006392947863787413
1761469025012868400,7.683868408203125,-0.023182662203907967,-0.004905816167593002,-0.007065129932016134
1761469025022824400,7.693824462890625,-0.029371222481131554,-0.009456902742385864,-0.011399732902646065
1761469025032779500,7.703779541015625,-0.03192013502120972,-0.006631555501371622,-0.011979502625763416
1761469025042735600,7.713735595703125,-0.03176802769303322,0.002013190183788538,-0.00739251310005784
1761469025052690400,7.7236904296875,-0.029333628714084625,0.005403393879532814,-0.007584261242300272
1761469025062645500,7.7336455078125,-0.025374501943588257,-0.003930392675101757,-0.00995955616235733
1761469025072601300,7.743601318359375,-0.023633327335119247,-0.016633670777082443,-0.014441922307014465
1761469025082556400,7.753556396484375,-0.021828409284353256,-0.012974231503903866,-0.01817917823791504
1761469025092512300,7.76351220703125,-0.019461125135421753,-0.002610274590551853,-0.027122605592012405
1761469025102467300,7.77346728515625,-0.020268496125936508,0.003950905986130238,-0.032865382730960846
1761469025112422400,7.78342236328125,-0.020123885944485664,0.00350615824572742,-0.033830512315034866
1761469025122378200,7.793378173828125,-0.021785762161016464,-0.005234124138951302,-0.03327891230583191
1761469025132333300,7.803333251953125,-0.017508991062641144,-0.009987067431211472,-0.03858765587210655
1761469025142289400,7.813289306640625,-0.011194181628525257,-0.019098028540611267,-0.041162483394145966
1761469025152244200,7.823244140625,-0.007352837827056646,-0.02321181446313858,-0.036469195038080215
1761469025162199600,7.833199462890625,-0.001056905835866928,-0.009105752222239971,-0.023632919415831566
1761469025172155400,7.8431552734375,0.004881410859525204,0.014195309951901436,-0.0035359072498977184
1761469025182110200,7.853110107421875,0.008016268722712994,0.03290654346346855,0.016249246895313263
1761469025192066300,7.86306640625,0.006719842553138733,0.04173945263028145,0.02604355476796627
1761469025202021400,7.873021484375,0.005602328572422266,0.040901221334934235,0.025043273344635963
1761469025211977500,7.8829775390625,0.0019058608449995518,0.03142436221241951,0.014374915510416031
1761469025221932300,7.892932373046875,-0.004601140506565571,0.017124036327004433,-0.008439382538199425
1761469025231887400,7.902887451171875,-0.017042631283402443,-0.003786571091040969,-0.03348667919635773
1761469025241843500,7.912843505859375,-0.02710956707596779,-0.005285909399390221,-0.04943760111927986
1761469025251798300,7.92279833984375,-0.032750144600868225,0.0019424424972385168,-0.051190491765737534
1761469025261754400,7.93275439453125,-0.03012445755302906,0.009203345514833927,-0.04921790957450867
1761469025271709400,7.94270947265625,-0.03139132633805275,0.011454248800873756,-0.04663784056901932
1761469025281664300,7.952664306640625,-0.027878085151314735,0.0019955371972173452,-0.043317779898643494
1761469025291620600,7.96262060546875,-0.022864151746034622,-0.007167068310081959,-0.042789675295352936
1761469025301575400,7.972575439453125,-0.0194162055850029,-0.020032169297337532,-0.04515845328569412
1761469025311531300,7.98253125,-0.017631888389587402,-0.01421342883259058,-0.04654382914304733
1761469025323352300,7.994352294921875,-0.01419594045728445,-0.01612936146557331,-0.04121265187859535
1761469025333308400,8.004308349609374,-0.008250700309872627,-0.011267759837210178,-0.02887449413537979
1761469025343263500,8.014263427734376,-0.003612042870372534,0.0005048466846346855,-0.011159800924360752
1761469025353218300,8.02421826171875,0.0005395591724663973,0.0033818595111370087,0.0015868865884840488
1761469025363174400,8.03417431640625,0.004229249898344278,-0.0004937194753438234,0.006537925451993942
1761469025373129500,8.04412939453125,0.007079897448420525,-0.008461365476250648,0.01248316653072834
1761469025383085600,8.05408544921875,0.011828813701868057,-0.010692495852708817,0.013383297249674797
1761469025393040400,8.064040283203125,0.017635304480791092,-0.01101021096110344,0.02062203362584114
1761469025402995500,8.073995361328125,0.02366119809448719,-0.01207613293081522,0.028689855709671974
1761469025412951600,8.08395166015625,0.028316669166088104,-0.001942538539879024,0.036180529743433
1761469025422906400,8.09390625,0.026489870622754097,0.000019564206013455987,0.03354168310761452
1761469025432862200,8.1038623046875,0.028404152020812035,-0.003290212247520685,0.022800087928771973
1761469025442817500,8.113817626953125,0.03422088176012039,-0.016868725419044495,0.006997732911258936
1761469025452773400,8.1237734375,0.03728458285331726,-0.02995736338198185,-0.0040437327697873116
1761469025462728400,8.133728515625,0.03734399005770683,-0.037988461554050446,-0.012970667332410812
1761469025472683500,8.14368359375,0.036461420357227325,-0.03102749213576317,-0.01548708789050579
1761469025482639400,8.153639404296875,0.03267419710755348,-0.016757383942604065,-0.009348133578896523
1761469025492594400,8.163594482421875,0.019649207592010498,-0.004623755346983671,-0.006287895143032074
1761469025502550300,8.17355029296875,0.003608967177569866,-0.006396550219506025,-0.005084926262497902
1761469025512505300,8.18350537109375,-0.009603241458535194,-0.010713535360991955,0.0005135713145136833
1761469025522460400,8.19346044921875,-0.016189029440283775,-0.012462791055440903,0.01621466688811779
1761469025532416300,8.203416259765625,-0.024193160235881805,-0.015343000181019306,0.024595901370048523
1761469025542371300,8.213371337890624,-0.029520979151129723,-0.00907742977142334,0.02593953162431717
1761469025552327400,8.223327392578126,-0.02878461591899395,-0.00043280964018777013,0.01414678618311882
1761469025562282200,8.2332822265625,-0.026041602715849876,0.004683531355112791,0.0034379884600639343
1761469025572237600,8.243237548828125,-0.027470389381051064,-0.0017426765989512205,-0.002902731765061617
1761469025582193400,8.253193359375,-0.029451722279191017,-0.00832298956811428,0.0020564428996294737
1761469025592148200,8.263148193359376,-0.025788811966776848,-0.002067223656922579,0.014330153353512287
1761469025602104300,8.273104248046875,-0.024912040680646896,0.012782122939825058,0.017301011830568314
1761469025612059400,8.283059326171875,-0.01728980801999569,0.022796940058469772,-0.0005509553011506796
1761469025622015500,8.293015380859375,-0.003185512963682413,0.000025786692276597023,-0.012988694943487644
1761469025631970300,8.30297021484375,-0.001920777722261846,-0.011003428138792515,-0.005201078951358795
1761469025641925400,8.31292529296875,-0.00615317327901721,-0.01857900619506836,0.004218990448862314
1761469025651881500,8.322881591796875,-0.009639251977205276,-0.012677708640694618,0.012622062116861343
1761469025662459400,8.33345947265625,-0.009930199012160301,-0.007812798023223877,0.019018629565835
1761469025672414200,8.343414306640625,-0.006447050254791975,-0.005416485946625471,0.013832123018801212
1761469025682370300,8.353370361328125,0.00003609142731875181,-0.0014585882890969515,0.012761429883539677
1761469025692325400,8.363325439453124,0.0026832735165953636,-0.006387300323694944,0.0071336375549435616
1761469025702281500,8.373281494140626,-0.00353488908149302,-0.017682434991002083,-0.008321753703057766
1761469025712236300,8.383236328125,-0.004873394034802914,-0.022341368719935417,-0.025117510929703712
1761469025722192400,8.3931923828125,-0.01882329210639,-0.007273774594068527,-0.033597975969314575
1761469025732147500,8.4031474609375,-0.029500704258680344,0.003538659540936351,-0.04249453544616699
1761469025742102300,8.413102294921876,-0.04232831671833992,0.0018842009594663978,-0.04793285205960274
1761469025752058400,8.423058349609375,-0.04823014885187149,-0.006891980301588774,-0.048591453582048416
1761469025762013400,8.433013427734375,-0.039976008236408234,-0.00002454087371006608,-0.03883996233344078
1761469025771969300,8.44296923828125,-0.031430989503860474,0.00781953427940607,-0.02434490993618965
1761469025781924600,8.452924560546874,-0.0263008214533329,0.009636488743126392,-0.009688956663012505
1761469025791879400,8.46287939453125,-0.02472636103630066,0.012607244774699211,0.009841334074735641
1761469025801835300,8.472835205078125,-0.0167535413056612,0.019448023289442062,0.021569302305579185
1761469025811790600,8.48279052734375,-0.012421377003192902,0.020540188997983932,0.03062964230775833
1761469025821746400,8.492746337890624,-0.01094899419695139,0.013415677472949028,0.031467124819755554
1761469025831701200,8.502701171875,-0.010332472622394562,-0.0004719083954114467,0.027899552136659622
1761469025841657300,8.5126572265625,-0.013548431918025017,-0.015414845198392868,0.0182141475379467
1761469025851612400,8.5226123046875,-0.010601378045976162,-0.015461450442671776,0.006413946393877268
1761469025861567500,8.5325673828125,-0.006446510087698698,-0.006026922259479761,-0.003239965997636318
1761469025871523300,8.5425234375,-0.005575656425207853,0.010548059828579426,-0.005849597044289112
1761469025881478400,8.552478515625,-0.007391363848000765,0.02568802610039711,-0.008018353953957558
1761469025891434500,8.5624345703125,-0.011056140065193176,0.03249586373567581,-0.007102226372808218
1761469025901389300,8.572389404296874,-0.024384625256061554,-0.0007600949611514807,-0.011121474206447601
1761469025911344400,8.582344482421876,-0.01455170288681984,-0.0046656206250190735,-0.01098884828388691
1761469025921300500,8.592300537109375,-0.00588194839656353,0.0002848803123924881,-0.018868811428546906
1761469025931255300,8.60225537109375,-0.005423085764050484,0.01075323298573494,-0.022037174552679062
1761469025941211400,8.61221142578125,-0.007160250097513199,0.01501346006989479,-0.01787451282143593
1761469025951166500,8.62216650390625,-0.012952625751495361,0.00320100924000144,-0.013506129384040833
1761469025961122300,8.632122314453126,-0.012413032352924347,0.0046137128956615925,-0.009291021153330803
1761469025971077400,8.642077392578125,-0.016369158402085304,0.004759920760989189,-0.003469085320830345
1761469025981032400,8.652032470703125,-0.013705265708267689,0.0039499541744589806,0.0004570733290165663
1761469025990988500,8.661988525390624,-0.008325680159032345,0.004891382064670324,0.005167672410607338
1761469026000943400,8.671943359375,-0.0021890008356422186,0.0074846441857516766,0.012582484632730484
1761469026010899200,8.681899169921875,0.002832123078405857,0.0038283902686089277,0.016302388161420822
1761469026020854500,8.6918544921875,0.0038320315070450306,0.0027477217372506857,0.02169971540570259
1761469026030810400,8.701810302734375,0.0058088963851332664,0.009846378117799759,0.02717490866780281
1761469026040765200,8.71176513671875,0.008518677204847336,0.010210666805505753,0.03406784310936928
1761469026050720500,8.721720458984375,0.007627849467098713,0.015394776128232479,0.03809800744056702
1761469026060676400,8.73167626953125,0.010406261309981346,0.016146302223205566,0.04071265459060669
1761469026070631200,8.741631103515624,0.009772961027920246,0.014656264334917068,0.0313391238451004
1761469026080587300,8.751587158203124,0.005431462544947863,0.008131248876452446,0.019050462171435356
1761469026090542300,8.761542236328125,-0.0031471122056245804,0.0027940075378865004,0.007769045885652304
1761469026100497200,8.7714970703125,-0.011730082333087921,0.001470036106184125,-0.0009250291623175144
1761469026110453200,8.781453369140625,-0.024743618443608284,0.0010977261699736118,-0.009381631389260292
1761469026120408300,8.791408203125,-0.033208221197128296,0.007551091723144054,-0.018216436728835106
1761469026130364400,8.801364501953126,-0.04295938462018967,0.010281364433467388,-0.024173129349946976
1761469026140319200,8.8113193359375,-0.05193532258272171,0.017463713884353638,-0.02769487537443638
1761469026150275300,8.821275390625,-0.05153718218207359,0.04314856976270676,-0.022149641066789627
1761469026160230400,8.83123046875,-0.048717547208070755,0.05344633385539055,-0.016874229535460472
1761469026170185200,8.841185302734376,-0.05575069040060043,0.058236028999090195,-0.02275661937892437
1761469026180141300,8.851141357421875,-0.059545956552028656,0.04289645329117775,-0.029322003945708275
1761469026190096400,8.861096435546875,-0.05859920009970665,0.03580312430858612,-0.03132683038711548
1761469026200052200,8.87105224609375,-0.05290266498923302,0.02264491096138954,-0.0353255495429039
1761469026210007300,8.88100732421875,-0.042129114270210266,0.007076337933540344,-0.040649477392435074
1761469026219962400,8.89096240234375,-0.028130894526839256,-0.0023449421860277653,-0.048931170254945755
1761469026229918200,8.900918212890625,-0.015309903770685196,-0.009770101867616177,-0.05125024914741516
1761469026239873500,8.91087353515625,-0.0058251661248505116,-0.0009576582815498114,-0.03923390433192253
1761469026249829400,8.920829345703124,-0.00922602228820324,-0.02969183400273323,-0.025093315169215202
1761469026259784200,8.9307841796875,-0.0029423562809824944,-0.02259483002126217,-0.009150509722530842
1761469026269740300,8.940740234375,0.0012167025124654174,-0.010136829689145088,-0.0049475086852908134
1761469026279695400,8.9506953125,0.00934337917715311,-0.002496894681826234,-0.00296455854550004
1761469026289650200,8.960650146484374,0.01623324304819107,-0.005146473180502653,-0.006617083679884672
1761469026299606300,8.970606201171876,0.018774114549160004,-0.011974683031439781,-0.007118821144104004
1761469026309561300,8.980561279296875,0.013580418191850185,-0.025830311700701714,0.00021845404990017414
1761469026319517400,8.990517333984375,0.010272342711687088,-0.016357984393835068,0.019089076668024063
1761469026329472300,9.00047216796875,0.0043497392907738686,0.0067159091122448444,0.037573546171188354
1761469026339427300,9.01042724609375,0.0012936361599713564,0.021752726286649704,0.04223942756652832
1761469026349383400,9.020383544921875,0.0013173383194953203,0.02666838839650154,0.03152047097682953
1761469026359338200,9.030338134765625,0.00003947498043999076,0.017229590564966202,0.02505609579384327
1761469026369294300,9.04029443359375,-0.0024902615696191788,0.0025177563074976206,0.019773447886109352
1761469026379249400,9.05024951171875,0.0036916977260261774,-0.00800721999257803,0.010685822926461697
1761469026389205200,9.060205322265626,0.012135249562561512,-0.011340431869029999,0.00014423229731619358
1761469026399160300,9.070160400390625,0.020039323717355728,-0.008808809332549572,-0.0062078568153083324
1761469026409115400,9.080115478515625,0.020432407036423683,0.00143503921572119,-0.0004016328603029251
1761469026419071200,9.0900712890625,0.015438331291079521,0.00912739522755146,0.007447829004377127
1761469026429026300,9.1000263671875,0.007546853739768267,0.019100135192275047,0.014967264607548714
1761469026438982100,9.109982177734375,0.007869471795856953,0.02489805966615677,0.017151689156889915
1761469026448937500,9.1199375,0.006413521245121956,0.01755465939640999,0.012809671461582184
1761469026458892300,9.129892333984374,0.008534557186067104,0.015885911881923676,0.009189330041408539
1761469026468848000,9.13984814453125,0.007817900739610195,0.018283821642398834,0.00401880219578743
1761469026478803500,9.149803466796875,0.009572720155119896,0.023046674206852913,-0.005537211894989014
1761469026488759300,9.15975927734375,0.00708612659946084,0.02550290711224079,-0.010270713828504086
1761469026498714000,9.169714111328124,0.0014936034567654133,0.01722332462668419,-0.00813731737434864
1761469026508670200,9.179670166015624,-0.005314235109835863,0.011475689709186554,-0.0019313525408506393
1761469026518625300,9.189625244140625,-0.004890949930995703,0.012507088482379913,0.00523451529443264
1761469026528580000,9.199580078125,-0.004007579758763313,0.019310932606458664,0.017349768429994583
1761469026538536200,9.2095361328125,-0.0065398854203522205,0.023754138499498367,0.033209383487701416
1761469026548491300,9.2194912109375,-0.00919505674391985,0.020673660561442375,0.03450927138328552
1761469026558447400,9.229447265625,-0.008346344344317913,0.014991910196840763,0.028516773134469986
1761469026568402200,9.239402099609375,-0.006476805079728365,0.0029168715700507164,0.01932886615395546
1761469026578357200,9.249357177734375,-0.002525739371776581,0.012060302309691906,0.022834651172161102
1761469026588313300,9.259313232421874,-0.001240764046087861,0.01933552511036396,0.02666614204645157
1761469026598268200,9.26926806640625,0.002002355409786105,0.015686174854636192,0.029584616422653198
1761469026608224500,9.279224609375,0.0012920903973281384,0.02143833599984646,0.029802462086081505
1761469026618179300,9.289179443359375,0.0034853348042815924,0.024883819743990898,0.031641457229852676
1761469026628134100,9.299134033203124,0.0031649565789848566,0.019387854263186455,0.03255705162882805
1761469026638090500,9.309090576171876,0.002019311534240842,0.011554518714547157,0.03318748623132706
1761469026648045300,9.31904541015625,0.0008901311666704714,0.007479882333427668,0.036775827407836914
1761469026658001200,9.329001220703125,0.00440094992518425,0.013594342395663261,0.03851931542158127
1761469026667956500,9.33895654296875,0.0021942544262856245,0.01193439494818449,0.0352683961391449
1761469026677912300,9.348912353515624,0.00012987107038497925,0.007721491623669863,0.025475215166807175
1761469026687867400,9.358867431640626,-0.002418241463601589,-0.005377532914280891,0.011893893592059612
1761469026697822200,9.368822265625,0.002081377897411585,-0.00896383821964264,-0.0009799296967685223
1761469026707778300,9.3787783203125,0.0035716830752789974,-0.008941734209656715,-0.013317289762198925
1761469026717733400,9.3887333984375,0.001088948454707861,0.005438423249870539,-0.015353195369243622
1761469026727689200,9.398689208984376,-0.0010474392911419272,0.02072257176041603,-0.01395636796951294
1761469026737644300,9.408644287109375,-0.0021092621609568596,0.03615432605147362,-0.008967714384198189
1761469026747599400,9.418599365234375,-0.006379374302923679,0.04051685333251953,-0.004469102248549461
1761469026757555200,9.42855517578125,-0.009265055879950523,0.033862825483083725,0.004890087991952896
1761469026767510500,9.438510498046876,-0.01156655978411436,0.01812807098031044,0.013585841283202171
1761469026777466400,9.44846630859375,-0.010691559873521328,0.024695774540305138,0.022440381348133087
1761469026787421200,9.458421142578125,-0.008189519867300987,0.0379580482840538,0.02281402237713337
1761469026797377300,9.468377197265625,-0.007356943096965551,0.025850046426057816,0.015242633409798145
1761469026807332400,9.478332275390626,-0.007085300516337156,-0.0012817048700526357,0.004942857660353184
1761469026817287200,9.488287109375,-0.005987946875393391,-0.013213579542934895,-0.0015887301415205002
1761469026827243300,9.4982431640625,-0.007575191091746092,-0.01424102671444416,-0.005777349695563316
1761469026837198300,9.5081982421875,-0.005062436684966087,-0.018840251490473747,-0.017240185290575027
1761469026847154400,9.518154541015624,-0.0018509305082261562,-0.025878187268972397,-0.036424003541469574
1761469026857109200,9.528109130859375,-0.0035378593020141125,-0.03848158195614815,-0.06178440526127815
1761469026867064300,9.538064208984375,-0.0026630109641700983,-0.04744764789938927,-0.0778011903166771
1761469026877020400,9.5480205078125,-0.012485017068684101,-0.04840528219938278,-0.10098597407341003
1761469026886975200,9.557975341796874,-0.010187774896621704,-0.005093494430184364,-0.1058020293712616
1761469026896931300,9.567931396484376,-0.023516107350587845,0.050705548375844955,-0.06764845550060272
1761469026906886400,9.577886474609375,-0.043723370879888535,0.05975523591041565,-0.004405573010444641
1761469026916841200,9.58784130859375,-0.046020373702049255,0.09745106101036072,0.06577236205339432
1761469026926797300,9.59779736328125,-0.04805396497249603,0.11575976014137268,0.08940232545137405
1761469026936752400,9.60775244140625,-0.03545650839805603,0.10792288184165955,0.06964224576950073
1761469026946708200,9.617708251953125,-0.011518152430653572,0.07474202662706375,0.03616311401128769
1761469026956663300,9.627663330078125,0.006514700595289469,0.026925595477223396,0.009451178833842278
1761469026966619100,9.637619140625,0.016840042546391487,-0.017386209219694138,0.00681651383638382
1761469026976574200,9.64757421875,0.012824742123484612,-0.038149941712617874,0.0279548242688179
1761469026986529300,9.657529296875,0.0160684734582901,-0.05642108991742134,0.02722804807126522
1761469026996485000,9.667485107421875,0.018803799524903297,-0.027001911774277687,0.012376027181744576
1761469027006440400,9.6774404296875,0.015188293531537056,0.011576106771826744,-0.008764412254095078
1761469027016396300,9.687396240234374,-0.0026648500934243202,0.04167599603533745,-0.016414709389209747
1761469027026351000,9.69735107421875,-0.02158927172422409,0.017348552122712135,0.004434379283338785
1761469027036306400,9.707306396484375,-0.02478685788810253,0.0062735904939472675,0.02454495243728161
1761469027046262300,9.71726220703125,-0.01265642512589693,0.015881210565567017,0.02472791075706482
1761469027056217000,9.727217041015624,-0.003591003827750683,0.020879626274108887,0.0010523900855332613
1761469027066183700,9.73718359375,0.021292774006724358,0.014329049736261368,-0.024680670350790024
1761469027076139000,9.747138916015626,0.032910529524087906,-0.016797373071312904,-0.05312453955411911
1761469027086094800,9.7570947265625,0.03166257217526436,-0.028836192563176155,-0.07090859860181808
