time,seconds_elapsed,z,y,x
1761468884242384400,0.05938427734375,-0.1808960808545351,-0.0456771708086133,0.05450765259396285
1761468884252340200,0.06934033203125,-0.44149756658673284,-0.04070047837458551,-0.14999036272019148
1761468884262296300,0.07929638671875,-0.583002717295289,-0.021782938871532678,-0.2476205332038924
1761468884272252400,0.08925244140625,-0.6257575709164143,-0.007381196292489766,-0.18805179782807827
1761468884282207200,0.099207275390625,-0.5620376706779003,-0.0031306261759251356,0.002464234689064324
1761468884292163300,0.109163330078125,-0.40986850261390206,0.07554448580592871,0.21097353147119283
1761468884302119200,0.119119140625,-0.30439094309806825,0.14553922853022813,0.27433069934453813
1761468884312074500,0.129074462890625,-0.23730361225306987,0.13518909942954777,0.23585162334647028
1761468884322030300,0.1390302734375,-0.14476678285300731,0.10742862051837146,0.18785393716841936
1761468884331986400,0.148986328125,-0.0960077203810215,0.03330306159965694,0.1388448454581201
1761468884341941200,0.158941162109375,-0.0592079757720232,-0.00600194382853806,0.10166552694700658
1761468884351897300,0.1688974609375,-0.011288286733627318,-0.0070843322377651926,0.04912037006504833
1761468884361853400,0.178853515625,-0.020000585499405858,-0.028464316331595182,-0.0054027358263731
1761468884371808300,0.188808349609375,-0.08407938217818736,-0.049190585757046934,-0.05740034182816744
1761468884381764400,0.198764404296875,-0.04530512262582779,-0.023635288739949464,-0.1050903868291527
1761468884391720200,0.20872021484375,0.009827566531300545,-0.036092984579131,-0.12313435836806892
1761468884401675300,0.21867529296875,-0.019301497319340704,-0.037314854524284596,-0.10556260745078325
1761468884411631400,0.22863134765625,-0.05324000727832317,-0.03481178566217422,-0.12016034752596169
1761468884421587200,0.238587158203125,-0.04612286874949932,-0.01774316196143627,-0.13211203007176517
1761468884431543300,0.248543212890625,0.010815993046760558,-0.02764109031520784,-0.16185970074478537
1761468884441498400,0.258498291015625,0.11733049439489841,-0.05236103248670697,-0.17459771136268973
1761468884451454500,0.268454345703125,0.20636369958817957,-0.11355857464075088,-0.14452354868166148
1761468884461410300,0.278410400390625,0.20166531263887882,-0.12883410437963902,-0.09681103612054139
1761468884471365400,0.288365478515625,0.06627192280888557,-0.13916720928028226,-0.08176957086585461
1761468884481321200,0.2983212890625,-0.04007189814746379,-0.10599040440879762,-0.07103804123215376
1761468884491277600,0.308277587890625,-0.04969020584225654,-0.04981149413436651,-0.04732544947229325
1761468884501232400,0.318232421875,-0.0225128605812788,-0.029917072423174977,-0.011400807197391985
1761468884511188200,0.328188232421875,0.045505029112100595,-0.005796338253840804,0.06846570652611553
1761468884521144300,0.338144287109375,0.09521920035183429,0.0013861205961555243,0.12457356085833161
1761468884531099400,0.348099365234375,0.0390782109349966,0.006300488383695482,0.11055077112689614
1761468884541055500,0.358055419921875,-0.07288286538124084,0.005772738182544708,0.09255414586104452
1761468884551011300,0.36801123046875,-0.15611235273182392,0.02788812387883663,0.05102518077306449
1761468884560967400,0.377967529296875,-0.17202771474421022,0.029309023527428507,0.0484463797936216
1761468884570922500,0.387922607421875,-0.17857202182114124,0.006597060177475213,0.029408721042238174
1761468884580878300,0.39787841796875,-0.11034370424747467,0.021381591529026626,0.013593129609897732
1761468884590834400,0.40783447265625,-0.0592424625635147,0.008251037929579616,0.029514263775944707
1761468884600789200,0.417789306640625,-0.09370645770132541,-0.009561170680075884,0.03447170352023095
1761468884610745300,0.427745361328125,-0.14816928477287292,0.02749203723333776,0.014337335573323071
1761468884620701400,0.437701416015625,-0.10731938799023627,0.03526252510435879,0.02369447158128023
1761468884630656300,0.44765625,0.002242225968837738,0.011083850202709435,0.04633958024010062
1761468884640612400,0.4576123046875,0.12936404653787612,0.012260785027593374,0.032242958087474106
1761468884650568200,0.467568115234375,0.19134908580780027,-0.03198679136931896,0.035731750051304696
1761468884660523500,0.4775234375,0.245065478426218,-0.06348835650496185,0.0009906550051644444
1761468884670479400,0.487479248046875,0.27359949899315833,-0.06500804035291076,-0.04047974829599261
1761468884680435500,0.497435546875,0.19698855299949644,-0.06399886331036686,-0.03688661917485297
1761468884690391300,0.507391357421875,0.05367196895480156,-0.030606735187768935,-0.07969864634331315
1761468884700346000,0.51734619140625,0.016085457882285117,-0.04057780184298754,-0.15179269943442195
1761468884710302500,0.527302490234375,0.03995207116007805,-0.07349719788730144,-0.1649553652051836
1761468884720258300,0.53725830078125,0.047608723393082614,-0.08044877059087156,-0.1411895088881254
1761468884730213400,0.54721337890625,0.03498655770719051,-0.0641051001638174,-0.08562781719658523
1761468884740169200,0.557169189453125,-0.03664601535201072,-0.035543241741880775,-0.046024559474177655
1761468884750125300,0.567125244140625,-0.13656009552180767,-0.007694646155834197,-0.00254157424159348
1761468884760080400,0.577080322265625,-0.19906185214221475,0.018273688641563056,-0.004585355028882622
1761468884770036200,0.5870361328125,-0.22112989156544208,0.04808540099412203,-0.010328538323380052
1761468884779992300,0.596992431640625,-0.18659984545409677,0.053805313010886306,0.029661745955236254
1761468884789947400,0.606947509765625,-0.11998773090541362,0.02419058453515172,0.03755735804326832
1761468884799903500,0.616903564453125,-0.018241759133338926,-0.0034643151096999643,0.046650765081122515
1761468884809859300,0.626859375,0.08822013524472713,-0.004163622485473752,0.049831733204796905
1761468884819815400,0.6368154296875,0.15425065051317213,-0.003897665025666356,0.04589870460480451
1761468884829770200,0.646770263671875,0.15061141722798346,-0.025986308845505117,0.05845134871844202
1761468884839726300,0.656726318359375,0.11287468402981757,-0.025613968401774764,0.030955475560203193
1761468884849682400,0.666682373046875,0.09333879343271255,-0.020178572414815424,0.026708558705449102
1761468884859637200,0.67663720703125,0.08308511044383049,0.010598477838560938,0.05009549870751798
1761468884869593300,0.68659326171875,0.05996142448782921,0.021749986450001597,0.06503090977184474
1761468884879549200,0.696549072265625,0.041375966483354565,0.030750016115978357,0.05623685100674629
1761468884889504500,0.70650439453125,0.019016835159063338,0.03466412081979215,0.046206163118779654
1761468884899460400,0.71646044921875,-0.04041501249670982,0.017995602352544663,0.01705185522902757
1761468884909416400,0.72641650390625,-0.15412088665366172,0.020693317003920672,-0.03203373578358441
1761468884919372300,0.736372314453125,-0.17631459828317164,0.030526582623645663,-0.05123699689283967
1761468884929328000,0.746328125,-0.13101824348568916,0.005727145475149155,-0.0327681510053575
1761468884939284000,0.756283935546875,-0.061358431804180144,-0.0158470460165292,0.002554981712438166
1761468884949240300,0.766240234375,0.03177987062036991,-0.021825170578062533,0.04511204773914069
1761468884959195100,0.776195068359375,0.10500409678518771,-0.021069237644225358,0.07862535455599427
1761468884969151000,0.78615087890625,0.06733867525756358,-0.019952581639215348,0.06502849861904979
1761468884979107000,0.796107177734375,-0.018190905728936193,-0.006692994832620024,0.032680143928341565
1761468884989062100,0.806062255859375,-0.060606736654043196,-0.0009941986691206692,0.000994783191010356
1761468884999018200,0.816018310546875,-0.030839374899864196,-0.017745353918522597,-0.04375033093187958
1761468885008974000,0.82597412109375,0.049886605197191236,-0.059469549317657945,-0.052137160602957006
1761468885018929200,0.83592919921875,0.11710253085792063,-0.0850807412404567,-0.1022313806688413
1761468885028885200,0.84588525390625,0.1411906779319048,-0.11287724131308495,-0.10126775980107486
1761468885038841300,0.85584130859375,0.10073299533724785,-0.11915873273536562,-0.09246230285912752
1761468885048797200,0.865797119140625,0.06510112546384335,-0.10882628542184829,-0.06339077788200229
1761468885058752000,0.875751953125,0.024818214914202687,-0.11942132919430733,-0.029325097879394888
1761468885068708000,0.8857080078125,-0.036347909188270563,-0.12083470312356948,0.020795535269379616
1761468885078664200,0.895664306640625,-0.05899988597929477,-0.10868468499407172,0.0416144879469648
1761468885088619300,0.905619384765625,-0.07293664139509201,-0.10574841234646737,0.046494405475631356
1761468885098575000,0.9155751953125,-0.06735445734858513,-0.12709062171317637,0.04681592904757708
1761468885108531200,0.92553125,-0.02474456515610218,-0.1388448454581201,0.06536174916140734
1761468885118486300,0.935486328125,-0.06870704100131989,-0.12632453271150587,0.05299969571642577
1761468885128442000,0.945442138671875,-0.1275315704137087,-0.08953143703900276,0.07375650641061365
1761468885138398200,0.955398193359375,-0.15048632954359054,-0.025182664312422273,0.054944144315086305
1761468885148353000,0.96535302734375,-0.12290858678817748,-0.019889307144656775,0.04110441953297704
1761468885158309000,0.97530908203125,-0.09597206454575061,-0.005869988011941313,0.07305822194814682
1761468885168265200,0.98526513671875,-0.03826397194266319,0.020892127511650323,0.08029511439912021
1761468885178221300,0.99522119140625,0.035651159095764155,0.03519917754456401,0.05648625919055193
1761468885188176100,1.005176025390625,0.11354513063728809,0.04754676407277584,0.038602008257992565
1761468885198132000,1.015132080078125,0.18962474623322487,0.04844327452108264,0.015493044947087763
1761468885208088000,1.025088134765625,0.19815525869131087,0.04800334873385727,0.011758753789588808
1761468885218043100,1.035043212890625,0.10751228021383284,0.06235876795314252,-0.044993682056479155
1761468885227999200,1.044999267578125,0.033357495200634,0.06291457520499825,-0.07571914825309067
1761468885237955000,1.054955078125,0.041698038044571874,0.05658413007445633,-0.08654332460630684
1761468885247910100,1.06491015625,0.0749064801633358,0.05038198749870062,-0.07680493419580162
1761468885257866200,1.0748662109375,0.10433131209015846,0.0018008388768881558,-0.08362656037677078
1761468885267822000,1.084822021484375,0.16708967382013798,-0.023330898965895176,-0.10975834210757165
1761468885277778200,1.094778076171875,0.15256839651465415,-0.04175181405842304,-0.09644622139614074
1761468885287733000,1.10473291015625,0.0473480266302824,-0.0670721332758665,-0.11028203718811273
1761468885297689000,1.114689208984375,-0.11737257997095585,-0.04171630435362458,-0.14120748293623328
1761468885307645200,1.124645263671875,-0.2539624861091375,-0.028851927409693598,-0.12728424458913504
1761468885317600000,1.13460009765625,-0.37862171595692634,-0.01344378426708281,-0.12278233006000518
1761468885327556000,1.14455615234375,-0.3656073360830545,0.012931085504591464,-0.16051840567104517
1761468885337512000,1.154511962890625,-0.2077963627398014,-0.009219371505081652,-0.13376418119296432
1761468885347467300,1.16446728515625,-0.003428220883011818,-0.050153731700778005,-0.09596472148951142
1761468885357423000,1.174423095703125,0.10625146649777889,-0.08431092591173947,-0.07804240356888621
1761468885367379200,1.184379150390625,0.12992343398630618,-0.04430712456442416,-0.04187186024151742
1761468885377334000,1.194333984375,0.05936813476979732,0.009945786083489656,-0.0006203969206660985
1761468885387290000,1.2042900390625,0.004008651119470596,0.04078961796276271,0.008200586383976041
1761468885397246200,1.21424609375,-0.0036941783428192138,0.057539969494566315,0.04635802921224385
1761468885407202300,1.224202392578125,0.019150690671801567,0.042492841684073204,0.06118183312825858
1761468885417157000,1.2341572265625,0.05485796386897564,0.02709887319728732,0.038707514459080994
1761468885427113000,1.244113037109375,0.0422504112303257,0.016977730546891688,0.04858392510078847
1761468885437069000,1.254069091796875,0.006318681627511978,0.006679623894393444,0.011863967729732394
1761468885447024000,1.264024169921875,-0.012964110991358756,-0.017309300588816405,-0.030543497225828466
1761468885456980200,1.273980224609375,-0.0072702832639217375,-0.0328282106295228,-0.05268496721144765
1761468885466936000,1.28393603515625,-0.004782558101415634,-0.041579307035729283,-0.04348777100555599
1761468885476891100,1.29389111328125,-0.027180852392315862,-0.024086539638787506,-0.04243263592943549
1761468885486847200,1.30384716796875,-0.03283259454369545,-0.01452500363253057,-0.011339322801120578
1761468885496803000,1.313802978515625,-0.044193361991643906,0.00996478304490447,-0.008903985412977636
1761468885506758100,1.323758056640625,-0.06068097093403339,0.034216961574181914,-0.027220234554633498
1761468885516714000,1.3337138671875,-0.01849777972102165,0.017177783163636922,-0.06921499052345752
1761468885526670300,1.34367041015625,0.07868132252693176,0.01010952527783811,-0.098670254121162
1761468885536626200,1.353626220703125,0.10713760168254374,0.0036648791830986736,-0.08219389722514897
1761468885546581000,1.3635810546875,0.08283493507504462,0.022615224977210163,-0.05084511149842292
1761468885556537000,1.373537109375,0.058738020172715184,0.06727978467717767,0.0026478841602802275
1761468885566493000,1.383492919921875,0.035143209573626516,0.0847661953985691,0.03383709541112184
1761468885576448300,1.3934482421875,0.012327566653490066,0.05648848768025636,0.02826232748609036
1761468885586404000,1.403404052734375,-0.002696399477124214,0.04864654200822115,0.011101531989872454
1761468885596360200,1.413360107421875,-0.009806523743271827,0.04214234774596989,0.022140447072312233
1761468885606315000,1.42331494140625,-0.06276128433942794,0.061301733180880544,0.05871902321130037
1761468885616271000,1.43327099609375,-0.1232908641040325,0.07632591850720345,0.06984174411967396
1761468885626227200,1.443227294921875,-0.12975450716018677,0.06630611733943223,0.030608233025111255
1761468885636183000,1.45318310546875,-0.07026771444678306,0.0022234482031315565,0.00881382291149348
1761468885646138000,1.46313818359375,0.033145898276567456,-0.03505589661635458,-0.021211970583163202
1761468885656094000,1.473093994140625,0.10962649588882922,-0.06828852332830429,-0.019224340429902075
1761468885666050300,1.48305029296875,0.14657470905780792,-0.09424063764326274,0.01635262091848999
1761468885676005000,1.493005126953125,0.10950374629199504,-0.08219144953973591,0.04948226218000054
1761468885685961200,1.502961181640625,0.03306815686523914,-0.06920951063074171,0.06138952106218785
1761468885695917000,1.5129169921875,-0.06813479407131671,-0.05871266653575003,0.037653036970086394
1761468885705872100,1.5228720703125,-0.1681166787803173,-0.048902197269722815,0.03266359465233981
1761468885715828200,1.532828125,-0.2038660375535488,-0.044763416964560744,0.05278974276017397
1761468885725784000,1.5427841796875,-0.17741759108901023,-0.05222717697396874,0.03498188153207302
1761468885735739100,1.5527392578125,-0.09069383188188075,-0.07334485686980187,0.060290254583396014
1761468885745695200,1.5626953125,-0.007437456524372101,-0.09561609071493148,0.04633311396669596
1761468885755651300,1.5726513671875,0.016543138521909712,-0.08731865636035799,0.04552187064904719
1761468885765607200,1.582607177734375,-0.0001771101325750351,-0.081954425913468,0.02440251025278121
1761468885775562000,1.59256201171875,-0.0339455242216587,-0.052865767138451335,0.03836907628495246
1761468885785518000,1.60251806640625,-0.013864859223365783,-0.039773426657542583,0.04089154396727681
1761468885795474200,1.61247412109375,-0.0018605331748723982,0.00030278233885765074,0.06420381129793823
1761468885805429200,1.62242919921875,-0.009448796346783637,0.006210910404101014,0.06692578360773623
1761468885815385000,1.632385009765625,-0.03634907823204994,0.013761691109836102,0.06354600497633218
1761468885825341200,1.642341064453125,-0.031416298004984855,0.01811784049272537,0.07076744412984698
1761468885835296300,1.652296142578125,0.004615384840965271,-0.0008512830670922994,0.029295104599930344
1761468885845252000,1.662252197265625,0.005615501794219017,-0.030679362032562493,0.0030403540765866635
1761468885855208200,1.672208251953125,0.008258125257492066,-0.03779160519056022,-0.02085471811071038
1761468885865163000,1.6821630859375,0.010009937360882758,-0.04853942837193608,-0.03851663152948022
1761468885875119000,1.692119140625,-0.02293196277618408,-0.07209566052630544,-0.05098561594765633
1761468885885075200,1.7020751953125,-0.049561026504635806,-0.059190659311041234,-0.036456374531425535
1761468885895031300,1.71203125,-0.040887890705466265,-0.054106999371200795,-0.039723669231683016
1761468885904986000,1.721986083984375,-0.03001169190406799,-0.05953837677016854,-0.02424494507089257
1761468885914942000,1.73194189453125,-0.00428863710463047,-0.10528839361928402,-0.0164876820076257
1761468885924898000,1.74189794921875,-0.022395371681451795,-0.08524031571634114,0.016372567727975545
1761468885934852000,1.75185205078125,-0.011194763231277466,-0.05078004690557718,0.04751099863965064
1761468885944808200,1.76180810546875,-0.0146919576972723,-0.027142858469486233,0.06853895442541688
1761468885954764000,1.771763916015625,-0.052068625411391255,-0.04091280595101416,0.07660261655673384
1761468885964719400,1.78171923828125,-0.06795768393874169,-0.05214731667079031,0.04767897561769932
1761468885974675200,1.79167529296875,-0.04034136273860931,-0.03351860404647886,0.03864058670271188
1761468885984631300,1.80163134765625,0.011677578312158585,-0.04497121449634432,0.032609307181835176
1761468885994586000,1.811586181640625,0.07663958756625652,-0.05402122078388929,0.03486300439275801
1761468886004542200,1.821542236328125,0.09535714751780032,-0.06940693289898335,0.030066052439808845
1761468886014498300,1.831498291015625,0.1332382576227188,-0.08083462810330093,0.018103556239046154
1761468886024454100,1.8414541015625,0.14312719895243645,-0.0687597941018641,0.03993508349265903
1761468886034409200,1.8514091796875,0.16047230150699615,-0.06736410195976496,0.04380881965346634
1761468886044365000,1.861364990234375,0.1420569393724203,-0.032080168741196395,0.026526626267284154
1761468886054321400,1.8713212890625,0.08381868541538715,-0.03318170024231076,0.017602840175293386
1761468886064276200,1.881276123046875,0.04247428311407566,-0.019681436547636984,0.00996518490370363
1761468886074232000,1.891232177734375,-0.0153542209982872,-0.01084273492321372,0.006363909008726477
1761468886084188200,1.901188232421875,-0.09669920977652072,-0.0006332564022392034,0.01258048196863383
1761468886094143200,1.911143310546875,-0.1613894163519144,-0.00520209868773818,-0.0042167774448171255
1761468886104099300,1.921099365234375,-0.1906289548397064,-0.026514716633781788,-0.043244573366828264
1761468886114055200,1.93105517578125,-0.1824608459532261,-0.07450191795043647,-0.03168145174719393
1761468886124010200,1.94101025390625,-0.16885259183943271,-0.07253785133585333,-0.011374869038537143
1761468886133966000,1.950966064453125,-0.16589666464328764,-0.0747303929440677,-0.0025614479858428237
1761468886143922400,1.96092236328125,-0.15670213531851768,-0.05882094921581447,-0.000626205606944859
1761468886153877200,1.970877197265625,-0.14758768549263476,-0.041194837762787935,0.027866313905827698
1761468886163833000,1.9808330078125,-0.10080547605156898,-0.051630087863653897,0.042269590854831035
1761468886173789200,1.9907890625,-0.017820903372764586,-0.03901654387563467,0.032995347357355057
1761468886183745000,2.0007451171875,0.03673953885436058,-0.022726941723376512,0.0783373313948512
1761468886193700400,2.010700439453125,0.04025836063027382,0.006762187611311673,0.07219711160678416
1761468886203656200,2.02065625,0.03032148850560188,0.006146101539582014,0.05982092003859579
1761468886213612300,2.0306123046875,0.015201660785079002,0.011343158726021646,0.05989814999327063
1761468886223567400,2.0405673828125,0.05013444247841835,0.004739084285870194,0.06480754934474825
1761468886233523200,2.050523193359375,0.10819909343421459,-0.03282470349818468,0.0747809906201437
1761468886243479300,2.060479248046875,0.1786129383534193,-0.054002954474836586,0.07315952689815312
1761468886253434000,2.07043408203125,0.20882512126564978,-0.05643295810073614,0.07650847199987619
1761468886263390200,2.08039013671875,0.14629238498508929,-0.04660181137286126,0.06543667756114155
1761468886273346300,2.09034619140625,0.023314240092039105,-0.0008344049975275993,0.04447020617164671
1761468886283301000,2.100301025390625,-0.11153788246810435,0.02034326145723462,-0.013926964674144983
1761468886293257200,2.11025732421875,-0.21669395494461058,0.00713204383701086,-0.04332392221335321
1761468886303213000,2.120213134765625,-0.23743454515635967,0.00516658898293972,-0.05614058755803853
1761468886313169200,2.130169189453125,-0.16881518243849278,-0.00896349704787135,-0.05263451566584408
1761468886323124200,2.140124267578125,-0.05234802687466144,-0.027706337571144102,-0.008458360537327826
1761468886333080300,2.150080322265625,0.04425824392139911,-0.05935637126676738,-0.02802219858728349
1761468886343036200,2.1600361328125,0.16867197457551955,-0.0691108725618571,-0.03446315488759428
1761468886352991200,2.1699912109375,0.2407008534759283,-0.08564794666916131,-0.03030303953345865
1761468886362947300,2.179947265625,0.17776596613526344,-0.08742087462581694,-0.033723953892849386
1761468886372903200,2.189903076171875,0.11557751324772834,-0.07129486553743482,-0.06724610160328448
1761468886382858200,2.199858154296875,0.06846446441709995,-0.047323549776151774,-0.07050795294344425
1761468886392814000,2.20981396484375,-0.009459902262687683,-0.051427477963641284,-0.05654040053058415
1761468886402770200,2.219770263671875,-0.06919219416975975,-0.030404125287756323,-0.05712353418078273
1761468886412725200,2.229725341796875,-0.06597498568892479,-0.031072599133849143,-0.05197820718158036
1761468886422681300,2.239681396484375,-0.057840779072046274,-0.0443303593095392,-0.02578483145665377
1761468886432637200,2.24963720703125,-0.06652034461200237,-0.05826835683435201,-0.0011294424213469027
1761468886442593000,2.259593017578125,-0.09742810857295989,-0.06212532452344894,0.03265117356218397
1761468886452548400,2.26954833984375,-0.11272504642605781,-0.019192045595496893,0.07232680240105838
1761468886462504200,2.279504150390625,-0.11373802286088466,-0.0049110798519104715,0.08868402642942964
1761468886472460300,2.289460205078125,-0.06394026499092578,-0.023433774818480014,0.0810883106034249
1761468886482415000,2.2994150390625,-0.04261339932382106,-0.03590696048773825,0.050935821989178655
1761468886492371200,2.30937109375,-0.013225392276048659,-0.05335515809059143,0.03837082985062152
1761468886502327300,2.319327392578125,0.02136836672127247,-0.048760012320056556,0.033084742673859
1761468886512282000,2.3292822265625,0.00611819061934948,-0.04542158861234784,0.017742394776456057
1761468886522238200,2.33923828125,0.043751463443040844,-0.012717881145328283,-0.0009131693221628665
1761468886532194000,2.349194091796875,0.08475976565778255,-0.008909940229728817,-0.048050695006921884
1761468886542149400,2.3591494140625,0.10418401257395744,-0.018690964205563067,-0.07042842143382877
1761468886552105200,2.369105224609375,0.12354571564793586,0.006076251173764467,-0.08494863929338753
1761468886562061300,2.379061279296875,0.14834639490544796,0.011652663066610693,-0.09223645821399987
1761468886572016000,2.38901611328125,0.14807634579241274,0.002043707722052932,-0.09622483373042195
1761468886581972200,2.39897216796875,0.12290040348172188,0.02036832283325493,-0.10562814696766436
1761468886591928300,2.40892822265625,0.08331073589324951,0.023997253920137882,-0.10091785038486123
1761468886601883100,2.418883056640625,0.013282675421237945,0.01799538315683603,-0.1278968965947628
1761468886611839200,2.428839111328125,-0.05014554839432239,0.0024756693985313175,-0.15120054222755133
1761468886621795000,2.438795166015625,-0.09759469731152057,-0.017295198998227714,-0.1470041134510189
1761468886631751400,2.44875146484375,-0.08690846812427043,-0.001962678375095129,-0.1294348102191463
1761468886641706200,2.458706298828125,-0.04441957196295261,-0.040641660859435796,-0.08919321806058288
1761468886651662000,2.468662109375,0.005045592951774597,-0.046586686868965624,-0.0729406965157017
1761468886661618200,2.4786181640625,0.03403904772400856,-0.05279679355546832,-0.07639686485156416
1761468886671573200,2.4885732421875,0.061738371032476425,-0.06200681271031499,-0.04437869196329266
1761468886681529300,2.498529296875,0.04593231461346149,-0.07639350385069847,0.014840389724634587
1761468886691485200,2.508485107421875,0.02268178740739822,-0.05309365761019289,0.035749577968940134
1761468886701440000,2.51843994140625,-0.01359656367599964,-0.026024521964043378,0.04676934995949268
1761468886711396000,2.52839599609375,-0.07162614331841469,0.004570815046876669,0.06429426606036723
1761468886721352200,2.538352294921875,-0.07165010871589184,-0.006186433549970388,0.06091532767917961
1761468886731307300,2.548307373046875,-0.08726970265209674,-0.016151801116764543,0.03180705088824034
1761468886741263000,2.55826318359375,-0.04397299723923206,-0.022039982372522353,0.00276219472233206
1761468886751219200,2.56821923828125,-0.04440963509082794,-0.06290558818094431,-0.016064634289965032
1761468886761174300,2.57817431640625,-0.0263122528642416,-0.0888261383138597,-0.026566191092692315
1761468886771130400,2.58813037109375,0.02055120511949062,-0.08524937580563127,-0.041875038579292596
1761468886781086200,2.598086181640625,0.06777472858726978,-0.09958265625834464,-0.047237844254076476
1761468886791042300,2.608042236328125,0.14036767111122608,-0.11043109026998281,-0.07562697645761073
1761468886800997400,2.617997314453125,0.19258008890748024,-0.10290814741924405,-0.0766780198805034
1761468886810953200,2.627953125,0.20378537353277204,-0.08337152616977692,-0.0429390510816127
1761468886820909300,2.637909423828125,0.18923779274225233,-0.04436879162378609,-0.02975771714299917
1761468886830864100,2.647864013671875,0.06998597489595412,-0.00908595438376069,-0.011286387037485838
1761468886840820200,2.6578203125,-0.0862830297023058,0.008771116280928254,-0.026971849284134805
1761468886850776300,2.6677763671875,-0.21770693137943745,0.011871055057644844,-0.03544127920474857
1761468886860731100,2.677731201171875,-0.3201508222877979,-0.009252177796140312,-0.06198902132529765
1761468886870687200,2.687687255859375,-0.3280231630980968,-0.03071801354251802,-0.07646262356415391
1761468886880643000,2.69764306640625,-0.25698972497582434,-0.05869476555287838,-0.09001480010915547
1761468886890598400,2.707598388671875,-0.1545785672932863,-0.08761135569661856,-0.07644713373407722
1761468886900554200,2.71755419921875,-0.003856675428152084,-0.11446231854744254,-0.03412533776797354
1761468886910510300,2.72751025390625,0.0879080005556345,-0.09264226253591477,0.017150858624093233
1761468886920465200,2.737465087890625,0.05322305614352226,-0.07719079170823097,0.05188066509123891
1761468886930421800,2.747421875,0.011954641687870025,-0.07595986167378724,0.051298006365075706
1761468886940377600,2.757377685546875,-0.04298340167999267,-0.039695392985269425,0.05603310859557241
1761468886950332700,2.767332763671875,-0.06461071159839629,-0.054374052809551356,0.041203751721605654
1761468886960288800,2.777288818359375,-0.01846212388575077,-0.042619463738426566,0.04652604272291064
1761468886970244600,2.78724462890625,0.05230009607970714,-0.025797362144663927,0.0809917914263904
1761468886980200700,2.79720068359375,0.1369412037938833,-0.02124795521199703,0.09894329890888184
1761468886990155800,2.80715576171875,0.16210720923244953,-0.008339592995867133,0.09388228919226675
1761468887000111900,2.81711181640625,0.1596720910400152,-0.02169971756748855,0.08083692965824156
1761468887010067700,2.827067626953125,0.11356325081586838,-0.02563340375460684,0.07461600931677967
1761468887020022800,2.837022705078125,0.03966273282468319,-0.021590923430770636,0.06407189201395959
1761468887029979000,2.846978759765625,-0.0017757775008678436,-0.007007102283090353,0.0655153322879225
1761468887039935000,2.85693505859375,-0.05103577523231506,-0.011886471822485327,0.03438928593378514
1761468887049889800,2.866889892578125,-0.08987725480198859,-0.009408683532103895,-0.0021529402501881123
1761468887059845600,2.876845703125,-0.12036708561182022,-0.009494169858470559,-0.024208850844204426
1761468887069801700,2.8868017578125,-0.103026659232378,-0.019725714080780745,-0.024053112293221057
1761468887079756800,2.8967568359375,-0.11087035847008228,-0.041684155649691815,-0.05522840461656451
1761468887089713000,2.906712890625,-0.09419102634787559,-0.06733801767043769,-0.05983337766136974
1761468887099668700,2.916668701171875,-0.08172668157219887,-0.057081631267815826,-0.034613486611098046
1761468887109623600,2.92662353515625,-0.036222236981987954,-0.05043159879408776,-0.014032105549052357
1761468887119580000,2.936579833984375,-0.0075064301073551176,-0.04078464952670038,-0.01292545948140323
1761468887129535700,2.94653564453125,0.01625087757706642,-0.03738879654332995,0.005120850145071744
1761468887139491800,2.956491943359375,0.0440846409201622,-0.025878537622094154,0.00683682375010103
1761468887149446700,2.96644677734375,0.028743279403448105,-0.027782106221094727,-0.010274689244292676
1761468887159402800,2.97640283203125,0.02018237180709839,-0.04332169372364878,-0.058635509646311396
1761468887169358800,2.98635888671875,0.028388474616408345,-0.06023110827468335,-0.03662921034768223
1761468887179313700,2.996313720703125,0.062327569097280495,-0.05924838084764778,-0.019766959406621754
1761468887189269800,3.006269775390625,0.05959726735055446,-0.03575885725393891,-0.0078104180226102465
1761468887199225600,3.0162255859375,0.02869242599904537,-0.0254326204854995,-0.002367240587994456
1761468887209181000,3.026180908203125,-0.09969605350494384,-0.009305077027156949,-0.03265121009480208
1761468887219136800,3.03613671875,-0.1521399419695139,0.005407265871018171,-0.02087565130088478
1761468887229092900,3.0460927734375,-0.15258651669323445,0.022384777222201228,-0.018894414355792102
1761468887239047700,3.056047607421875,-0.11176876861453056,0.01866203037202358,0.005401201456412673
1761468887249003800,3.066003662109375,-0.06378419764637946,0.028667876079678533,0.02347670064475387
1761468887258960000,3.0759599609375,-0.03287000394463539,0.027047727531939743,0.02162098977547139
1761468887268914700,3.085914794921875,-0.01665653576850891,0.01009695805720985,0.021463716854527592
1761468887278870800,3.095870849609375,0.0014648118555545806,0.004216521716490388,0.020205862280540166
1761468887288826600,3.10582666015625,0.047291328006982804,0.010503127705305815,0.01151877102125436
1761468887298782000,3.115781982421875,0.08737667015790938,0.005145911521092057,0.01653535707425326
1761468887308737800,3.12573779296875,0.1223982991784811,-0.002857508322969079,0.00007215192075818776
1761468887318693600,3.135693603515625,0.18605565557479858,-0.01341010119318962,-0.0018343758203089237
1761468887328649700,3.145649658203125,0.17547464032769203,-0.025842297264933586,-0.007553557184711099
1761468887338604800,3.155604736328125,0.12770575793683528,-0.012375716644152998,-0.005554163528420031
1761468887348561000,3.165560791015625,0.023828034833073615,-0.008495221948996186,0.013853461046516894
1761468887358516700,3.175516845703125,-0.03472352285683155,0.006730915690213442,0.016237397040985525
1761468887368471800,3.185471923828125,-0.04328852210640907,0.010951529059931636,0.028679128126055
1761468887378427600,3.195427734375,-0.012981062126159668,-0.03499269518703222,0.049169141110219056
1761468887388383700,3.2053837890625,0.05429097763597965,-0.060993763210251926,0.040583793192356825
1761468887398338800,3.2153388671875,0.09641513213813305,-0.07703048657998442,0.04333181325886398
1761468887408294700,3.225294677734375,0.0921300021648407,-0.0998415994554758,0.015529869826138019
1761468887418250800,3.235250732421875,0.006450199052691459,-0.05576784525550901,0.0008571648186072706
1761468887428205800,3.245205810546875,-0.07635901705920696,-0.061961804524809115,-0.038267515606619416
1761468887438162000,3.255161865234375,-0.08627543091773986,-0.07169255961813033,-0.048924445634149015
1761468887448117800,3.26511767578125,-0.039026188486814495,-0.07224412908628583,-0.044176447389461096
1761468887458073900,3.275073974609375,0.029613047975301742,-0.05873334399759769,-0.005454137220047414
1761468887468028700,3.285028564453125,0.029978374156355857,-0.03387311657257378,0.03117532885596156
1761468887477984800,3.29498486328125,0.03812193312346935,0.0003967442326247692,0.030050051153078673
1761468887487940900,3.30494091796875,0.03683072426915168,0.030894319957494733,0.07638206914123147
1761468887497895700,3.314895751953125,0.08434884676933288,0.052163756348937745,0.09613784956671297
1761468887507851800,3.324851806640625,0.12840776872634888,0.029691812299937007,0.05888097230736166
1761468887517807600,3.3348076171875,0.13480185367763042,-0.008617825415357947,0.03027954906001687
1761468887527762700,3.3447626953125,0.07170914542675018,-0.02459828855320811,-0.020859065492264926
1761468887537718800,3.35471875,0.006577040302753448,0.010433715730905532,-0.01195204787198454
1761468887547674600,3.364674560546875,-0.07129355036318302,0.02900850621089339,0.031084179973788557
1761468887557629700,3.374629638671875,-0.15573416706919668,0.04195866174213588,0.05716061478815972
1761468887567585800,3.384585693359375,-0.21534604746699332,0.05724675870165229,0.05757343337275087
1761468887577542000,3.3945419921875,-0.2131499987274408,0.06100223877765238,0.017863536938093602
1761468887587496700,3.40449658203125,-0.15659575233459472,0.012055763974785805,-0.006146284202672541
1761468887597452500,3.41445263671875,-0.08078910846114158,-0.014934461216256021,-0.008643763574212789
1761468887607408600,3.42440869140625,0.009646364745497703,-0.026519465874135492,0.0019424758372828363
1761468887617364700,3.43436474609375,0.06450491313636303,-0.04640782317072153,0.01084894546829164
1761468887627319800,3.44431982421875,0.07183306406736374,-0.06046513622626662,-0.006798135707527399
1761468887637275600,3.454275634765625,0.07723404632806778,-0.04600969069860875,-0.03016465397607535
1761468887647231700,3.464231689453125,0.04733458262681961,-0.05942826745919883,-0.05147354559507221
1761468887657186800,3.474186767578125,-0.003207271608710289,-0.04628565809577703,-0.07622976465635001
1761468887667143000,3.484142822265625,-0.050727147674560547,-0.039775472484156485,-0.10079776766914873
1761468887677098800,3.4940986328125,-0.04671031324863434,-0.03470964046195149,-0.09976897261068224
1761468887687053600,3.504053466796875,0.03246609931886196,-0.03206847830340266,-0.11992913258597254
1761468887697010000,3.514010009765625,0.11724690776467322,-0.05335924974381923,-0.1155205223634839
1761468887706965800,3.5239658203125,0.1416425133526325,-0.07262026892229914,-0.10198712358418852
1761468887716920800,3.5339208984375,0.035297523352503773,-0.06551284806989133,-0.09611633185464888
1761468887726876700,3.543876708984375,-0.07078384727537632,-0.03462539624460041,-0.09292228505369275
1761468887736832800,3.553832763671875,-0.16691607081890106,0.0021720833420753476,-0.07188709580954164
1761468887746788900,3.563788818359375,-0.23442601099014282,0.007621873180568218,-0.036814540319330985
1761468887756743700,3.57374365234375,-0.20984160483181474,0.014579071907326577,-0.0253300003612414
1761468887766699800,3.58369970703125,-0.11852701070308684,-0.00006729308255016803,-0.00968739087563008
1761468887776655600,3.593655517578125,-0.013231822016835213,-0.050140506893023844,0.010316409494169055
1761468887786611000,3.60361083984375,0.05278875637948513,-0.09808766846023499,0.01171487811524421
1761468887796566800,3.61356689453125,0.07210603578984737,-0.0817843300435692,0.04174257130604237
1761468887806523000,3.62352294921875,0.03614566461443901,-0.07063070254027844,0.05310377714540809
1761468887816477700,3.633477783203125,-0.06247428409159183,-0.05535846073701978,0.05484999975822866
1761468887826433500,3.64343359375,-0.1393213769286871,-0.016029124585166574,0.05452657649014145
1761468887836390000,3.653389892578125,-0.12468261072337626,-0.004797828735783696,0.04466872441843152
1761468887846344700,3.6633447265625,-0.077974051040411,-0.009480579724535346,0.08600446848925203
1761468887856300800,3.67330078125,-0.06663023472726344,0.004294774584472179,0.06066186437476426
1761468887866256600,3.683256591796875,-0.077729720890522,-0.0023298311870545148,0.04654083843324333
1761468887876212700,3.693212646484375,-0.021364859589934348,-0.00329261180460453,0.053853280338458716
1761468887886167800,3.703167724609375,0.009238952988386154,-0.027573285776004194,0.08800451973266898
1761468887896123600,3.71312353515625,0.020112813702225684,-0.023760668685287235,0.10761022416297346
1761468887906079700,3.723079833984375,0.05315875873565674,-0.007402896667644381,0.08941650542244314
1761468887916034800,3.733034912109375,0.039839842957258224,-0.019700944965705274,0.06568086158055812
1761468887925991000,3.742990966796875,0.01773497865498066,-0.03253989520743489,0.044508821148984135
1761468887935946800,3.75294677734375,0.029511341166496275,-0.053033890246972436,0.006782207486033439
1761468887945901600,3.762901611328125,0.009449380868673325,-0.03458608714751899,-0.008062164293974638
1761468887955857700,3.772857666015625,0.02297697096168995,-0.031405703545734284,-0.01046820252239704
1761468887965813800,3.782813720703125,0.058252867004275316,-0.02256174122430384,-0.018508264582417906
1761468887975768800,3.792768798828125,0.0830979699254036,-0.021258257410302756,-0.013526494114473462
1761468887985724700,3.802724609375,0.0942296047925949,0.002674479906260967,0.018920900503918526
1761468887995680800,3.8126806640625,0.07935001556873321,0.0291078018669039,0.04978990335706621
1761468888005635800,3.8226357421875,0.017018939340114593,0.015462869004532694,0.07155205516889691
1761468888015591700,3.832591796875,-0.047270285218954086,0.03687529406324029,0.0721872477998957
1761468888025547800,3.8425478515625,-0.05710018983781338,-0.017040566650032996,0.016632935697212813
1761468888035503600,3.852503662109375,-0.07234802785217762,-0.04512487068809569,-0.018604674161598084
1761468888045458700,3.862458740234375,-0.06232230840027332,-0.0632450492683798,-0.063562225458771
1761468888055414800,3.872414794921875,-0.04943827690780162,-0.08702025793567299,-0.09049078359045087
1761468888065371000,3.882370849609375,-0.018897592693567274,-0.11493841162659227,-0.11608173644281923
1761468888075325700,3.89232568359375,-0.007669511714577674,-0.12107574533782899,-0.09766498606875539
1761468888085281500,3.902281494140625,-0.0015296937853097915,-0.11037329566814005,-0.07556618618108332
1761468888095237600,3.912237548828125,0.024185177707672117,-0.07908442343510687,-0.05904858395922929
1761468888105192700,3.922192626953125,0.044207975038886065,-0.0679267773438245,-0.018054858259111642
1761468888115148800,3.932148681640625,0.06376432390213012,-0.04999313431158661,0.0023796251455321907
1761468888125104600,3.942104736328125,0.0330395152926445,-0.043133623805642125,-0.004250423986092209
1761468888135059700,3.952059814453125,0.009852700972557067,-0.026204700836539266,-0.0150922821264714
1761468888145015800,3.962015869140625,0.013247019585967064,-0.008953267914801836,-0.02499948976524174
1761468888154971600,3.9719716796875,0.027348025652766225,-0.025368030816689133,0.005712970819324255
1761468888164926700,3.9819267578125,0.051691024270653724,-0.03013831395842135,0.06275883665401488
1761468888174882600,3.991882568359375,0.11661796221137045,-0.026811872949451206,0.10955313839167356
1761468888187948800,4.00494873046875,0.1321925479620695,-0.028283041480556128,0.15228198078870772
1761468888197905000,4.01490478515625,0.0896335091739893,0.000034852117672562596,0.1587396324954927
1761468888207859700,4.024859619140625,0.016168459990620613,0.010436565275117755,0.12980185343325137
1761468888217815600,4.034815673828125,-0.024545243191719055,0.0026272797636687755,0.09658332831189036
1761468888227771600,4.044771728515625,-0.12114917590022087,-0.03599968027248979,0.0767980295309797
1761468888237726700,4.054726806640625,-0.1654804850578308,-0.05396919833570719,0.05885521681159735
1761468888247682800,4.064682861328125,-0.12938918097913266,-0.06663147683627903,0.05884531647209078
1761468888257638700,4.074638671875,-0.09186579827070236,-0.07468655380234122,0.07169318067263811
1761468888267593700,4.08459375,-0.021917817297577857,-0.07175963350497186,0.08852390396427362
1761468888277549800,4.0945498046875,-0.00007014262676239014,-0.053510421717539426,0.05804861313644796
1761468888287505700,4.104505615234375,-0.037710429713129996,-0.029694150387495753,0.02906958874836564
1761468888297460700,4.114460693359375,-0.09306757527589797,-0.03350676747821271,0.004683152847550809
1761468888307416600,4.12441650390625,-0.10340016871988773,-0.028743425533920525,-0.05095112915616482
1761468888317372700,4.13437255859375,-0.03367313702106475,-0.04127206771746277,-0.09218918500617146
1761468888327328800,4.144328857421875,0.03596796995997429,-0.07868168785311282,-0.07895060445498675
1761468888337283600,4.15428369140625,0.06438976232409477,-0.07668233072943985,-0.09465542898923159
1761468888347239700,4.16423974609375,0.06445581329762935,-0.06625365649983286,-0.07567107132766396
1761468888357195500,4.174195556640625,0.09776946935653685,-0.04986015558168292,-0.04550557710137218
1761468888367150800,4.18415087890625,0.07391162390708923,-0.025744828239828346,-0.033812874285317956
1761468888377106700,4.194106689453125,0.05947276418805122,-0.030568375938758253,-0.03383658395446837
1761468888387062800,4.204062744140625,0.018097382226586342,-0.04386676038578152,-0.05831029627993702
1761468888397017600,4.214017578125,-0.014887188008427619,-0.05367693739086389,-0.08743059230223298
1761468888406973700,4.2239736328125,-0.0123784200578928,-0.0670328972440213,-0.08726630511861294
1761468888416929800,4.2339296875,-0.02233107427358627,-0.061698477413505315,-0.08077361863106489
1761468888426884600,4.243884521484375,-0.0696428605467081,-0.059960693835467094,-0.04062430786583572
1761468888436840700,4.2538408203125,-0.13797346945106984,-0.043257177120074625,-0.01324537561815232
1761468888446796500,4.263796630859375,-0.18236790697276592,-0.020207725444063542,-0.04244396104104817
1761468888456751900,4.273751953125,-0.18439561340808866,-0.031230785370245574,-0.06563358837272971
1761468888466707700,4.283707763671875,-0.09633505263924598,-0.0625307635191828,-0.09208521317504346
1761468888476663800,4.293663818359375,0.04544774596691131,-0.09376841702163219,-0.08161200568396598
1761468888486619600,4.30361962890625,0.21151742908954618,-0.10017463080212473,-0.021473069204762576
1761468888496574700,4.31357470703125,0.2902525276303291,-0.10574841234646737,0.01857479047998786
1761468888506530800,4.32353076171875,0.2399509118914604,-0.11446370678693056,-0.04574658278301358
1761468888516486700,4.333486572265625,0.19017244324386118,-0.08533515439294279,-0.05615019563660025
1761468888526441700,4.343441650390625,0.09142214615643024,-0.0834442991450429,-0.010289010030589997
1761468888537020700,4.354020751953125,-0.04347147745788097,-0.06612805735878646,0.011830905710346996
1761468888546976800,4.363976806640625,-0.1558686071038246,-0.025694194031134245,0.010100684384256601
1761468888556931800,4.373931884765625,-0.23634265826642512,-0.012270648834481835,0.01667056429386139
1761468888566887700,4.3838876953125,-0.3043488575220108,-0.001980433227494359,0.07664641916584224
1761468888576843800,4.39384375,-0.27822598975002766,0.014912760841101408,0.0474722375318408
1761468888586798600,4.403798583984375,-0.23894202710986137,0.02380282732658088,0.028614940316043794
1761468888596754700,4.413754638671875,-0.17819032902717588,0.016405410551652313,0.061727593910135325
1761468888606710800,4.423710693359375,-0.041507483908534044,-0.00411108858063817,0.041644956150464714
1761468888616667000,4.4336669921875,0.049966100174188614,-0.025995807326212525,0.021561879999376834
1761468888626621700,4.44362158203125,0.1029915879189968,-0.029201544564962385,-0.029623130977898836
1761468888636577500,4.45357763671875,0.08135609469413757,-0.04365589411407709,-0.08119524157661945
1761468888646533600,4.46353369140625,0.05597615424394607,-0.08033632319234311,-0.12024313043858856
1761468888656488700,4.47348876953125,0.0004962590843439102,-0.08522365684248506,-0.1550759954214096
1761468888666444800,4.48344482421875,-0.04350362616181373,-0.09406228540167212,-0.1934622055042535
1761468888676400600,4.493400634765625,-0.05176233594119548,-0.07953107122406362,-0.2050954332180321
1761468888686355700,4.503355712890625,-0.05280979916751385,-0.07390176010020076,-0.1854206821395084
1761468888696311800,4.513311767578125,-0.005141454541683197,-0.07357815416902304,-0.19376363613624126
1761468888706267600,4.523267578125,0.043968905586004255,-0.08576850430890917,-0.16907142222188412
1761468888716222700,4.53322265625,0.08777648313045501,-0.08779409185238182,-0.12494999295528977
1761468888726178600,4.543178466796875,0.14596855985820292,-0.07693893583901226,-0.08478738431707024
1761468888736134700,4.553134765625,0.11797288395166397,-0.05669862329959869,-0.07366795134432613
1761468888746090800,4.5630908203125,0.08658405847549439,-0.06281732537560164,-0.09371862306315451
1761468888756045800,4.5730458984375,0.06569733779132365,-0.08284867133945226,-0.07511950185950846
1761468888766001700,4.583001708984375,0.012782324683666229,-0.11682634426504372,-0.06644636606033891
1761468888775957800,4.592957763671875,0.004609539622068405,-0.11235767441838979,-0.03887278802338987
1761468888785912800,4.602912841796875,0.023377952978014944,-0.1060517061419785,0.02690817293077707
1761468888795868700,4.61286865234375,0.022087328645586966,-0.07818915509581566,0.09068217797670512
1761468888805824800,4.62282470703125,-0.01798456950187683,-0.03427417165413499,0.11816771240402012
1761468888815779600,4.632779541015625,-0.12693301999866963,-0.017117942735180258,0.13100490908008067
1761468888825735700,4.642735595703125,-0.2028992383480072,0.036297274979576466,0.13994897077511995
1761468888835691800,4.65269189453125,-0.25981413474678994,0.08298172313459216,0.15089407009426503
1761468888845648000,4.66264794921875,-0.27358663951158524,0.10629413659572601,0.1721651504535228
1761468888855602700,4.672602783203125,-0.19705226588547228,0.09978950394205749,0.1722016465390101
1761468888865558500,4.68255859375,-0.11801613857150077,0.0723924515157938,0.14211590301804244
1761468888875514600,4.6925146484375,0.0005324994415044785,0.04438274708390236,0.12348909008987247
1761468888885469700,4.7024697265625,0.13033844452798365,0.021385537051782012,0.10407090758830308
1761468888895425800,4.71242578125,0.24885785644650457,0.008877207003906368,0.10583959776125848
1761468888905381600,4.722381591796875,0.3311252207666635,-0.021258257410302756,0.09362166549470276
1761468888915336700,4.732336669921875,0.2551473119795322,-0.03707600426711142,0.05313972524162382
1761468888925292800,4.742292724609375,0.09090952045917511,-0.04345671828016639,0.012464892764948308
1761468888935249200,4.752249267578125,-0.03250760037302971,-0.046570977843180296,-0.027933314727433024
1761468888945204000,4.762203857421875,-0.1171177284270525,-0.03614887948483229,-0.04551840005032718
1761468888955159800,4.772159912109375,-0.16532032606005667,-0.02167933236658573,-0.06606595190800726
1761468888965116000,4.782115966796875,-0.1938227824449539,-0.0063899932980537415,-0.0884014831610024
1761468888975072000,4.792072021484375,-0.17001052970290184,-0.0052692456398159265,-0.10470346987079829
1761468888985027000,4.802027099609375,-0.09674246439635753,-0.008859525216743349,-0.10450531695019454
1761468888994983000,4.81198291015625,-0.012560790887475012,-0.012239449978619813,-0.08950001898743212
1761468889004939000,4.82193896484375,0.01089957967698574,0.017026318928971884,-0.05384805617406964
1761468889014894000,4.83189404296875,0.030512627163529395,0.037801176736503836,-0.08366203354895115
1761468889024850000,4.841849853515625,0.0569248332709074,0.053747445343807335,-0.08010244137123226
1761468889034806000,4.851805908203125,0.11497896283268928,0.05590915342234075,-0.05396689678076654
1761468889044760800,4.8617607421875,0.1494593245834112,0.03276720115728676,-0.03698708387464285
1761468889054717200,4.87171728515625,0.14454115740358828,0.014906331100314855,-0.02179835563637316
1761468889064673000,4.881673095703125,0.06234218214452266,0.024995398112013935,-0.037911066851764916
1761468889074629000,4.891629150390625,0.004613631275296211,0.012342106635496019,-0.05676266497913748
1761468889084584000,4.901583984375,-0.034494974797964095,-0.027188012785464524,-0.0515801477747038
1761468889094540000,4.9115400390625,-0.012210077753663062,-0.01991911776103079,-0.018168913092836737
1761468889104496000,4.92149609375,0.060064300340414045,-0.04317833973020315,0.0220328585119918
1761468889114451000,4.931450927734375,0.08070961348414421,-0.03676430796943605,0.062045573818124825
1761468889124407000,4.941406982421875,0.028152912294864652,-0.0491558797698468,0.10118519608415663
1761468889134363000,4.95136279296875,-0.01965162593126297,-0.038129458842799065,0.11166139924991875
1761468889144318200,4.961318115234375,-0.04849485857784748,-0.03580591126605868,0.11479604401383549
1761468889154274000,4.971274169921875,-0.08382277706861495,-0.047655558209493756,0.11590637987591326
1761468889164230100,4.981230224609375,-0.12772855429053306,-0.034035321396961804,0.09786010678205638
1761468889174186000,4.99118603515625,-0.11903203761577605,-0.04275346538163721,0.05137081587295979
1761468889184140800,5.001140869140625,-0.12374328404664993,-0.04433211287520825,0.029228870963305235
1761468889194097200,5.01109716796875,-0.14199848718345165,-0.03730710960924625,-0.012669000502303242
1761468889204053000,5.021052978515625,-0.08008534410595894,-0.014647022577002644,-0.01032258350662887
1761468889214008000,5.031008056640625,-0.0026122283250093457,0.001937836194783449,0.011701032252982259
1761468889223964000,5.0409638671875,0.05094575886130333,-0.0005048807822167873,0.029747195748984812
1761468889233920000,5.050919921875,0.052636780688166615,0.02525324533060193,0.02342369181588292
1761468889243875000,5.060875,0.0404945074737072,0.011144421283528208,-0.002570325412042439
1761468889253831000,5.070830810546875,0.01328501350879669,0.01550780412480235,-0.00041347617171704767
1761468889263787000,5.080787109375,-0.04938976159095764,0.05809599594213068,-0.026777166962251065
1761468889273742000,5.0907421875,-0.09532382977008819,0.07063391741067171,-0.04187474631834775
1761468889283698200,5.1006982421875,-0.09414952529370785,0.06840703514143824,-0.04793967238049954
1761468889293654000,5.110654052734375,-0.0632470220297575,0.06921067967452109,-0.04024488009419292
1761468889303610000,5.120610107421875,-0.02846855411529541,0.0606581015150994,-0.043596930468454954
1761468889313565000,5.13056494140625,0.042973464807868005,0.05303403637744486,-0.05169774627238512
1761468889323521000,5.14052099609375,0.08104396000504493,0.039090924286097284,-0.062402607094869014
1761468889333477000,5.15047705078125,0.09232406343221664,0.023497195443511008,-0.027038484779559075
1761468889343432000,5.160431884765625,0.04421440477967262,0.042727965614199635,-0.019702296672575174
1761468889353388000,5.170387939453125,0.06816811181902885,0.04246931467801332,-0.019470789471641183
1761468889363344000,5.18034375,0.055552960395812985,0.012786197141185403,0.010476495426706969
1761468889373299200,5.19029931640625,0.05350596473813057,0.006265928526967763,0.04511745456662029
1761468889383255000,5.200255126953125,0.05856850882470607,0.017736513024941086,0.06784994924794882
1761468889393211000,5.2102109375,0.053956046593189234,-0.002325958729535341,0.10392956288885324
1761468889403167000,5.2201669921875,-0.006002455285191536,-0.014893763879686594,0.11024254542794078
1761468889413122000,5.2301220703125,-0.06048106444776058,-0.00453983538672328,0.094380740233697
1761468889423078100,5.240078125,-0.16169979747533797,-0.006790463857725262,0.07828549160975963
1761468889433034000,5.250033935546875,-0.21541911270320413,0.0008644348096102475,0.06656586425416171
1761468889442989000,5.259989013671875,-0.23696049790382384,0.005015270878747105,0.0428344216633588
1761468889452945000,5.26994482421875,-0.19502689753770827,-0.001557604705542326,0.04494381503276527
1761468889462901000,5.27990087890625,-0.11399871962368488,0.0042210517611354584,0.042401144812628626
1761468889472856000,5.28985595703125,-0.05724456674456596,-0.005831190371513366,0.05810158543270081
1761468889482812000,5.29981201171875,0.01808569178879261,-0.020823446189612148,0.0569268425649032
1761468889492768000,5.30976806640625,0.08318857081830501,-0.025953940945863722,0.030085305129550394
1761468889502723000,5.31972314453125,0.127570148858428,-0.043112361821904775,0.07999708130061627
1761468889512679200,5.32967919921875,0.1504787307590246,-0.038153424240276214,0.12418390395361929
1761468889522635000,5.339635009765625,0.10403729757964611,-0.004203589169681072,0.13934059308581054
1761468889532591000,5.349591064453125,0.04104454257190227,-0.003238981921225786,0.16674447711165993
1761468889542546000,5.3595458984375,-0.034522447326779365,0.015983020421117544,0.14486618810687213
1761468889552502000,5.369501953125,-0.10042086064815521,0.012751271958276628,0.11708883112613111
1761468889562458000,5.3794580078125,-0.16956980019807816,-0.003209317435324192,0.0796051228409633
1761468889572413000,5.389412841796875,-0.20265315463244915,-0.011345569878816604,0.01404759537912905
1761468889582369000,5.399369140625,-0.18287468745112417,-0.03201024531014263,-0.041858781564235684
1761468889592324900,5.409324951171875,-0.14810264927744865,-0.04068023930415511,-0.03323299203813076
1761468889602280000,5.419280029296875,-0.13633973076939582,-0.04527911140173673,-0.025589929939061402
1761468889612236000,5.429236083984375,-0.16750994505882263,-0.029638328547030687,-0.03730889970753342
1761468889622191900,5.43919189453125,-0.15908698462843893,-0.011373919190466403,-0.028199783643893896
1761468889632147200,5.449147216796875,-0.10972995626330374,-0.014180281848087907,-0.02816935197301209
1761468889642103000,5.45910302734375,-0.029335400077700614,-0.017904855329170823,-0.03498151620589197
1761468889652059100,5.46905908203125,0.04054711444377899,-0.03700586164034903,0.008878485645540057
1761468889662015000,5.479014892578125,0.0641927784472704,-0.0010984627611935137,0.021499847613833844
1761468889671969800,5.4889697265625,0.01557166314125061,0.015521832650154829,0.025878756817802787
1761468889681926000,5.49892578125,-0.022630349481105802,0.05329378329217434,0.049675958121195435
1761468889691882000,5.508882080078125,-0.041945875325798986,0.04946786832846701,0.04008570747710764
1761468889701837000,5.518837158203125,-0.0747930829167366,0.06824088479429483,0.018099902977235613
1761468889711793000,5.52879296875,-0.08472937051951884,0.09415522438213228,-0.0203741680521518
1761468889721749000,5.5387490234375,-0.05357552284300327,0.06711034639440476,-0.06723353438265621
1761468889731704000,5.5487041015625,-0.03312134835720062,0.06790836490429937,-0.04436663619931787
1761468889741660200,5.55866015625,0.0068634560286998745,0.08555844175480305,-0.028842867320403455
1761468889751616000,5.568615966796875,0.04904898532927036,0.08000709123797714,-0.04899674368537962
1761468889761572000,5.578572021484375,0.07903495827019213,0.047846550736948844,-0.10441990368906408
1761468889771527200,5.588527099609375,0.15525544364154337,0.05080868847817182,-0.15241653042118997
1761468889781483000,5.59848291015625,0.21578853053748606,0.05201324196234345,-0.1649012969303876
1761468889791439000,5.608439208984375,0.2407183891326189,0.04127141013033688,-0.14102306628003716
1761468889801394000,5.618393798828125,0.22240765641629695,0.02962335017360747,-0.13246577541287988
1761468889811350000,5.62835009765625,0.1900713209569454,0.037230098850280044,-0.1257825713219121
1761468889821306000,5.63830615234375,0.16615736140608786,0.006201777249574661,-0.10863923841714858
1761468889831261000,5.648260986328125,0.12846505187153814,-0.029879663022235034,-0.07981869252640754
1761468889841217000,5.658217041015625,0.06811316676139831,-0.0602780161563307,-0.07422869049962609
1761468889851172900,5.6681728515625,0.04824585225284099,-0.08646898072846233,-0.1092657728176564
1761468889861128200,5.678128173828125,0.06919160964787006,-0.12407200454436242,-0.11502693016026168
1761468889871084000,5.688083984375,0.05966740997731685,-0.14758381303511559,-0.1133535170553252
1761468889881040100,5.6980400390625,0.01645955189168453,-0.1322430360402912,-0.06491703760121018
1761468889890996000,5.707995849609375,-0.061875149154663085,-0.0756626322928816,-0.03966645915172994
1761468889900950800,5.71795068359375,-0.225206931746006,-0.02597527599483728,-0.03262512580547482
1761468889910907100,5.7279072265625,-0.3042565030634403,0.011593187964335084,-0.0026869740616530177
1761468889920863000,5.737863037109375,-0.28662556930482386,0.03502082530297339,-0.02191182594820857
1761468889930818000,5.747818115234375,-0.18562953911721705,0.02313544945903122,0.040457098072767254
1761468889940773400,5.7577734375,-0.04995031808316707,0.04910064245127141,0.09202566500753163
1761468889950729700,5.767729736328125,0.09153788149058818,0.05299509260654449,0.18024419281706214
1761468889960684500,5.7776845703125,0.19829028324782846,0.04751154662892222,0.19550741106364874
1761468889970640400,5.787640380859375,0.23371289428472516,0.03444967435151338,0.13902794694006443
1761468889980596500,5.797596435546875,0.1855962213695049,-0.028635215919092297,0.12911635538712143
1761468889990551600,5.807551513671875,0.07405307820439339,-0.02251381042934954,0.04469842543695122
1761468890000507600,5.817507568359375,-0.03520984506905079,-0.019129063361883164,-0.015678082657791675
1761468890010463500,5.82746337890625,-0.06959259166419506,-0.007948109460249543,-0.03800583246313035
1761468890020419600,5.837419677734375,-0.05682546454966068,-0.005004603354260325,-0.03926481954827905
1761468890030374400,5.84737451171875,-0.022723872983455656,0.011459113255888224,-0.004072254407592117
1761468890040330500,5.85733056640625,-0.04796761983335018,-0.007523088981211185,0.00028345658387988803
1761468890050286600,5.86728662109375,-0.09362579368054866,-0.017055471958220002,-0.022427776113711297
1761468890060241400,5.877241455078125,-0.12393325366079806,0.005762435984238982,-0.05172905472610145
1761468890070197500,5.887197509765625,-0.18110358612537383,0.005482157738134264,-0.0682636080827564
1761468890080153300,5.8971533203125,-0.17101649187505244,0.012072422848641871,-0.05109576179124414
1761468890090108400,5.9071083984375,-0.08141454688310623,-0.008413315819203853,-0.04052771562356502
1761468890100064500,5.917064453125,-0.029286884760856627,-0.04075893056355417,-0.04074504816867411
1761468890110020400,5.927020263671875,0.018516484421491623,-0.06168656778000295,-0.03432312536239624
1761468890119975700,5.9369755859375,0.08524258073866367,-0.07076594629250467,-0.01825231705997139
1761468890129931500,5.946931640625,0.15401391914784907,-0.09243366128653287,0.029721184524893758
1761468890139887600,5.9568876953125,0.1645616166472435,-0.08624481658376752,0.03467723602969199
1761468890149843500,5.966843505859375,0.09619652095139027,-0.05793700598813593,0.011661211699247359
1761468890159798500,5.976798583984375,0.004048398607969284,-0.03594970365092158,0.02459693684633821
1761468890169754600,5.986754638671875,-0.08202712582349776,-0.04208564912267029,0.020967676965892315
1761468890179710500,5.99671044921875,-0.12519582094252107,-0.047439650436490774,-0.0023511297034099696
1761468890189665500,6.00666552734375,-0.07812485768795013,-0.0656078328769654,-0.0016103578060865402
1761468890199621400,6.016621337890625,0.015502105036377906,-0.08666165375635028,0.026265491113066673
1761468890209577500,6.026577392578125,0.09911854587793349,-0.10150083790458739,0.045287221642956135
1761468890219532500,6.036532470703125,0.11708908685445785,-0.10173172405101358,0.048802317091822624
1761468890229488600,6.046488525390625,0.11342471912801265,-0.09027027270756662,0.03934299935102462
1761468890239444500,6.056444580078125,0.09349602982103825,-0.08644559985287487,0.015152743609435856
1761468890249400600,6.066400634765625,0.05204992071092129,-0.07168729892112315,0.02317358951233327
1761468890259355600,6.076355712890625,0.008503039929270744,-0.03108838122487068,0.01205857698637992
1761468890269311500,6.0863115234375,-0.01220364801287651,-0.010992226396501064,0.023585348650999365
1761468890279267600,6.096267578125,-0.06785363904237747,-0.010464914586767553,-0.012379662166908383
1761468890289222400,6.106222412109375,-0.08929799360930919,0.0010259820468723774,-0.04968995011392981
1761468890299178500,6.116178466796875,-0.11200491545796394,-0.017173545379936695,-0.026132658513635394
1761468890309134600,6.126134521484375,-0.0890975026011467,-0.011127250953018664,-0.022729206745699046
1761468890319089400,6.13608935546875,-0.01362754333615303,0.0029897564005106686,-0.028802279581688343
1761468890329045500,6.14604541015625,0.09636778586506843,-0.01989851336441934,-0.0010730725916102528
1761468890339001300,6.15600146484375,0.2284089426577091,-0.05640139391869306,0.022125724427215755
1761468890348957400,6.16595751953125,0.28748423196077344,-0.08700257614850998,0.014608334534429012
1761468890358912500,6.17591259765625,0.23552666570842265,-0.0774293497044593,-0.013803959348984061
1761468890368868600,6.18586865234375,0.09803016611933707,-0.05704458719305694,-0.03613854075390845
1761468890378824400,6.195824462890625,-0.04711129526495933,-0.024154124982282518,-0.04350775434765965
1761468890388779500,6.205779541015625,-0.16943126851022242,0.0036299540001899,-0.048800782721862196
1761468890398735600,6.215735595703125,-0.19773615649640558,0.018925795874744654,-0.05142393429968506
1761468890408691500,6.22569140625,-0.18634148677885531,-0.003738309745490551,-0.04835965135823935
1761468890418646500,6.235646484375,-0.10572656584084034,-0.02164901029355824,-0.018370682742632923
1761468890428602400,6.245602294921875,-0.026068507236242294,-0.03961524042114615,0.03846398802679032
1761468890438558500,6.255558349609375,-0.011874562188982963,-0.025504808938875793,0.07399086315575987
1761468890448513500,6.265513427734375,-0.01644260075688362,-0.029590470817312597,0.09210698661543429
1761468890458469400,6.275469482421875,-0.03185585846602917,-0.04981390528716147,0.07087408284209669
1761468890468425500,6.285425537109375,-0.0773942053258419,-0.048802901613712306,0.03376019425000995
1761468890478381300,6.29538134765625,-0.11640052006840705,-0.05719846258051693,-0.0015272826325148344
1761468890488336600,6.305336669921875,-0.07987666979134082,-0.06047806877307593,-0.028113091741129755
1761468890498292500,6.31529248046875,-0.02735562443733215,-0.08311316749453544,-0.033985344775393604
1761468890508248600,6.32524853515625,0.010810147827863693,-0.11182349447645246,-0.011878544244356453
1761468890518203400,6.335203369140625,0.0425771589666605,-0.09759170163683592,-0.004481748523935675
1761468890528159700,6.34515966796875,0.04087561574578285,-0.09093969640173018,0.02585683724693954
1761468890538115600,6.355115478515625,0.053715223574638364,-0.061733987118303774,0.0691324633391574
1761468890548070400,6.3650703125,0.034546412724256514,-0.03702157066613435,0.07235906070284545
1761468890558026500,6.375026611328125,0.004144260197877884,0.007070084516704082,0.09343355904407799
1761468890567982300,6.384982421875,0.015348375779390334,0.036471389437466854,0.09302026553545147
1761468890577937700,6.394937744140625,-0.005428454789519309,0.04604059729352593,0.09967449926026165
1761468890587893500,6.4048935546875,0.0001771101325750351,0.0531787786103785,0.05679580006375908
1761468890597849600,6.414849609375,-0.030875615257024765,0.03138042297400534,0.029696707670763132
1761468890607805400,6.424805419921875,-0.04049626103937626,0.019486863823607564,-0.027990451742149886
1761468890617760500,6.434760498046875,-0.015469371810555457,0.005423997810110449,-0.06391176954880357
1761468890627716600,6.444716552734375,0.0075362407237291335,-0.002511909755691886,-0.06400627943184227
1761468890637672400,6.45467236328125,0.03538753972351551,-0.016948650582879782,-0.0721872843325138
1761468890647627500,6.46462744140625,0.027219430837035177,-0.01717676025032997,-0.0685687650417909
1761468890657583400,6.474583251953125,0.01395779820382595,-0.005863192944973707,-0.054732730054110286
1761468890667539700,6.484539794921875,-0.027069208711385725,0.013492080388218164,-0.035481282421573994
1761468890677494500,6.49449462890625,-0.08570084590017794,0.03617335633896291,-0.031768655106611546
1761468890687450400,6.504450439453125,-0.10478723916411399,0.01815057371854782,-0.0394231519151479
1761468890697406500,6.514406494140625,-0.11364216127097607,0.013170228022709488,-0.03766903825681656
1761468890707362300,6.5243623046875,-0.08410627018511295,-0.008101181130111218,-0.06096749625783413
1761468890717317600,6.534317626953125,-0.032466683840751645,-0.021015826956555246,-0.06923588718101382
1761468890727273500,6.5442734375,-0.03397475031614303,-0.03958433382622897,-0.07082063562180846
1761468890737229600,6.5542294921875,-0.08066518982052802,-0.03055683163143694,-0.09483955338448286
1761468890747184600,6.5641845703125,-0.09409341119229793,-0.030371538192406296,-0.10211655865013598
1761468890757140500,6.574140380859375,-0.03775251528918743,-0.0659993894778192,-0.07951192813217639
1761468890767096600,6.5840966796875,0.016383564046025274,-0.09887472718469797,-0.052704840955697
1761468890777051400,6.594051513671875,0.070109309014678,-0.10794584932550787,-0.001774754587560892
1761468890787007500,6.604007568359375,0.1272422320783138,-0.07952844087556005,0.06316792891155928
1761468890796963300,6.61396337890625,0.05319909074604511,-0.07822415334396064,0.09387998763732612
1761468890806918700,6.623918701171875,-0.049066520985960954,-0.048493908729776734,0.06443111724779009
1761468890816874500,6.63387451171875,-0.1349725340694189,-0.025346330441534518,0.022646752626635132
1761468890826830300,6.643830322265625,-0.1452460908025503,-0.021268413478136062,-0.003109181529097259
1761468890836786400,6.653786376953125,-0.11623159324228763,-0.0009466332003474235,0.014565372175537048
1761468890846741500,6.663741455078125,-0.07096914071440696,0.027373452354967593,0.03630556788388639
1761468890856697600,6.673697509765625,-0.07418050397634506,0.03760726159960031,0.04835311201959848
1761468890866653400,6.6836533203125,-0.04738660507500171,0.016092545210197567,0.07425915870312601
1761468890876608500,6.6936083984375,-0.0069184010863304135,0.014300547226890921,0.033011750502884386
1761468890886564600,6.703564697265625,0.04403846369087696,-0.017195099624618886,0.010795132921822369
1761468890896520700,6.713520751953125,0.0737736767411232,-0.030417057834565636,0.004140753066539764
1761468890906475500,6.7234755859375,0.08872633120119572,-0.024415698527917265,0.02092734495550394
1761468890916431400,6.733431396484375,0.10748480768501759,-0.009006824732944368,0.03713792705480009
1761468890926387500,6.743387451171875,0.12457155156433582,-0.0048244244817644355,0.029489202399924395
1761468890936342500,6.753342529296875,0.09895487974882125,-0.018026801208406686,0.03396207349766046
1761468890946298400,6.76329833984375,0.06798106481432914,-0.023283918019011616,0.030913024657964704
1761468890956254500,6.77325439453125,-0.0007546177595853806,-0.033669191498309374,0.01602835740018636
1761468890966209500,6.78320947265625,-0.0393137732565403,-0.02297828613594174,0.001997055568732321
1761468890976165600,6.79316552734375,-0.044676177072525025,-0.03991210447587073,-0.010607245666906236
1761468890986121500,6.80312158203125,-0.04228372897803783,-0.05928330603055656,-0.00698196784183383
1761468890996076300,6.813076171875,-0.07104454403817653,-0.06137450615614652,0.0025196181381121276
1761468891006032400,6.823032470703125,-0.07232815410792827,-0.029303616699948905,0.0051013782596215605
1761468891015988200,6.83298828125,-0.025427286723256108,-0.04244914867281913,0.01861333239208907
1761468891025944600,6.842944580078125,-0.00665887336730957,-0.0361071592349559,0.0483012722345069
1761468891035899400,6.8528994140625,-0.006483516800403595,-0.026347543373331426,0.027386494499631226
1761468891045855500,6.86285546875,0.017353870382905007,-0.03387289737686515,0.04129040709175169
1761468891055811300,6.872811279296875,0.003942600145936012,-0.02458309098407626,0.010364157626032829
1761468891065766700,6.8827666015625,0.004932780227065086,-0.010789031974598766,0.004725640282407403
1761468891075722500,6.892722412109375,0.029485622203350065,-0.010547259107977151,0.022361907803267238
1761468891085678600,6.9026787109375,0.08588497029542923,-0.007760916325077414,0.042482649083621794
1761468891095633400,6.91263330078125,0.12090192314088344,-0.03750022102855146,0.0323819646993652
1761468891105589500,6.922589599609375,0.09250584973990916,-0.05714673239327967,0.0006240136498585343
1761468891115545600,6.932545654296875,0.05645195506215095,-0.032156668043509126,0.013060922429338097
1761468891125501400,6.94250146484375,0.03612754443585872,-0.043353696297109126,0.03889207724574953
1761468891135456500,6.95245654296875,0.015409750577807425,-0.029337080578133463,0.02518635410685092
1761468891145412400,6.962412353515625,-0.014467501291632651,-0.02968757451623678,-0.031622268905863164
1761468891155368400,6.972368408203125,-0.05723462987244129,-0.06715871558077632,-0.07860818422548473
1761468891165323500,6.982323486328125,-0.1208995850533247,-0.07284552904553711,-0.15161719673704355
1761468891175279400,6.992279296875,-0.16041852549314498,-0.09152567959614097,-0.18849581526853143
1761468891185235500,7.0022353515625,-0.1853793637484312,-0.08232778927050531,-0.20933391103800386
1761468891195190500,7.0121904296875,-0.1448626444429159,-0.0710875063970685,-0.20523520701490341
1761468891205146600,7.022146728515625,-0.04657002799510956,-0.09026362377107143,-0.15273651962317525
1761468891215102500,7.0321025390625,0.09791033913195132,-0.09619235623292624,-0.12892229411974548
1761468891225057300,7.042057373046875,0.1729611962020397,-0.09293978417776524,-0.07624485262762755
1761468891235013400,7.052013427734375,0.19384674784243106,-0.051528819446265695,-0.04047470679469407
1761468891244969500,7.061969482421875,0.16681494853198528,-0.03829560918994248,0.009574833879247307
1761468891254925600,7.071925537109375,0.1303197398275137,0.001786737286299467,0.037264658707007764
1761468891264880400,7.08188037109375,0.055260114929080006,0.00930975320227444,0.04109163311664015
1761468891274836500,7.09183642578125,-0.006217559340596199,0.005531330642104149,0.039780733181163666
1761468891284792300,7.101792236328125,-0.05650514655411243,0.014378069442510605,0.05050130302943289
1761468891294747400,7.111747314453125,-0.0798906983166933,0.003276902778819203,0.05819050582516938
1761468891304703500,7.121703369140625,-0.06769874074161052,-0.0313720935370773,0.06337579950857908
1761468891314659300,7.131659423828125,-0.03025485301017761,-0.06455247860513627,0.06554835777468979
1761468891324614400,7.141614501953125,-0.005728314518928528,-0.08387224223352968,0.0756518551705405
1761468891334570500,7.151570556640625,-0.019081132566928862,-0.08240838022604584,0.0691756814263761
1761468891344526600,7.161526611328125,-0.011971008300781249,-0.06239793091975152,0.05801617217157036
1761468891354481400,7.1714814453125,-0.035704935109615324,-0.05523987585864961,0.0368531187640503
1761468891364437500,7.1814375,-0.053362756875157354,-0.0388371687207371,0.015978307713381944
1761468891374393300,7.191393310546875,-0.0643225423067808,-0.045959129555150864,-0.028436186215654014
1761468891384349400,7.201349365234375,-0.015459434938430786,-0.054915320079401135,-0.05805394689869135
1761468891394304500,7.211304443359375,0.025039748710393904,-0.04170198356732726,-0.09188114197030663
1761468891404260400,7.22126025390625,0.04300502898991108,-0.04499079597964883,-0.09928042190875858
1761468891414216400,7.231216552734375,0.0017518121033906935,-0.026711408249661325,-0.09251987826526165
1761468891424171500,7.241171630859375,-0.015100538498163223,0.01813471856229007,-0.08617474702224134
1761468891434127600,7.251127685546875,0.02205634898543358,0.04407390033043921,-0.08185673769265413
1761468891444083500,7.26108349609375,0.055392216876149175,0.02608684661053121,-0.07946739487070589
1761468891454038300,7.271038330078125,0.08641980782449245,0.018419161526858806,-0.08373232230618595
1761468891463994600,7.28099462890625,0.10301496879458427,0.003492079899460077,-0.08692863412946462
1761468891473950500,7.290950439453125,0.06910100875496863,-0.00783697723597288,-0.07853099080342799
1761468891483906600,7.300906494140625,0.012758359286189078,-0.020426336630806327,-0.08195877329502255
1761468891493861400,7.310861328125,-0.050340778705477714,-0.004778831774368882,-0.056713345944695175
1761468891503817500,7.3208173828125,-0.11516717888116836,0.00019566870257258415,-0.02794880455750972
1761468891513773600,7.330773681640625,-0.10138882889747619,-0.010433350404724479,0.00035158991664648053
1761468891523728400,7.340728271484375,-0.05208382298052311,-0.0015017828650772571,0.02693853153642267
1761468891533684500,7.3506845703125,-0.03444412139356136,-0.0026126667164266108,0.09810509451907128
1761468891543640300,7.360640380859375,-0.03406652025282383,0.028019860499724745,0.1502505114937201
1761468891553595600,7.370595703125,-0.07663432686924934,0.06898695392124354,0.12678195762280375
1761468891563551500,7.380551513671875,-0.15783026256561278,0.05787599651589989,0.10536741367224603
1761468891573507600,7.390507568359375,-0.16470073285698889,0.037150311612337825,0.06752301884852349
1761468891583462400,7.40046240234375,-0.12824410259723662,-0.007922828888520597,0.014442841774411498
1761468891593418200,7.410418212890625,-0.07401216167211531,-0.020925299128890035,-0.0015910685837268828
1761468891603374600,7.42037451171875,-0.018454525101184845,-0.028670652558654544,0.01203285802323371
1761468891613330400,7.430330322265625,0.003113748106360435,-0.012245733588933943,0.03572890050709247
1761468891623285500,7.440285400390625,0.008811082965135573,0.01046016534641385,0.04759520632438361
1761468891633241300,7.450241455078125,0.0076028762191534035,0.010725099892914295,0.044159751982986925
1761468891643197400,7.460197509765625,0.03329962753355503,0.0007595861956477165,0.016306261026114224
1761468891653152500,7.470152587890625,0.06814531546533108,-0.01741203031092882,-0.019390490777045487
1761468891663108400,7.4801083984375,0.07717442509531974,-0.037428617097064854,-0.035221170180663466
1761468891673064400,7.490064453125,0.03361059317886829,-0.048538770784810184,-0.045641040049307045
1761468891683019500,7.50001953125,-0.02653846283555031,-0.03679017306305468,-0.06490987720806152
1761468891692975600,7.5099755859375,-0.04630348601341247,-0.05228584835864603,-0.05561203363928943
1761468891702931500,7.519931396484375,0.00037292496562004086,-0.07713526212871075,-0.06950005454253405
1761468891712886500,7.529886474609375,0.05610182645022869,-0.08255626426413655,-0.04408606569226831
1761468891722842400,7.53984228515625,0.109727618175745,-0.08021554635688662,-0.00878865193761885
1761468891732798500,7.549798583984375,0.10910101071000099,-0.08701718919575215,0.002702463891729712
1761468891742754600,7.559754638671875,0.06268763458132744,-0.06553937075063586,0.010515914121642708
1761468891752709400,7.56970947265625,0.010098200166225433,-0.031666034982353444,-0.007953114428929984
1761468891762665500,7.57966552734375,-0.06321078167259693,-0.011019552794843911,-0.007836867638118564
1761468891772621300,7.589621337890625,-0.1285147362321615,0.005128375864401459,-0.0075335007773712276
1761468891782576600,7.59957666015625,-0.1286421620041132,0.010969137781858443,-0.000010338730923831463
1761468891792532500,7.609532470703125,-0.08603577694296836,0.029078429641947148,0.05134703313857317
1761468891802488600,7.619488525390625,-0.030423195314407347,0.029658129226043817,0.08322747805658727
1761468891812443400,7.629443359375,0.020115736311674116,0.03630509295985102,0.09138013364560901
1761468891822399500,7.6393994140625,0.04989069685041904,0.05563756993934512,0.07925393478311597
1761468891832355600,7.64935546875,0.05023147311210632,0.04626571128629148,0.057666080092266196
1761468891842310400,7.659310302734375,0.07803308775126934,0.024175313900783656,-0.0031610213141888377
1761468891852266500,7.6692666015625,0.06883095964193343,0.02098857362344861,-0.02611519592218101
1761468891862222300,7.679222412109375,0.0426338575899601,0.02664893747270107,-0.06104260732065886
1761468891872178400,7.689178466796875,0.01466623873412609,0.00902465265057981,-0.08479907475486398
1761468891882133500,7.699133544921875,-0.022292495828866957,-0.00864127935618162,-0.05294836738798767
1761468891892089300,7.70908935546875,-0.022039397850632667,0.030806860869750378,-0.032336043198406696
1761468891902045400,7.71904541015625,0.01414601425230503,0.017264949990436432,-0.028908808696083723
1761468891912000500,7.72900048828125,0.045430210310220716,-0.009587035773694515,-0.017024126971885562
1761468891921956600,7.73895654296875,0.05997779110074043,-0.009223609288781881,-0.006899659853242338
1761468891931912400,7.748912353515625,0.004650456154346466,0.0032855244766920805,-0.015507219602912663
1761468891941867800,7.75886767578125,-0.0976806220293045,0.026354630701243876,-0.03696874450035393
1761468891951823600,7.76882373046875,-0.13481646672487257,0.04872187226675451,-0.022539967783913015
1761468891961779700,7.77877978515625,-0.12846096021831035,0.055053851767256856,-0.021773075064644216
1761468891971734800,7.78873486328125,-0.12426350852847098,0.050217809912934896,-0.005351151769608259
1761468891981690600,7.798690673828125,-0.0681482380747795,0.04528254546783864,-0.03137603905983269
1761468891991646700,7.808646728515625,0.0032891046732664107,0.049193800627440214,-0.011770663423091172
1761468892001602600,7.8186025390625,0.00907879399061203,0.020183175524696707,0.08883216619584709
1761468892011558000,7.828557861328125,0.0589157148271799,0.047904053077846766,0.04836914983894676
1761468892021513700,7.838513671875,0.05213759899437427,0.050474049696326254,0.04309036918580532
1761468892031469800,7.8484697265625,0.007955927440524101,0.028492300317063925,0.027745500537753105
1761468892041424600,7.858424560546875,-0.0221773450165987,0.029787089367955922,-0.006951682301424443
1761468892051380700,7.868380615234375,-0.026282442247867584,0.025051439148187638,-0.011963080722652375
1761468892061336800,7.8783369140625,-0.0606587591022253,0.02401215922832489,-0.01668872100505978
1761468892071291600,7.888291748046875,-0.10750526595115661,0.021686127433553335,-0.01704586387965828
1761468892081247700,7.898247802734375,-0.13809972617924213,0.021017507456988094,-0.01617317269835621
1761468892091203600,7.90820361328125,-0.062457917478680604,0.008792086003720759,-0.002885200047492981
1761468892101158700,7.91815869140625,0.0744534756988287,0.01350413615219295,0.037443084013834595
1761468892111114800,7.92811474609375,0.14222469715476035,0.013872750268876553,0.06719327543750404
1761468892121070600,7.938070556640625,0.14775135162174702,-0.011944120293855666,0.07125661588627845
1761468892131026700,7.948026611328125,0.06866027925014495,-0.0010873568452894687,0.08406849545799196
1761468892140981800,7.957981689453125,-0.050985506349802014,0.0024951778165996073,0.03950451005566865
1761468892150937900,7.967937744140625,-0.16782617140114306,-0.008128288332745433,-0.003583521042577922
1761468892160893700,7.977893798828125,-0.1967635120719671,-0.0041395109575241805,-0.009147621443122625
1761468892170848500,7.9878486328125,-0.17596563871502877,0.0076809829566627736,0.006063355159573257
1761468892180804600,7.9978046875,-0.10808628070950507,0.0026673195131123066,0.003663198682665825
1761468892192626700,8.009626708984374,0.010282909083366393,-0.02750913449861109,0.013720993773266672
1761468892202581800,8.019581787109376,0.07293430330753325,-0.06721782535687089,0.0407469843974337
1761468892212537900,8.029537841796875,0.07551438292860985,-0.053734147470816965,0.008855725824460387
1761468892222493700,8.03949365234375,0.027311785295605656,-0.04975384566299617,-0.08356982522085309
1761468892232449800,8.04944970703125,-0.10433891087472438,-0.027705899179726837,-0.16348799606636166
1761468892242404600,8.059404541015626,-0.17956863164305686,-0.036413375639915466,-0.044888358518481254
1761468892252360700,8.069360595703126,-0.13492401875257493,-0.015180471866577862,0.017740422015078364
1761468892262315800,8.079315673828125,0.002155132207274437,0.01109839018471539,0.05753196885120123
1761468892272271600,8.089271728515625,0.11981237433850765,-0.009592442601174115,0.14706048328075558
1761468892282227700,8.099227783203125,0.18585224195718764,-0.014728490315377712,0.20625351721197366
1761468892292183600,8.10918359375,0.20978256812095641,-0.021320435926318167,0.16118808509353547
1761468892302139000,8.119138916015626,0.23616262552440165,-0.05841646006815135,0.13200586628355085
1761468892312094700,8.1290947265625,0.17935118950009346,-0.0400597693182528,0.0796759961200878
1761468892322050800,8.13905078125,0.042406478574872015,-0.049444049061462284,0.004696012329123914
1761468892332005600,8.149005615234374,-0.029122634109854696,-0.04052855587378144,-0.00876709769293666
1761468892341961700,8.158961669921876,-0.08398001345694064,-0.01778648964650929,0.019136442950740455
1761468892351917800,8.168917724609376,-0.13406126444339753,-0.006823927735909819,0.05607515763901174
1761468892361872600,8.17887255859375,-0.026766426372528074,0.01267864511348307,0.12156626880113035
1761468892371828700,8.188828857421875,-0.007909165689349174,0.005000657831504941,0.1711404470482841
1761468892381784600,8.19878466796875,-0.023092121773958203,0.0399983214545995,0.11756163626965134
1761468892391739600,8.20873974609375,-0.01477729789316654,-0.013543737510219216,0.08616247206255793
1761468892401695700,8.21869580078125,-0.0804267048895359,-0.04624145362786949,0.035533049141429365
1761468892411651600,8.228651611328125,-0.09540800092220306,-0.03028955899737775,-0.08205784975532442
1761468892421607700,8.238607666015625,-0.09510171145200728,-0.040010304153338075,-0.058618814239837225
1761468892431562800,8.248562744140624,-0.10066577531993388,-0.03922434140741825,-0.032220052135922016
1761468892441518800,8.258518798828124,-0.19618600444495676,-0.047532151025533674,-0.09975414036773145
1761468892451474700,8.268474609375,-0.20539865394830703,-0.028364874545112252,-0.15008874506074935
1761468892461429500,8.278429443359375,-0.12282909181118011,-0.060660877994075414,-0.1445399152945727
1761468892471385600,8.288385498046875,-0.019254735568165777,-0.05218180346228182,-0.1384965800097212
1761468892481341700,8.298341796875,0.12685235597789288,-0.006261617678031325,-0.09268610167764127
1761468892491296800,8.308296875,0.1959533647328615,-0.025214666885882614,0.037587826246768236
1761468892501252600,8.318252685546875,0.32086861516833304,-0.001508870192989707,0.0814892560871318
1761468892511208700,8.328208740234375,0.27357202646434303,0.032376886665448544,0.13341701172310858
1761468892521164500,8.33816455078125,0.15733224991559983,0.05661350229941308,0.06632442018110304
1761468892531119900,8.348119873046874,0.03600011866390705,0.07756159778200089,-0.0028698198152706023
1761468892541697800,8.35869775390625,0.04076864823997021,-0.013070274779573083,0.005535093501769006
1761468892551653600,8.368653564453124,-0.0281073195874691,-0.022194953738525508,0.013704152236320077
1761468892561609700,8.378609619140626,0.08739712842404841,-0.02088745133653283,-0.00339556072242558
1761468892571564800,8.388564697265625,0.15583938100934028,-0.09711685066670178,0.03644318625628948
1761468892581521000,8.39852099609375,0.1037450366348028,-0.12636018854677677,0.06899236074872314
1761468892591476700,8.408476806640625,-0.017044658303260803,-0.12108261347003281,0.07315291449427604
1761468892601432800,8.418432861328125,-0.12833879514336585,-0.12877908625677228,0.07994345141723752
1761468892611387600,8.4283876953125,-0.20784604710042476,-0.13405154676698147,0.12845880479384214
1761468892621343500,8.438343505859375,-0.30321020888090133,-0.12077763917408883,0.1401580104159191
1761468892631299800,8.4482998046875,-0.35897184359133244,-0.10535144891813397,0.11185184378810226
1761468892641254700,8.458254638671875,-0.33990064789652824,-0.10826346390731632,0.07987330879047512
1761468892651210800,8.468210693359374,-0.27183365836441514,-0.13485058819018303,-0.025629239036142823
1761468892661166600,8.47816650390625,-0.2611965290158987,-0.12178988495655357,-0.18744480837825683
1761468892671121700,8.48812158203125,-0.2325099482357502,-0.11625146698653697,-0.08296035155300051
1761468892681077800,8.498077880859375,-0.12505845829844475,-0.09329970353133976,0.051215661843866105
1761468892691033600,8.50803369140625,-0.0002963525980710983,-0.009199205499887467,0.07899367641173302
1761468892700989700,8.51798974609375,0.09923486573398113,0.0623315876852721,0.026394195526652037
1761468892710944800,8.52794482421875,0.17237492074668406,0.03894084829092025,-0.025274215053394434
1761468892720900900,8.53790087890625,0.19437398658692837,0.01562507382892072,-0.08690507059078663
1761468892730856700,8.547856689453125,0.22429390855431555,-0.011027663036063312,-0.15652743633873759
1761468892740811800,8.557811767578125,0.19093290622234343,0.0031035920385271308,-0.16283070120140908
1761468892750767600,8.567767578125,0.0819774414628744,0.01702127742767334,-0.1211352569727227
1761468892760723700,8.5777236328125,0.030413258442282674,0.04980382228456437,-0.15083287795893846
1761468892770678800,8.5876787109375,0.040841128954291345,0.034664924537390465,-0.21575017128847537
1761468892780634600,8.597634521484375,0.019862638333439826,0.012781228705123066,-0.1895940223013982
1761468892790590700,8.6075908203125,-0.00922083280980587,-0.018768267225474117,-0.1923665557546541
1761468892800546600,8.617546630859374,0.02863105120062828,-0.02868964952006936,-0.18126641200426966
1761468892810502000,8.627501953125,0.0965437269538641,-0.05244169650748372,-0.1563175199151039
1761468892820457700,8.637457763671875,0.1456511644721031,-0.09227189485356212,-0.16452749518193305
1761468892830413800,8.647413818359375,0.16069441982507704,-0.0863114520791918,-0.18495036121401934
1761468892840368600,8.65736865234375,0.10504092166423797,-0.0676141311980784,-0.14308379820212722
1761468892850324700,8.66732470703125,-0.036108839735388754,-0.06414177891239524,-0.07493377002906054
1761468892860280800,8.67728076171875,-0.0735340227663517,0.0008569090902805328,-0.03588109539411962
1761468892870235600,8.687235595703125,-0.09530454054772854,0.021890929290652273,0.02831486139092594
1761468892880191700,8.697191650390625,-0.14250877479314802,0.039751214825734495,0.11046301977820694
1761468892890147600,8.707147705078125,-0.11636077257990836,0.044902240913361306,0.15605989189222455
1761468892900103700,8.717103759765624,-0.10002806193828583,0.014914587472006679,0.13756452332399785
1761468892910058800,8.727058837890626,-0.050853404402732845,0.024759981920942663,0.1076240334926173
1761468892920014600,8.7370146484375,-0.09169511787891388,-0.0058196460641920566,0.12092924953922629
1761468892929970700,8.746970703125,-0.18222119197845457,0.00010185293927788733,0.0699973000075668
1761468892939925800,8.75692578125,-0.17473872726857662,0.042738560073450206,0.012446918716840446
1761468892949881900,8.7668818359375,-0.11906886249482632,-0.022947452606260774,0.008613076175004243
1761468892959837700,8.776837646484376,-0.20921908901929853,-0.005007306768000126,-0.08651424464229494
1761468892969792500,8.78679248046875,-0.10612696333527565,-0.03133957950696349,-0.13328743052668868
1761468892979748600,8.79674853515625,0.12327683557868004,-0.0731263187482953,0.06041698623560369
1761468892989704700,8.80670458984375,0.20809096177220343,-0.03655322250202298,-0.015111096424795686
1761468892999660800,8.816660888671874,0.2442518239557743,-0.025009938094019888,-0.028012115584686397
1761468893009615600,8.82661572265625,0.21237141557037828,-0.0507956828661263,-0.005901369530893862
1761468893019571700,8.83657177734375,0.2487999887794256,-0.026863018614798784,-0.012511581450887023
1761468893029527600,8.846527587890625,0.225764565628767,-0.03978986633569002,-0.03422350091282278
1761468893039483000,8.85648291015625,0.2905634932756424,-0.045153146934509274,-0.00020969722792506216
1761468893049438700,8.866438720703124,0.35471944684386253,-0.036775925341993566,0.04124664101526141
1761468893059394600,8.87639453125,0.4096498914271593,-0.030124577694013714,0.05447174103036523
