time,seconds_elapsed,z,y,x
1761468884242384400,0.05938427734375,0.048998404294252396,-0.1525280624628067,-0.2140478938817978
1761468884252340200,0.06934033203125,0.03697289898991585,-0.12709754705429077,-0.16228508949279785
1761468884262296300,0.07929638671875,0.006285499781370163,-0.09975823760032654,-0.09609969705343246
1761468884272252400,0.08925244140625,-0.024396512657403946,-0.06741521507501602,-0.03281606733798981
1761468884282207200,0.099207275390625,-0.0329674556851387,-0.04800236597657204,0.008546808734536171
1761468884292163300,0.109163330078125,-0.019768565893173218,-0.04026881232857704,0.024799814447760582
1761468884302119200,0.119119140625,0.009815378114581108,-0.02847233973443508,0.02516532689332962
1761468884312074500,0.129074462890625,0.03637055680155754,-0.012261679396033287,0.025853220373392105
1761468884322030300,0.1390302734375,0.04742692410945892,-0.017869675531983376,0.028037697076797485
1761468884331986400,0.148986328125,0.04692518711090088,-0.034046247601509094,0.03734730929136276
1761468884341941200,0.158941162109375,0.04652981832623482,-0.047009628266096115,0.049210868775844574
1761468884351897300,0.1688974609375,0.04559424892067909,-0.054832667112350464,0.05324289947748184
1761468884361853400,0.178853515625,0.04131023585796356,-0.052516691386699677,0.061822280287742615
1761468884371808300,0.188808349609375,0.030976900830864906,-0.03069341741502285,0.07074546813964844
1761468884381764400,0.198764404296875,0.02154836803674698,-0.010247531346976757,0.07481113821268082
1761468884391720200,0.20872021484375,0.013133044354617596,-0.0019664322026073933,0.07737310230731964
1761468884401675300,0.21867529296875,0.00754841323941946,-0.00011038533557439223,0.08455188572406769
1761468884411631400,0.22863134765625,-0.0024317828938364983,0.012541493400931358,0.09033067524433136
1761468884421587200,0.238587158203125,-0.006991592235863209,0.040705665946006775,0.09326653182506561
1761468884431543300,0.248543212890625,-0.010145040228962898,0.06679505109786987,0.085811547935009
1761468884441498400,0.258498291015625,-0.01715683937072754,0.07993527501821518,0.06460686028003693
1761468884451454500,0.268454345703125,-0.02491995505988598,0.07191409915685654,0.0354982428252697
1761468884461410300,0.278410400390625,-0.034212689846754074,0.04872559756040573,0.019588379189372063
1761468884471365400,0.288365478515625,-0.04356038197875023,0.029377998784184456,0.02221984788775444
1761468884481321200,0.2983212890625,-0.04754577577114105,0.019030285999178886,0.03457166999578476
1761468884491277600,0.308277587890625,-0.04595001041889191,0.015624902211129665,0.0382969006896019
1761468884501232400,0.318232421875,-0.036650609225034714,0.011060154996812344,0.03433659300208092
1761468884511188200,0.328188232421875,-0.023318294435739517,-0.007497550453990698,0.028547680005431175
1761468884521144300,0.338144287109375,-0.014128862880170345,-0.03924216330051422,0.017888691276311874
1761468884531099400,0.348099365234375,-0.006018739193677902,-0.0537545271217823,0.01365213468670845
1761468884541055500,0.358055419921875,-0.00019530573626980186,-0.040079373866319656,0.019243046641349792
1761468884551011300,0.36801123046875,0.001077685272321105,-0.02378801815211773,0.030407283455133438
1761468884560967400,0.377967529296875,0.009215882048010826,-0.0034621511586010456,0.04705201834440231
1761468884570922500,0.387922607421875,0.010171158239245415,0.008726071566343307,0.06405177712440491
1761468884580878300,0.39787841796875,0.00969900842756033,0.011174581944942474,0.07108046859502792
1761468884590834400,0.40783447265625,0.008599122986197472,-0.003157751401886344,0.07397346198558807
1761468884600789200,0.417789306640625,0.007004367653280497,-0.011581772938370705,0.08554810285568237
1761468884610745300,0.427745361328125,0.008883494883775711,0.00554661313071847,0.10072226077318192
1761468884620701400,0.437701416015625,0.017387526109814644,0.026812132447957993,0.10993244498968124
1761468884630656300,0.44765625,0.0254377294331789,0.031690508127212524,0.10418694466352463
1761468884640612400,0.4576123046875,0.028665438294410706,0.02421092987060547,0.0902620255947113
1761468884650568200,0.467568115234375,0.029841223731637,0.01620573364198208,0.07018338888883591
1761468884660523500,0.4775234375,0.02712365798652172,-0.002789170015603304,0.04626629501581192
1761468884670479400,0.487479248046875,0.019855093210935593,-0.024496596306562424,0.02344699762761593
1761468884680435500,0.497435546875,0.016801493242383003,-0.03510831668972969,0.016481533646583557
1761468884690391300,0.507391357421875,0.011712990701198578,-0.02378615364432335,0.014581901952624321
1761468884700346000,0.51734619140625,0.004070866387337446,-0.0007922430522739887,0.015256550163030624
1761468884710302500,0.527302490234375,-0.009859330020844936,0.009367716498672962,0.008444717153906822
1761468884720258300,0.53725830078125,-0.02303417958319187,0.013423177413642406,-0.000036698998883366585
1761468884730213400,0.54721337890625,-0.02825850248336792,0.011345645412802696,-0.007351071108132601
1761468884740169200,0.557169189453125,-0.0320189893245697,-0.008178787305951118,-0.0019150604493916035
1761468884750125300,0.567125244140625,-0.032147351652383804,-0.017683876678347588,0.012791447341442108
1761468884760080400,0.577080322265625,-0.024946849793195724,-0.014080265536904335,0.030272414907813072
1761468884770036200,0.5870361328125,-0.016346171498298645,-0.004336025565862656,0.04885488748550415
1761468884779992300,0.596992431640625,-0.009194188751280308,-0.0003127000236418098,0.06329065561294556
1761468884789947400,0.606947509765625,-0.003523519728332758,0.001485466375015676,0.07195205241441727
1761468884799903500,0.616903564453125,-0.004756116773933172,0.0054494962096214294,0.07122591137886047
1761468884809859300,0.626859375,0.0010929842246696353,0.007656990084797144,0.057347118854522705
1761468884819815400,0.6368154296875,0.001403967966325581,0.003406318835914135,0.043360769748687744
1761468884829770200,0.646770263671875,0.00037146033719182014,-0.005030575208365917,0.03530098497867584
1761468884839726300,0.656726318359375,-0.006453137379139662,-0.01036719512194395,0.02989419735968113
1761468884849682400,0.666682373046875,-0.011227653361856937,-0.0017539991531521082,0.017586132511496544
1761468884859637200,0.67663720703125,-0.009426859207451344,0.0050603183917701244,0.0007092186715453863
1761468884869593300,0.68659326171875,-0.0038946750573813915,0.008523759432137012,-0.00738492701202631
1761468884879549200,0.696549072265625,0.005976082757115364,0.00626735296100378,-0.009706972166895866
1761468884889504500,0.70650439453125,0.006576359272003174,-0.01013638824224472,-0.009438792243599892
1761468884899460400,0.71646044921875,0.0028430025558918715,-0.018391743302345276,-0.0007236553356051445
1761468884909416400,0.72641650390625,0.0004829092067666352,-0.007022442761808634,0.0166713148355484
1761468884919372300,0.736372314453125,0.0006274636834859848,0.014197448268532753,0.028043821454048157
1761468884929328000,0.746328125,0.0010301335714757442,0.024361401796340942,0.03666900470852852
1761468884939284000,0.756283935546875,0.0036711078137159348,0.025552190840244293,0.038701191544532776
1761468884949240300,0.766240234375,0.007535088341683149,0.014922448433935642,0.03494320064783096
1761468884959195100,0.776195068359375,0.012143461033701897,-0.008355623111128807,0.025449592620134354
1761468884969151000,0.78615087890625,0.013333894312381744,-0.017593862488865852,0.01815306395292282
1761468884979107000,0.796107177734375,0.014544373378157616,-0.01006324216723442,0.018973270431160927
1761468884989062100,0.806062255859375,0.015306303277611732,0.003275999566540122,0.024077484384179115
1761468884999018200,0.816018310546875,0.012333563528954983,0.013492153026163578,0.02045256271958351
1761468885008974000,0.82597412109375,0.008988899178802967,0.014867941848933697,0.009942131116986275
1761468885018929200,0.83592919921875,0.00004063150845468044,0.010537909343838692,-0.004263575654476881
1761468885028885200,0.84588525390625,-0.007992527447640896,0.011910502798855305,-0.016030753031373024
1761468885038841300,0.85584130859375,-0.013470971025526524,0.012575848959386349,-0.023670019581913948
1761468885048797200,0.865797119140625,-0.014426779933273792,0.011911390349268913,-0.025692690163850784
1761468885058752000,0.875751953125,-0.01381082646548748,0.008510886691510677,-0.022771397605538368
1761468885068708000,0.8857080078125,-0.00509936036542058,0.009033932350575924,-0.010416194796562195
1761468885078664200,0.895664306640625,0.0032642448786646128,0.00942026823759079,0.0006004215683788061
1761468885088619300,0.905619384765625,0.009781000204384327,0.012543091550469398,0.013418215326964855
1761468885098575000,0.9155751953125,0.015416615642607212,0.018140077590942383,0.02474646084010601
1761468885108531200,0.92553125,0.01850162073969841,0.0020985258743166924,0.027162745594978333
1761468885118486300,0.935486328125,0.02077019214630127,-0.004908159840852022,0.029365630820393562
1761468885128442000,0.945442138671875,0.02576015703380108,0.006542900111526251,0.04002067446708679
1761468885138398200,0.955398193359375,0.03468836843967438,0.012851309031248093,0.050085533410310745
1761468885148353000,0.96535302734375,0.04402647539973259,0.018507596105337143,0.05308904871344566
1761468885158309000,0.97530908203125,0.04977940022945404,0.015532665885984898,0.06117767095565796
1761468885168265200,0.98526513671875,0.0590226985514164,0.018546566367149353,0.06086261570453644
1761468885178221300,0.99522119140625,0.06751269847154617,0.0182532649487257,0.053637079894542694
1761468885188176100,1.005176025390625,0.07161662727594376,0.014953607693314552,0.03935135155916214
1761468885198132000,1.015132080078125,0.07384183257818222,0.0020030061714351177,0.020222965627908707
1761468885208088000,1.025088134765625,0.07176749408245087,-0.015265462920069695,0.006049888674169779
1761468885218043100,1.035043212890625,0.07073818892240524,-0.0126491729170084,0.004347862210124731
1761468885227999200,1.044999267578125,0.07011713832616806,0.007403364405035973,0.01067659817636013
1761468885237955000,1.054955078125,0.06773257255554199,0.017302514985203743,0.011079730466008186
1761468885247910100,1.06491015625,0.07022635638713837,0.016403697431087494,0.005784033797681332
1761468885257866200,1.0748662109375,0.07188326120376587,0.022551607340574265,-0.0071752676740288734
1761468885267822000,1.084822021484375,0.06609727442264557,0.011319723911583424,-0.02282187156379223
1761468885277778200,1.094778076171875,0.059772539883852005,-0.012789694592356682,-0.03896477073431015
1761468885287733000,1.10473291015625,0.050517257302999496,-0.03397327661514282,-0.04234085977077484
1761468885297689000,1.114689208984375,0.03972410038113594,-0.03927998244762421,-0.030635608360171318
1761468885307645200,1.124645263671875,0.03323451057076454,-0.030591951683163643,-0.0062740761786699295
1761468885317600000,1.13460009765625,0.02749785967171192,-0.006718488875776529,0.02327912673354149
1761468885327556000,1.14455615234375,0.021940110251307487,0.022317957133054733,0.04926811531186104
1761468885337512000,1.154511962890625,0.015559541992843151,0.03604362532496452,0.05604003742337227
1761468885347467300,1.16446728515625,0.006429692730307579,0.027557460591197014,0.04739594832062721
1761468885357423000,1.174423095703125,-0.009154895320534706,0.0018340755486860871,0.031756073236465454
1761468885367379200,1.184379150390625,-0.019959338009357452,-0.018911948427557945,0.017483927309513092
1761468885377334000,1.194333984375,-0.022168569266796112,-0.021434051916003227,0.01094980351626873
1761468885387290000,1.2042900390625,-0.019003666937351227,-0.007920106872916222,0.006100187078118324
1761468885397246200,1.21424609375,-0.017359865829348564,-0.00389713398180902,0.003935868851840496
1761468885407202300,1.224202392578125,-0.015456505119800568,-0.007859384641051292,0.0031797976698726416
1761468885417157000,1.2341572265625,-0.013895506039261818,-0.011966247111558914,-0.0010651880875229836
1761468885427113000,1.244113037109375,-0.018390923738479614,-0.017141034826636314,-0.004823707044124603
1761468885437069000,1.254069091796875,-0.018056979402899742,-0.004324129782617092,-0.0031171180307865143
1761468885447024000,1.264024169921875,-0.020558752119541168,0.0067253257147967815,0.0005322117358446121
1761468885456980200,1.273980224609375,-0.024120327085256577,0.005648165941238403,0.006460998207330704
1761468885466936000,1.28393603515625,-0.02792385220527649,0.00003022782038897276,0.00941843818873167
1761468885476891100,1.29389111328125,-0.028544435277581215,0.000018155056750401855,0.01135684922337532
1761468885486847200,1.30384716796875,-0.02898358926177025,0.00014039414236322045,0.014304702170193195
1761468885496803000,1.313802978515625,-0.02755899168550968,0.0015830290503799915,0.016704164445400238
1761468885506758100,1.323758056640625,-0.024749355390667915,0.006726924329996109,0.02279028668999672
1761468885516714000,1.3337138671875,-0.028821054846048355,0.013355444185435772,0.022277742624282837
1761468885526670300,1.34367041015625,-0.038265421986579895,0.01277567446231842,0.008191751316189766
1761468885536626200,1.353626220703125,-0.046496905386447906,0.0039032651111483574,-0.005010533612221479
1761468885546581000,1.3635810546875,-0.04744312912225723,-0.0016494259471073747,-0.013013333082199097
1761468885556537000,1.373537109375,-0.041802726686000824,-0.0037149761337786913,-0.02075379714369774
1761468885566493000,1.383492919921875,-0.03701090067625046,-0.0016888432437554002,-0.022790582850575447
1761468885576448300,1.3934482421875,-0.03361291438341141,-0.0017395332688465714,-0.02627001516520977
1761468885586404000,1.403404052734375,-0.0364353321492672,-0.006105519365519285,-0.026764564216136932
1761468885596360200,1.413360107421875,-0.0395965613424778,-0.010847986675798893,-0.027662836015224457
1761468885606315000,1.42331494140625,-0.03456718102097511,-0.01212150976061821,-0.018275460228323936
1761468885616271000,1.43327099609375,-0.025580795481801033,-0.003047941718250513,-0.004346526227891445
1761468885626227200,1.443227294921875,-0.02326597459614277,0.0058094654232263565,0.011405538767576218
1761468885636183000,1.45318310546875,-0.02875768020749092,0.015190450474619865,0.011561067774891853
1761468885646138000,1.46313818359375,-0.035109054297208786,0.019332731142640114,0.0005917733069509268
1761468885656094000,1.473093994140625,-0.04153047874569893,0.018663566559553146,-0.01745472103357315
1761468885666050300,1.48305029296875,-0.046854402869939804,0.002678741468116641,-0.03321237862110138
1761468885676005000,1.493005126953125,-0.04362579435110092,-0.010393474251031876,-0.04077949374914169
1761468885685961200,1.502961181640625,-0.040338121354579926,-0.01564869098365307,-0.038853228092193604
1761468885695917000,1.5129169921875,-0.03793026879429817,-0.012788631021976471,-0.027058705687522888
1761468885705872100,1.5228720703125,-0.03395310416817665,-0.0035325479693710804,-0.00938064232468605
1761468885715828200,1.532828125,-0.03064303658902645,0.01115850917994976,0.007681758608669043
1761468885725784000,1.5427841796875,-0.02822435460984707,0.024780044332146645,0.016562335193157196
1761468885735739100,1.5527392578125,-0.020088475197553635,0.017510509118437767,0.017236866056919098
1761468885745695200,1.5626953125,-0.0209079310297966,0.003305740188807249,0.011522520333528519
1761468885755651300,1.5726513671875,-0.023495927453041077,-0.007325776852667332,0.008171036839485168
1761468885765607200,1.582607177734375,-0.024708731099963188,-0.008621670305728912,0.007123615127056837
1761468885775562000,1.59256201171875,-0.024846993386745453,-0.008586516603827477,0.007013753522187471
1761468885785518000,1.60251806640625,-0.024637935683131218,-0.0089644193649292,0.008962122723460197
1761468885795474200,1.61247412109375,-0.022293811663985252,-0.01093604601919651,0.00568548496812582
1761468885805429200,1.62242919921875,-0.01914568804204464,-0.012116093188524246,0.0047515141777694225
1761468885815385000,1.632385009765625,-0.009025529958307743,-0.007383480202406645,0.01118571124970913
1761468885825341200,1.642341064453125,-0.002657645381987095,-0.0061509693041443825,0.013686154037714005
1761468885835296300,1.652296142578125,-0.0019389783265069127,-0.015480021946132183,0.013686327263712883
1761468885845252000,1.662252197265625,-0.0031794786918908358,-0.01705554686486721,0.012625857256352901
1761468885855208200,1.672208251953125,-0.003714993130415678,-0.01868939772248268,0.01248511578887701
1761468885865163000,1.6821630859375,-0.005942194722592831,-0.016067516058683395,0.012922406196594238
1761468885875119000,1.692119140625,-0.009132030420005322,-0.006059620529413223,0.01277117244899273
1761468885885075200,1.7020751953125,-0.010627394542098045,0.00044914480531588197,0.01560663990676403
1761468885895031300,1.71203125,-0.009418659843504429,-0.002772215288132429,0.018576376140117645
1761468885904986000,1.721986083984375,-0.011393659748136997,-0.004278498701751232,0.016578208655118942
1761468885914942000,1.73194189453125,-0.012629769742488861,-0.005154235288500786,0.013661189936101437
1761468885924898000,1.74189794921875,-0.012286487966775894,-0.006038671359419823,0.013323767110705376
1761468885934852000,1.75185205078125,-0.009908194653689861,-0.0124514726921916,0.014001460745930672
1761468885944808200,1.76180810546875,-0.0027655961457639933,-0.02053576521575451,0.014757530763745308
1761468885954764000,1.771763916015625,0.000375676027033478,-0.017222793772816658,0.021834036335349083
1761468885964719400,1.78171923828125,0.00045370665611699224,-0.00979630183428526,0.032378822565078735
1761468885974675200,1.79167529296875,0.0010740022407844663,-0.008842891082167625,0.033736906945705414
1761468885984631300,1.80163134765625,0.004393898881971836,-0.003153313184157014,0.03340907394886017
1761468885994586000,1.811586181640625,0.00627085892483592,0.010317932814359665,0.02625313401222229
1761468886004542200,1.821542236328125,0.006403218023478985,0.02371256798505783,0.01621781289577484
1761468886014498300,1.831498291015625,0.00630682148039341,0.03232984244823456,0.0064775096252560616
1761468886024454100,1.8414541015625,0.005414129700511694,0.041523873805999756,-0.006129362154752016
1761468886034409200,1.8514091796875,0.005762038286775351,0.03162810206413269,-0.016124172136187553
1761468886044365000,1.861364990234375,0.0051857298240065575,0.010309232398867607,-0.023099523037672043
1761468886054321400,1.8713212890625,0.0020599043928086758,0.0009825759334489703,-0.027272917330265045
1761468886064276200,1.881276123046875,0.0016351303784176707,-0.0130453584715724,-0.03133130818605423
1761468886074232000,1.891232177734375,0.0039788964204490185,-0.014333441853523254,-0.029496459290385246
1761468886084188200,1.901188232421875,0.00983438827097416,-0.009322438389062881,-0.023239627480506897
1761468886094143200,1.911143310546875,0.011243844404816628,-0.005265465471893549,-0.004214921034872532
1761468886104099300,1.921099365234375,0.008699459955096245,-0.002948515582829714,0.013507883064448833
1761468886114055200,1.93105517578125,0.0017488941084593534,-0.009051417000591755,0.024420244619250298
1761468886124010200,1.94101025390625,0.0002743017394095659,-0.011845072731375694,0.027701258659362793
1761468886133966000,1.950966064453125,-0.0013607145519927144,-0.009649206884205341,0.030933409929275513
1761468886143922400,1.96092236328125,-0.001380155561491847,-0.011273468844592571,0.0389801524579525
1761468886153877200,1.970877197265625,0.0003601115895435214,-0.007083164528012276,0.04793088883161545
1761468886163833000,1.9808330078125,-0.0010002311319112778,-0.000997042516246438,0.05204254388809204
1761468886173789200,1.9907890625,-0.00029947201255708933,-0.0038272712845355272,0.049167461693286896
1761468886183745000,2.0007451171875,0.0005988122429698706,-0.01232062466442585,0.046227067708969116
1761468886193700400,2.010700439453125,0.001942936796694994,-0.018125781789422035,0.043945085257291794
1761468886203656200,2.02065625,0.0073944274336099625,-0.006791634950786829,0.045521676540374756
1761468886213612300,2.0306123046875,0.00995496567338705,0.004143481142818928,0.04419257491827011
1761468886223567400,2.0405673828125,0.014362230896949768,0.01465417817234993,0.04050169885158539
1761468886233523200,2.050523193359375,0.018282154574990273,0.01385878212749958,0.03102213889360428
1761468886243479300,2.060479248046875,0.022076360881328583,-0.0006498527945950627,0.018239498138427734
1761468886253434000,2.07043408203125,0.022916782647371292,-0.021484028548002243,0.004540777299553156
1761468886263390200,2.08039013671875,0.02561190165579319,-0.0329422801733017,-0.0015791668556630611
1761468886273346300,2.09034619140625,0.02816428430378437,-0.03185872733592987,-0.000265846261754632
1761468886283301000,2.100301025390625,0.028061218559741974,-0.021181847900152206,0.011661652475595474
1761468886293257200,2.11025732421875,0.027690738439559937,0.0006796861998736858,0.03094904124736786
1761468886303213000,2.120213134765625,0.022634726017713547,0.01763470098376274,0.05320427939295769
1761468886313169200,2.130169189453125,0.021669045090675354,0.020887130871415138,0.0625315010547638
1761468886323124200,2.140124267578125,0.023666149005293846,0.018693750724196434,0.06092801317572594
1761468886333080300,2.150080322265625,0.0220037754625082,0.018866855651140213,0.05178610235452652
1761468886343036200,2.1600361328125,0.020285503938794136,0.01015379186719656,0.03352773189544678
1761468886352991200,2.1699912109375,0.015879863873124123,-0.013090010732412338,0.01112343929708004
1761468886362947300,2.179947265625,0.011408151127398014,-0.018252547830343246,-0.007227338384836912
1761468886372903200,2.189903076171875,0.008242020383477211,-0.003543200669810176,-0.014633195474743843
1761468886382858200,2.199858154296875,0.006630009040236473,0.004105131607502699,-0.01827906258404255
1761468886392814000,2.20981396484375,0.006854659412056208,0.006655375473201275,-0.013019146397709846
1761468886402770200,2.219770263671875,0.005100967828184366,0.0100258719176054,-0.003176635131239891
1761468886412725200,2.229725341796875,0.0030378554947674274,0.01889801397919655,0.002184865064918995
1761468886422681300,2.239681396484375,0.001804545521736145,0.013028939254581928,0.00205729971639812
1761468886432637200,2.24963720703125,0.001187673769891262,0.002141317818313837,0.005565318278968334
1761468886442593000,2.259593017578125,0.0023315015714615583,-0.0012627346441149712,0.010874062776565552
1761468886452548400,2.26954833984375,0.013482863083481789,-0.0018031795043498278,0.022176600992679596
1761468886462504200,2.279504150390625,0.02083132416009903,-0.002451925538480282,0.027482150122523308
1761468886472460300,2.289460205078125,0.0273254606872797,-0.00889828335493803,0.0314377099275589
1761468886482415000,2.2994150390625,0.030189955607056618,-0.006958703510463238,0.03408675640821457
1761468886492371200,2.30937109375,0.03698716312646866,-0.007009481079876423,0.03519805893301964
1761468886502327300,2.319327392578125,0.037682779133319855,-0.01755852811038494,0.03418099507689476
1761468886512282000,2.3292822265625,0.04224882274866104,-0.009807220660150051,0.03518393263220787
1761468886522238200,2.33923828125,0.043177466839551926,-0.00008828061982057989,0.03281291946768761
1761468886532194000,2.349194091796875,0.042586036026477814,0.0004362731415312737,0.022546153515577316
1761468886542149400,2.3591494140625,0.041204918175935745,0.00727979838848114,0.014049604535102844
1761468886552105200,2.369105224609375,0.03943604603409767,-0.0002598771534394473,0.004907239694148302
1761468886562061300,2.379061279296875,0.03401278704404831,-0.013154104351997375,-0.003125919494777918
1761468886572016000,2.38901611328125,0.02870509773492813,-0.01361873745918274,-0.012698501348495483
1761468886581972200,2.39897216796875,0.028017202392220497,-0.020928049460053444,-0.02410482056438923
1761468886591928300,2.40892822265625,0.02531619928777218,-0.018672263249754906,-0.03385216370224953
1761468886601883100,2.418883056640625,0.02201600931584835,-0.00928302202373743,-0.03568388521671295
1761468886611839200,2.428839111328125,0.014841286465525627,-0.0020552915520966053,-0.03047541342675686
1761468886621795000,2.438795166015625,0.006347933318465948,0.007591476663947105,-0.02049042470753193
1761468886631751400,2.44875146484375,0.004081932827830315,0.010391436517238617,-0.013802624307572842
1761468886641706200,2.458706298828125,0.0024435564409941435,0.00673837773501873,-0.0067449817433953285
1761468886651662000,2.468662109375,-0.0028741429559886456,0.004263412207365036,-0.005887049250304699
1761468886661618200,2.4786181640625,-0.007368759717792273,-0.000003237975761294365,-0.013788914307951927
1761468886671573200,2.4885732421875,-0.00966416485607624,-0.0086634811013937,-0.021183088421821594
1761468886681529300,2.498529296875,-0.010489212349057198,-0.017128605395555496,-0.02928442507982254
1761468886691485200,2.508485107421875,-0.010694111697375774,-0.021177144721150398,-0.03381343185901642
1761468886701440000,2.51843994140625,-0.005589097738265991,-0.023793699219822884,-0.030366236343979836
1761468886711396000,2.52839599609375,0.00017452420433983207,-0.026975199580192566,-0.025818772614002228
1761468886721352200,2.538352294921875,0.005934408865869045,-0.019374538213014603,-0.020621081814169884
1761468886731307300,2.548307373046875,0.008435916155576706,-0.013653801754117012,-0.012741319835186005
1761468886741263000,2.55826318359375,0.00894218310713768,-0.012317427434027195,-0.008806233294308186
1761468886751219200,2.56821923828125,0.00654815835878253,-0.007127813994884491,-0.003429554868489504
1761468886761174300,2.57817431640625,0.002987778279930353,-0.0036017890088260174,-0.0003381574060767889
1761468886771130400,2.58813037109375,-0.0008554834639653563,0.006680764257907867,-0.0032553724013268948
1761468886781086200,2.598086181640625,-0.0029055848717689514,0.011101878248155117,-0.007744662929326296
1761468886791042300,2.608042236328125,-0.009378951042890549,0.00810014083981514,-0.018154658377170563
1761468886800997400,2.617997314453125,-0.013341201469302177,-0.0031884664203971624,-0.0352441631257534
1761468886810953200,2.627953125,-0.0157125536352396,-0.00682208314538002,-0.05280792713165283
1761468886820909300,2.637909423828125,-0.015657693147659302,-0.014358828775584698,-0.06631788611412048
1761468886830864100,2.647864013671875,-0.014169583097100258,-0.02815569005906582,-0.07100994139909744
1761468886840820200,2.6578203125,-0.009352190420031548,-0.02665925957262516,-0.06282231956720352
1761468886850776300,2.6677763671875,-0.008501329459249973,-0.020173752680420876,-0.039825089275836945
1761468886860731100,2.677731201171875,-0.011907778680324554,-0.009925643913447857,-0.017267316579818726
1761468886870687200,2.687687255859375,-0.01813233643770218,0.008381281048059464,0.0038260305300354958
1761468886880643000,2.69764306640625,-0.027272038161754608,0.01967734657227993,0.017586583271622658
1761468886890598400,2.707598388671875,-0.033843040466308594,0.026615234091877937,0.023392969742417336
1761468886900554200,2.71755419921875,-0.03772992640733719,0.016245150938630104,0.019768407568335533
1761468886910510300,2.72751025390625,-0.037948496639728546,-0.007600525394082069,0.00786749366670847
1761468886920465200,2.737465087890625,-0.03341127187013626,-0.013772401958703995,0.004808320663869381
1761468886930421800,2.747421875,-0.029676852747797966,-0.015544735826551914,0.00642896955832839
1761468886940377600,2.757377685546875,-0.02602512575685978,-0.012849883176386356,0.013797404244542122
1761468886950332700,2.767332763671875,-0.025771284475922585,-0.004262519534677267,0.02201046608388424
1761468886960288800,2.777288818359375,-0.024807484820485115,0.00041186093585565686,0.022162798792123795
1761468886970244600,2.78724462890625,-0.019674941897392273,0.0050195734947919846,0.013075686991214752
1761468886980200700,2.79720068359375,-0.012151512317359447,-0.0022463290952146053,-0.0003461118321865797
1761468886990155800,2.80715576171875,-0.0056142136454582214,-0.004521646536886692,-0.010038129985332489
1761468887000111900,2.81711181640625,0.0031236177310347557,-0.012340154498815536,-0.016871800646185875
1761468887010067700,2.827067626953125,0.008028663694858551,-0.016454825177788734,-0.022880496457219124
1761468887020022800,2.837022705078125,0.01367589645087719,-0.013197247870266438,-0.02370048314332962
1761468887029979000,2.846978759765625,0.019413208588957787,-0.015654457733035088,-0.022499559447169304
1761468887039935000,2.85693505859375,0.020926417782902718,-0.016905611380934715,-0.01791279762983322
1761468887049889800,2.866889892578125,0.019693905487656593,-0.01193934679031372,-0.01032092422246933
1761468887059845600,2.876845703125,0.017710383981466293,-0.004532563500106335,-0.004145585931837559
1761468887069801700,2.8868017578125,0.014077831991016865,-0.0029722177423536777,0.004419939126819372
1761468887079756800,2.8967568359375,0.006635894998908043,0.0003372924402356148,0.006221300922334194
1761468887089713000,2.906712890625,-0.002191803650930524,0.0004715158138424158,0.010903311893343925
1761468887099668700,2.916668701171875,-0.006302658934146166,0.003209245391190052,0.013044493272900581
1761468887109623600,2.92662353515625,-0.006346985697746277,-0.0031003158073872328,0.014196749776601791
1761468887119580000,2.936579833984375,-0.007760059088468552,-0.011772899888455868,0.012105369940400124
1761468887129535700,2.94653564453125,-0.00011642149183899164,-0.0139666348695755,0.009206913411617279
1761468887139491800,2.956491943359375,0.0006489710649475455,-0.01612166315317154,0.00450217304751277
1761468887149446700,2.96644677734375,0.0008314167498610914,-0.007345128338783979,0.0007619946263730526
1761468887159402800,2.97640283203125,-0.0010327959898859262,0.000659534998703748,0.0024006376042962074
1761468887169358800,2.98635888671875,-0.004408129956573248,-0.00549849309027195,-0.000746559351682663
1761468887179313700,2.996313720703125,-0.007314171176403761,-0.010269279591739178,-0.0016443110071122646
1761468887189269800,3.006269775390625,-0.005933333188295364,-0.025330256670713425,-0.007444165181368589
1761468887199225600,3.0162255859375,-0.00861673429608345,-0.03829505667090416,-0.0071008834056556225
1761468887209181000,3.026180908203125,-0.00990244373679161,-0.028962094336748123,0.0035128893796354532
1761468887219136800,3.03613671875,-0.013250037096440792,-0.020249830558896065,0.014995109289884567
1761468887229092900,3.0460927734375,-0.01601196639239788,-0.01759137399494648,0.02409648522734642
1761468887239047700,3.056047607421875,-0.014285705983638763,-0.010934803634881973,0.0273993369191885
1761468887249003800,3.066003662109375,-0.009943743236362934,-0.011167208664119244,0.02905130572617054
1761468887258960000,3.0759599609375,-0.01130674872547388,-0.012696661986410618,0.030117902904748917
1761468887268914700,3.085914794921875,-0.012588921934366226,-0.017054302617907524,0.03247113153338432
1761468887278870800,3.095870849609375,-0.013938878662884235,-0.02105250582098961,0.034051984548568726
1761468887288826600,3.10582666015625,-0.011374841444194317,-0.017654316499829292,0.027266886085271835
1761468887298782000,3.115781982421875,-0.009665358811616898,-0.012470473535358906,0.01713702082633972
1761468887308737800,3.12573779296875,-0.013399405404925346,-0.006445512641221285,0.0011576132383197546
1761468887318693600,3.135693603515625,-0.01728149503469467,-0.008516918867826462,-0.018107693642377853
1761468887328649700,3.145649658203125,-0.02138354256749153,-0.01336697954684496,-0.03020060807466507
1761468887338604800,3.155604736328125,-0.02438758872449398,-0.01815454475581646,-0.035351961851119995
1761468887348561000,3.165560791015625,-0.02042650617659092,-0.010080106556415558,-0.029344437643885612
1761468887358516700,3.175516845703125,-0.017316998913884163,0.005425083450973034,-0.02248040772974491
1761468887368471800,3.185471923828125,-0.011877123266458511,0.013513104058802128,-0.01853862777352333
1761468887378427600,3.195427734375,-0.005896995775401592,0.01265796273946762,-0.015406751073896885
1761468887388383700,3.2053837890625,0.001098073204047978,0.004533901810646057,-0.020610719919204712
1761468887398338800,3.2153388671875,0.0066006965935230255,-0.015006509609520435,-0.02937304973602295
1761468887408294700,3.225294677734375,0.0063680545426905155,-0.026299646124243736,-0.033573295921087265
1761468887418250800,3.235250732421875,0.010436032898724079,-0.01567762717604637,-0.030525309965014458
1761468887428205800,3.245205810546875,0.011639617383480072,0.001481562969274819,-0.025717642158269882
1761468887438162000,3.255161865234375,0.010063025169074535,0.01684187725186348,-0.0167292058467865
1761468887448117800,3.26511767578125,0.00788570661097765,0.021048251539468765,-0.015443097800016403
1761468887458073900,3.275073974609375,0.01042077038437128,0.012027859687805176,-0.016468681395053864
1761468887468028700,3.285028564453125,0.01311927754431963,0.008303428068757057,-0.018304618075489998
1761468887477984800,3.29498486328125,0.01381729170680046,0.011184701696038246,-0.016401521861553192
1761468887487940900,3.30494091796875,0.026348412036895752,-0.0006834084633737803,-0.01998596452176571
1761468887497895700,3.314895751953125,0.03519916161894798,-0.005462717264890671,-0.033194176852703094
1761468887507851800,3.324851806640625,0.03575482219457626,-0.004849480465054512,-0.04977747052907944
1761468887517807600,3.3348076171875,0.032039713114500046,-0.006425539031624794,-0.06717457622289658
1761468887527762700,3.3447626953125,0.021260634064674377,-0.005725837778300047,-0.07315806299448013
1761468887537718800,3.35471875,0.01520141027867794,0.00195897975936532,-0.07496661692857742
1761468887547674600,3.364674560546875,0.01583375595510006,-0.0023893420584499836,-0.06717422604560852
1761468887557629700,3.374629638671875,0.020005865022540092,-0.004124658182263374,-0.05084025859832764
1761468887567585800,3.384585693359375,0.024005895480513573,0.0027696462348103523,-0.03219282627105713
1761468887577542000,3.3945419921875,0.025964651256799698,0.007337233517318964,-0.014602916315197945
1761468887587496700,3.40449658203125,0.026611238718032837,0.017176812514662743,-0.0017745494842529297
1761468887597452500,3.41445263671875,0.025153955444693565,0.012318141758441925,-0.00020834477618336678
1761468887607408600,3.42440869140625,0.0258621945977211,0.0058340528048574924,-0.00356379896402359
1761468887617364700,3.43436474609375,0.026203611865639687,0.007984288968145847,-0.00820116139948368
1761468887627319800,3.44431982421875,0.02490263618528843,0.0024808703456074,-0.016242370009422302
1761468887637275600,3.454275634765625,0.02286265417933464,-0.009731854312121868,-0.022649668157100677
1761468887647231700,3.464231689453125,0.019723981618881226,-0.014496603980660439,-0.027291350066661835
1761468887657186800,3.474186767578125,0.012963812798261642,-0.011212659999728203,-0.026682818308472633
1761468887667143000,3.484142822265625,0.010105772875249386,0.005666543263942003,-0.02260914258658886
1761468887677098800,3.4940986328125,0.010021084919571877,0.021969350054860115,-0.019618146121501923
1761468887687053600,3.504053466796875,0.00172331091016531,0.026849236339330673,-0.022821534425020218
1761468887697010000,3.514010009765625,-0.006430755369365215,0.01961529068648815,-0.0357557088136673
1761468887706965800,3.5239658203125,-0.017475033178925514,0.0015690043801441789,-0.05091734975576401
1761468887716920800,3.5339208984375,-0.02917749620974064,0.003199924249202013,-0.05245106667280197
1761468887726876700,3.543876708984375,-0.0360262468457222,0.009667321108281612,-0.04308939725160599
1761468887736832800,3.553832763671875,-0.036243561655282974,0.011913963593542576,-0.029490230605006218
1761468887746788900,3.563788818359375,-0.03591863811016083,0.021352561190724373,-0.012245497666299343
1761468887756743700,3.57374365234375,-0.03432793170213699,0.035146139562129974,-0.0000024135224521160126
1761468887766699800,3.58369970703125,-0.03212092071771622,0.04343016818165779,0.0010062654037028551
1761468887776655600,3.593655517578125,-0.030072152614593506,0.04308449104428291,-0.008768334984779358
1761468887786611000,3.60361083984375,-0.031858161091804504,0.034915242344141006,-0.018766120076179504
1761468887796566800,3.61356689453125,-0.03489150106906891,0.014167354442179203,-0.02427114173769951
1761468887806523000,3.62352294921875,-0.03198093920946121,-0.010357873514294624,-0.028152545914053917
1761468887816477700,3.633477783203125,-0.027296707034111023,-0.01858118176460266,-0.0210762619972229
1761468887826433500,3.64343359375,-0.017127463594079018,-0.01104967575520277,-0.010091717354953289
1761468887836390000,3.653389892578125,-0.009657828137278557,-0.00878838635981083,0.004420113749802113
1761468887846344700,3.6633447265625,-0.004693384747952223,-0.015566306188702583,0.008593332022428513
1761468887856300800,3.67330078125,-0.0007585643325001001,-0.009786447510123253,0.015094907954335213
1761468887866256600,3.683256591796875,0.007411545608192682,-0.003946313168853521,0.018932627514004707
1761468887876212700,3.693212646484375,0.012814300134778023,-0.011270805262029171,0.01811077445745468
1761468887886167800,3.703167724609375,0.018232721835374832,-0.02008879743516445,0.013089777901768684
1761468887896123600,3.71312353515625,0.028054194524884224,-0.0177388247102499,0.00909716822206974
1761468887906079700,3.723079833984375,0.03300124406814575,-0.02701878547668457,0.003434025216847658
1761468887916034800,3.733034912109375,0.0387592650949955,-0.03069661185145378,-0.001847023144364357
1761468887925991000,3.742990966796875,0.040310923010110855,-0.025177743285894394,-0.006469171028584242
1761468887935946800,3.75294677734375,0.041034504771232605,-0.023098081350326538,-0.010096928104758263
1761468887945901600,3.762901611328125,0.038438841700553894,-0.012632923200726509,-0.008730367757380009
1761468887955857700,3.772857666015625,0.03575757145881653,-0.0015541731845587492,-0.010203628800809383
1761468887965813800,3.782813720703125,0.03161638230085373,-0.0030578840523958206,-0.01760730892419815
1761468887975768800,3.792768798828125,0.029729267582297325,-0.007029456086456776,-0.022996215149760246
1761468887985724700,3.802724609375,0.029779188334941864,-0.012765281833708286,-0.03241155669093132
1761468887995680800,3.8126806640625,0.03434064984321594,-0.02562621980905533,-0.039530716836452484
1761468888005635800,3.8226357421875,0.04563715308904648,-0.020302915945649147,-0.03561339154839516
1761468888015591700,3.832591796875,0.05226363241672516,-0.013092407956719398,-0.030134739354252815
1761468888025547800,3.8425478515625,0.051137860864400864,-0.007449879311025143,-0.02542785555124283
1761468888035503600,3.852503662109375,0.047047246247529984,-0.008194498717784882,-0.020816590636968613
1761468888045458700,3.862458740234375,0.03950749337673187,-0.001881742151454091,-0.019392287358641624
1761468888055414800,3.872414794921875,0.03607041761279106,0.005492284428328276,-0.0177946574985981
1761468888065371000,3.882370849609375,0.028941625729203224,0.0042097060941159725,-0.0162136759608984
1761468888075325700,3.89232568359375,0.023229677230119705,0.004893606062978506,-0.015005933120846748
1761468888085281500,3.902281494140625,0.021918563172221184,0.005633520893752575,-0.01072483230382204
1761468888095237600,3.912237548828125,0.02340780384838581,0.0065334029495716095,-0.010347196832299232
1761468888105192700,3.922192626953125,0.02657303586602211,0.000508089317008853,-0.013655804097652435
1761468888115148800,3.932148681640625,0.027916334569454193,-0.013121702708303928,-0.018159741535782814
1761468888125104600,3.942104736328125,0.03048468567430973,-0.0134300971403718,-0.022016530856490135
1761468888135059700,3.952059814453125,0.027799421921372414,-0.0011417389614507556,-0.02504933997988701
1761468888145015800,3.962015869140625,0.023715877905488014,0.012768751010298729,-0.027171971276402473
1761468888154971600,3.9719716796875,0.02392094023525715,0.026633966714143753,-0.027318179607391357
1761468888164926700,3.9819267578125,0.025174712762236595,0.034654874354600906,-0.028980128467082977
1761468888174882600,3.991882568359375,0.026145167648792267,0.02384909801185131,-0.037220217287540436
1761468888187948800,4.00494873046875,0.029686160385608673,0.007035142742097378,-0.054082829505205154
1761468888197905000,4.01490478515625,0.03441380336880684,0.008414394222199917,-0.06308218836784363
1761468888207859700,4.024859619140625,0.04399438574910164,0.009934170171618462,-0.06765968352556229
1761468888217815600,4.034815673828125,0.049387287348508835,0.00771469296887517,-0.06221325322985649
1761468888227771600,4.044771728515625,0.0470823235809803,0.017738832160830498,-0.04549712315201759
1761468888237726700,4.054726806640625,0.04411502927541733,0.026317939162254333,-0.028891785070300102
1761468888247682800,4.064682861328125,0.04288630187511444,0.027257679030299187,-0.017680153250694275
1761468888257638700,4.074638671875,0.045800600200891495,0.028448112308979034,-0.010506129823625088
1761468888267593700,4.08459375,0.05054990574717522,0.01635665073990822,-0.013176827691495419
1761468888277549800,4.0945498046875,0.051559243351221085,-0.002106779022142291,-0.015122533775866032
1761468888287505700,4.104505615234375,0.05415172129869461,-0.012254933826625347,-0.01120943482965231
1761468888297460700,4.114460693359375,0.05464493855834007,-0.004157059360295534,-0.0021565514616668224
1761468888307416600,4.12441650390625,0.05197741463780403,0.008012345060706139,0.007580902427434921
1761468888317372700,4.13437255859375,0.04600820690393448,0.013795665465295315,0.004872467834502459
1761468888327328800,4.144328857421875,0.03765657916665077,0.014518446289002895,-0.0007474618032574654
1761468888337283600,4.15428369140625,0.030094800516963005,0.01939389668405056,-0.010375854559242725
1761468888347239700,4.16423974609375,0.02512698620557785,0.01818215660750866,-0.017893020063638687
1761468888357195500,4.174195556640625,0.027439408004283905,0.009043785743415356,-0.02434905432164669
1761468888367150800,4.18415087890625,0.027853740379214287,0.0012658470077440143,-0.027699831873178482
1761468888377106700,4.194106689453125,0.03003460355103016,-0.004059676080942154,-0.030904145911335945
1761468888387062800,4.204062744140625,0.025843044742941856,-0.0059741344302892685,-0.03187178820371628
1761468888397017600,4.214017578125,0.022470949217677116,-0.0006715146009810269,-0.03159322589635849
1761468888406973700,4.2239736328125,0.013083526864647865,0.003424694761633873,-0.030948346480727196
1761468888416929800,4.2339296875,0.00811939500272274,-0.00793821457773447,-0.0288082305341959
1761468888426884600,4.243884521484375,0.008142160251736641,-0.018502797931432724,-0.022344794124364853
1761468888436840700,4.2538408203125,0.004378315061330795,-0.014293937012553215,-0.015719382092356682
1761468888446796500,4.263796630859375,0.006994761060923338,0.008335919119417667,-0.00300010247156024
1761468888456751900,4.273751953125,0.005707921460270882,0.029071025550365448,0.009623014368116856
1761468888466707700,4.283707763671875,0.0020103519782423973,0.0407879576086998,0.018442675471305847
1761468888476663800,4.293663818359375,-0.0012637381441891193,0.03970324993133545,0.014229821041226387
1761468888486619600,4.30361962890625,-0.003410310484468937,0.025253381580114365,-0.0024232957512140274
1761468888496574700,4.31357470703125,-0.0014749913243576884,0.003931315615773201,-0.024144569411873817
1761468888506530800,4.32353076171875,-0.002494807355105877,0.00381520320661366,-0.04096803814172745
1761468888516486700,4.333486572265625,-0.004863422829657793,-0.010552550666034222,-0.051542118191719055
1761468888526441700,4.343441650390625,-0.005945493467152119,-0.028295062482357025,-0.05272490531206131
1761468888537020700,4.354020751953125,0.000857817882206291,-0.02953050285577774,-0.04249730706214905
1761468888546976800,4.363976806640625,0.0036035836674273014,-0.023945588618516922,-0.02800797112286091
1761468888556931800,4.373931884765625,0.009136300534009933,-0.013897482305765152,-0.005766315385699272
1761468888566887700,4.3838876953125,0.015609350986778736,0.005138084292411804,0.014610687270760536
1761468888576843800,4.39384375,0.021952735260128975,0.029524384066462517,0.02498210035264492
1761468888586798600,4.403798583984375,0.021746845915913582,0.03476761654019356,0.03713535517454147
1761468888596754700,4.413754638671875,0.025358358398079872,0.030161676928400993,0.04571286588907242
1761468888606710800,4.423710693359375,0.02837611548602581,0.01968364603817463,0.04674664884805679
1761468888616667000,4.4336669921875,0.028999827802181244,0.00946882739663124,0.038443177938461304
1761468888626621700,4.44362158203125,0.025152916088700294,-0.004496528767049313,0.029266783967614174
1761468888636577500,4.45357763671875,0.018576771020889282,-0.009775180369615555,0.02490425854921341
1761468888646533600,4.46353369140625,0.006019107066094875,-0.013964148238301277,0.023825861513614655
1761468888656488700,4.47348876953125,-0.002228702884167433,-0.017217999324202538,0.02597183547914028
1761468888666444800,4.48344482421875,-0.013268760405480862,-0.019579250365495682,0.0290217362344265
1761468888676400600,4.493400634765625,-0.024931808933615685,-0.012201761826872826,0.03359971195459366
1761468888686355700,4.503355712890625,-0.035926494747400284,0.00237212423235178,0.03603382408618927
1761468888696311800,4.513311767578125,-0.048027899116277695,0.016171826049685478,0.031551726162433624
1761468888706267600,4.523267578125,-0.056663382798433304,0.027377426624298096,0.027152881026268005
1761468888716222700,4.53322265625,-0.0632975772023201,0.03175672888755798,0.02146889641880989
1761468888726178600,4.543178466796875,-0.06530652195215225,0.016472848132252693,0.013180247507989407
1761468888736134700,4.553134765625,-0.06726527959108353,0.011216568760573864,0.007124219089746475
1761468888746090800,4.5630908203125,-0.06871086359024048,0.016474183648824692,0.0025168906431645155
1761468888756045800,4.5730458984375,-0.07252584397792816,0.008173644542694092,-0.0020344513468444347
1761468888766001700,4.583001708984375,-0.07888849824666977,0.00863969512283802,-0.0019993321038782597
1761468888775957800,4.592957763671875,-0.0825149267911911,0.012567324563860893,-0.0006885239854454994
1761468888785912800,4.602912841796875,-0.08013006299734116,0.004064117558300495,-0.004322407301515341
1761468888795868700,4.61286865234375,-0.07351956516504288,-0.009759819135069847,-0.011323591694235802
1761468888805824800,4.62282470703125,-0.0684279277920723,-0.02086804062128067,-0.014805663377046585
1761468888815779600,4.632779541015625,-0.06190051883459091,-0.017339086160063744,-0.0053003085777163506
1761468888825735700,4.642735595703125,-0.05444400757551193,-0.012489203363656998,0.012134388089179993
1761468888835691800,4.65269189453125,-0.04232076555490494,-0.002162263495847583,0.029493404552340508
1761468888845648000,4.66264794921875,-0.03272537514567375,0.007737595122307539,0.0489906370639801
1761468888855602700,4.672602783203125,-0.02333214320242405,0.013338223099708557,0.05726055055856705
1761468888865558500,4.68255859375,-0.016040736809372902,0.018062839284539223,0.06095636263489723
1761468888875514600,4.6925146484375,-0.012730695307254791,0.016633788123726845,0.0588199757039547
1761468888885469700,4.7024697265625,-0.009305823594331741,0.009803319349884987,0.04703325033187866
1761468888895425800,4.71242578125,-0.00011978164548054338,-0.00714610330760479,0.025703726336359978
1761468888905381600,4.722381591796875,0.0030475561507046223,-0.029484080150723457,-0.0019499808549880981
1761468888915336700,4.732336669921875,0.005807123612612486,-0.04713737592101097,-0.01670442521572113
1761468888925292800,4.742292724609375,0.008615507744252682,-0.04734891653060913,-0.017710765823721886
1761468888935249200,4.752249267578125,0.010525526478886604,-0.042923543602228165,-0.006579551845788956
1761468888945204000,4.762203857421875,0.012385801412165165,-0.0433550663292408,0.006788174621760845
1761468888955159800,4.772159912109375,0.012096315622329712,-0.035630565136671066,0.0209354180842638
1761468888965116000,4.782115966796875,0.00935717485845089,-0.01263168640434742,0.03904697671532631
1761468888975072000,4.792072021484375,0.005843931809067726,-0.005236354656517506,0.052918050438165665
1761468888985027000,4.802027099609375,-0.005016769282519817,-0.00936647318303585,0.05629723146557808
1761468888994983000,4.81198291015625,-0.009461585432291031,-0.011970778927206993,0.05202898383140564
1761468889004939000,4.82193896484375,-0.014718852005898952,-0.01551100518554449,0.04384675621986389
1761468889014894000,4.83189404296875,-0.022062253206968307,-0.013251313008368015,0.040258146822452545
1761468889024850000,4.841849853515625,-0.02546454407274723,-0.009023986756801605,0.033192649483680725
1761468889034806000,4.851805908203125,-0.03003106638789177,-0.014515690505504608,0.02498319000005722
1761468889044760800,4.8617607421875,-0.03270057961344719,-0.022265668958425522,0.006745088845491409
1761468889054717200,4.87171728515625,-0.033394597470760345,-0.02279830165207386,-0.0031208572909235954
1761468889064673000,4.881673095703125,-0.03698768466711044,-0.013710261322557926,-0.007418239954859018
1761468889074629000,4.891629150390625,-0.042055413126945496,0.0001427041133865714,-0.007113840896636248
1761468889084584000,4.901583984375,-0.04517807811498642,0.017343347892165184,-0.004851634614169598
1761468889094540000,4.9115400390625,-0.050257258117198944,0.024083809927105904,-0.003172245342284441
1761468889104496000,4.92149609375,-0.05125166475772858,0.015826236456632614,-0.008579296991229057
1761468889114451000,4.931450927734375,-0.04945110157132149,0.004455870017409325,-0.012672575190663338
1761468889124407000,4.941406982421875,-0.044272202998399734,-0.007205314468592405,-0.015375323593616486
1761468889134363000,4.95136279296875,-0.03793254867196083,-0.012222710065543652,-0.01437770389020443
1761468889144318200,4.961318115234375,-0.02935081161558628,-0.018026355654001236,-0.012119367718696594
1761468889154274000,4.971274169921875,-0.02410038933157921,-0.018887624144554138,-0.007158431224524975
1761468889164230100,4.981230224609375,-0.017945270985364914,-0.015504347160458565,0.0010739918798208237
1761468889174186000,4.99118603515625,-0.018002262338995934,-0.01847909949719906,0.00839768536388874
1761468889184140800,5.001140869140625,-0.020376576110720634,-0.02035706676542759,0.018315967172384262
1761468889194097200,5.01109716796875,-0.021887386217713356,-0.010788064450025558,0.03070392645895481
1761468889204053000,5.021052978515625,-0.022777551785111427,-0.0038588743191212416,0.03694871813058853
1761468889214008000,5.031008056640625,-0.02303827553987503,-0.0077742538414895535,0.03206447884440422
1761468889223964000,5.0409638671875,-0.019679715856909752,-0.012124529108405113,0.025453586131334305
1761468889233920000,5.050919921875,-0.01750071719288826,-0.014645210467278957,0.016600441187620163
1761468889243875000,5.060875,-0.016986621543765068,-0.016262374818325043,0.006670707371085882
1761468889253831000,5.070830810546875,-0.020884955301880836,-0.013756873086094856,0.005277607589960098
1761468889263787000,5.080787109375,-0.02259470336139202,-0.011555497534573078,0.008058765903115273
1761468889273742000,5.0907421875,-0.02572738006711006,-0.0012637113686650991,0.01724693924188614
1761468889283698200,5.1006982421875,-0.025134466588497162,0.0028492717538028955,0.02462044544517994
1761468889293654000,5.110654052734375,-0.02711426094174385,0.0023722995538264513,0.02908310480415821
1761468889303610000,5.120610107421875,-0.028470702469348907,0.00589726259931922,0.029789894819259644
1761468889313565000,5.13056494140625,-0.032189805060625076,0.002264710608869791,0.02759385108947754
1761468889323521000,5.14052099609375,-0.039770714938640594,-0.009636424481868744,0.019913168624043465
1761468889333477000,5.15047705078125,-0.042776092886924744,-0.01736811362206936,0.017025236040353775
1761468889343432000,5.160431884765625,-0.04396587237715721,-0.014455416239798069,0.01361675001680851
1761468889353388000,5.170387939453125,-0.04787405952811241,-0.008112565614283085,0.004601417575031519
1761468889363344000,5.18034375,-0.04607273265719414,-0.0033544765319675207,-0.0014835679903626442
1761468889373299200,5.19029931640625,-0.040570374578237534,0.00011668741353787482,-0.008790750056505203
1761468889383255000,5.200255126953125,-0.03758801147341728,-0.006056073121726513,-0.02033180184662342
1761468889393211000,5.2102109375,-0.03185875341296196,-0.012905190698802471,-0.030113326385617256
1761468889403167000,5.2201669921875,-0.025931622833013535,-0.02015751041471958,-0.031195102259516716
1761468889413122000,5.2301220703125,-0.02331799641251564,-0.022176187485456467,-0.026506874710321426
1761468889423078100,5.240078125,-0.022200481966137886,-0.014956886880099773,-0.01577284373342991
1761468889433034000,5.250033935546875,-0.019954105839133263,-0.00515858456492424,0.0053763845935463905
1761468889442989000,5.259989013671875,-0.01940232701599598,0.0022348822094500065,0.025154270231723785
1761468889452945000,5.26994482421875,-0.019628694280982018,0.007499419152736664,0.040811263024806976
1761468889462901000,5.27990087890625,-0.020468618720769882,0.0052449656650424,0.048811059445142746
1761468889472856000,5.28985595703125,-0.020302969962358475,0.0076772309839725494,0.051105108112096786
1761468889482812000,5.29981201171875,-0.01999698206782341,0.01529902033507824,0.04727163910865784
1761468889492768000,5.30976806640625,-0.02047262340784073,0.015888644382357597,0.036545224487781525
1761468889502723000,5.31972314453125,-0.020675955340266228,0.008190593682229519,0.023945312947034836
1761468889512679200,5.32967919921875,-0.015736058354377747,-0.002471105195581913,0.00880870409309864
1761468889522635000,5.339635009765625,-0.006565404124557972,-0.009403396397829056,-0.0033195894211530685
1761468889532591000,5.349591064453125,0.005344518925994635,-0.018131908029317856,-0.010577768087387085
1761468889542546000,5.3595458984375,0.018003812059760094,-0.02447032369673252,-0.01276107132434845
1761468889552502000,5.369501953125,0.030752098187804222,-0.027506327256560326,-0.005689314566552639
1761468889562458000,5.3794580078125,0.03513065725564957,-0.027074983343482018,0.011910174041986465
1761468889572413000,5.389412841796875,0.03932247310876846,-0.019463935866951942,0.028098732233047485
1761468889582369000,5.399369140625,0.03500913083553314,-0.016492465510964394,0.0434037521481514
1761468889592324900,5.409324951171875,0.029244719073176384,-0.02127736620604992,0.05195649713277817
1761468889602280000,5.419280029296875,0.028240131214261055,-0.029187846928834915,0.06087511032819748
1761468889612236000,5.429236083984375,0.02772534266114235,-0.023113708943128586,0.0767906904220581
1761468889622191900,5.43919189453125,0.02803824096918106,-0.00591767393052578,0.08864782750606537
1761468889632147200,5.449147216796875,0.02822200022637844,-0.009646632708609104,0.09613929688930511
1761468889642103000,5.45910302734375,0.02260679006576538,-0.017775842919945717,0.09904437512159348
1761468889652059100,5.46905908203125,0.022216103971004486,-0.026746168732643127,0.09265412390232086
1761468889662015000,5.479014892578125,0.020797476172447205,-0.041133008897304535,0.08312162756919861
1761468889671969800,5.4889697265625,0.0219679344445467,-0.042885102331638336,0.08139003813266754
1761468889681926000,5.49892578125,0.02579473704099655,-0.05174926295876503,0.08175422251224518
1761468889691882000,5.508882080078125,0.023828258737921715,-0.04039087891578674,0.07643535733222961
1761468889701837000,5.518837158203125,0.024043289944529533,-0.024485856294631958,0.0808791071176529
1761468889711793000,5.52879296875,0.02251809649169445,-0.015313396230340004,0.08696948736906052
1761468889721749000,5.5387490234375,0.016119182109832764,-0.01604718714952469,0.09286247193813324
1761468889731704000,5.5487041015625,0.013460814952850342,-0.02256127819418907,0.09621859341859818
1761468889741660200,5.55866015625,0.014064223505556583,-0.03211545944213867,0.09620650112628937
1761468889751616000,5.568615966796875,0.01217977050691843,-0.036404743790626526,0.0926799476146698
1761468889761572000,5.578572021484375,0.0069325268268585205,-0.025566568598151207,0.08833183348178864
1761468889771527200,5.588527099609375,-0.0017792057478800416,-0.014731497503817081,0.07487568259239197
1761468889781483000,5.59848291015625,-0.010508554056286812,-0.013026095926761627,0.06142456829547882
1761468889791439000,5.608439208984375,-0.02108503133058548,-0.01385167520493269,0.046277306973934174
1761468889801394000,5.618393798828125,-0.027349675074219704,-0.006322210654616356,0.033853475004434586
1761468889811350000,5.62835009765625,-0.028300955891609192,0.001071790000423789,0.020772026851773262
1761468889821306000,5.63830615234375,-0.02920546941459179,0.005525751505047083,0.006836641579866409
1761468889831261000,5.648260986328125,-0.029827583581209183,-0.0007678308757022023,-0.005992338061332703
1761468889841217000,5.658217041015625,-0.027912713587284088,0.0018262566300109029,-0.011219620704650879
1761468889851172900,5.6681728515625,-0.02665783278644085,0.012960134074091911,-0.014885461889207363
1761468889861128200,5.678128173828125,-0.030664190649986267,0.014629853889346123,-0.022788776084780693
1761468889871084000,5.688083984375,-0.03668026998639107,0.0038621602579951286,-0.03120170347392559
1761468889881040100,5.6980400390625,-0.04203261062502861,-0.015471410937607288,-0.03538918495178223
1761468889890996000,5.707995849609375,-0.0447988361120224,-0.028908656910061836,-0.02771768718957901
1761468889900950800,5.71795068359375,-0.04357759281992912,-0.01516878791153431,-0.009455394931137562
1761468889910907100,5.7279072265625,-0.044966164976358414,0.01217228826135397,0.01628698781132698
1761468889920863000,5.737863037109375,-0.04948347434401512,0.025172332301735878,0.03772464394569397
1761468889930818000,5.747818115234375,-0.05039481073617935,0.03682153299450874,0.05169585347175598
1761468889940773400,5.7577734375,-0.04574695974588394,0.035329364240169525,0.05044686794281006
1761468889950729700,5.767729736328125,-0.031256433576345444,0.01592637225985527,0.03969328850507736
1761468889960684500,5.7776845703125,-0.017265083268284798,0.009860487654805183,0.01654186099767685
1761468889970640400,5.787640380859375,-0.005186050198972225,-0.0056569529697299,-0.00684388866648078
1761468889980596500,5.797596435546875,0.0021816410589963198,-0.027118125930428505,-0.022007938474416733
1761468889990551600,5.807551513671875,-0.0002713966241572052,-0.026106923818588257,-0.022497160360217094
1761468890000507600,5.817507568359375,-0.006568981800228357,-0.010244515724480152,-0.019239697605371475
1761468890010463500,5.82746337890625,-0.009928292594850063,0.0028052395209670067,-0.016370141878724098
1761468890020419600,5.837419677734375,-0.008827059529721737,0.007042952347546816,-0.012779170647263527
1761468890030374400,5.84737451171875,-0.008953293785452843,-0.00350183411501348,-0.010745314881205559
1761468890040330500,5.85733056640625,-0.00994295533746481,-0.010468845255672932,-0.005300676915794611
1761468890050286600,5.86728662109375,-0.01057465746998787,-0.009664836339652538,-0.0014601321890950203
1761468890060241400,5.877241455078125,-0.012530588544905186,-0.01019418053328991,0.004908422008156776
1761468890070197500,5.887197509765625,-0.016843577846884727,0.0065781413577497005,0.02237050235271454
1761468890080153300,5.8971533203125,-0.01874743029475212,0.017364028841257095,0.0332024022936821
1761468890090108400,5.9071083984375,-0.01747683621942997,0.01587984897196293,0.04285795986652374
1761468890100064500,5.917064453125,-0.019837763160467148,0.01931781694293022,0.046704187989234924
1761468890110020400,5.927020263671875,-0.02213473804295063,0.021428106352686882,0.04504610598087311
1761468890119975700,5.9369755859375,-0.026310428977012634,0.018842177465558052,0.033599212765693665
1761468890129931500,5.946931640625,-0.029183711856603622,0.0040054405108094215,0.015743780881166458
1761468890139887600,5.9568876953125,-0.02770511619746685,-0.010918470099568367,-0.005427966825664043
1761468890149843500,5.966843505859375,-0.025211066007614136,-0.015560359694063663,-0.01166935171931982
1761468890159798500,5.976798583984375,-0.018274055793881416,-0.015685349702835083,-0.007898733019828796
1761468890169754600,5.986754638671875,-0.01709507405757904,-0.004064912907779217,0.0029254197143018246
1761468890179710500,5.99671044921875,-0.01696288026869297,0.014554486609995365,0.014218149706721306
1761468890189665500,6.00666552734375,-0.01440517883747816,0.025492623448371887,0.01767892763018608
1761468890199621400,6.016621337890625,-0.012813335284590721,0.021079765632748604,0.014208249747753143
1761468890209577500,6.026577392578125,-0.014898324385285378,0.00438520684838295,0.003947888966649771
1761468890219532500,6.036532470703125,-0.011815860867500305,-0.006990219932049513,-0.0078455600887537
1761468890229488600,6.046488525390625,-0.00698595168069005,-0.012455293908715248,-0.016945315524935722
1761468890239444500,6.056444580078125,-0.006904733832925558,-0.0201320331543684,-0.02221769094467163
1761468890249400600,6.066400634765625,-0.004261546302586794,-0.020144283771514893,-0.025630531832575798
1761468890259355600,6.076355712890625,0.0011648627696558833,-0.01783052831888199,-0.02207109145820141
1761468890269311500,6.0863115234375,0.0027369267772883177,-0.020755479112267494,-0.014506114646792412
1761468890279267600,6.096267578125,0.0023431656882166862,-0.011251721531152725,-0.005784968845546246
1761468890289222400,6.106222412109375,0.0012163823703303933,0.00019720743875950575,0.006502590142190456
1761468890299178500,6.116178466796875,0.00046798656694591045,0.010453041642904282,0.01770716905593872
1761468890309134600,6.126134521484375,0.0010458925971761346,0.0270000621676445,0.025689193978905678
1761468890319089400,6.13608935546875,0.0063256737776100636,0.035481784492731094,0.02518542855978012
1761468890329045500,6.14604541015625,0.00971667654812336,0.039878662675619125,0.010445364750921726
1761468890339001300,6.15600146484375,0.009744672104716301,0.029367074370384216,-0.01410001702606678
1761468890348957400,6.16595751953125,0.012334596365690231,0.00703859981149435,-0.04178304225206375
1761468890358912500,6.17591259765625,0.007556208409368992,-0.01003173179924488,-0.05959576740860939
1761468890368868600,6.18586865234375,0.0032900902442634106,-0.013326061889529228,-0.0649561807513237
1761468890378824400,6.195824462890625,-0.0006857924163341522,-0.006236990913748741,-0.05530795454978943
1761468890388779500,6.205779541015625,-0.0010072359582409263,0.008365919813513756,-0.039931394159793854
1761468890398735600,6.215735595703125,-0.0030727111734449863,0.023883627727627754,-0.022053640335798264
1761468890408691500,6.22569140625,-0.004861822817474604,0.03107069991528988,-0.008796690963208675
1761468890418646500,6.235646484375,-0.005911808926612139,0.035085950046777725,-0.002974987495690584
1761468890428602400,6.245602294921875,-0.004710190463811159,0.021006884053349495,-0.004586199298501015
1761468890438558500,6.255558349609375,0.00012753356713801622,0.003455942962318659,-0.007384464610368013
1761468890448513500,6.265513427734375,0.007656822446733713,-0.007944250479340553,-0.00718632573261857
1761468890458469400,6.275469482421875,0.011309586465358734,-0.011901975609362125,-0.0041698431596159935
1761468890468425500,6.285425537109375,0.010670160874724388,-0.007685392629355192,0.003018827410414815
1761468890478381300,6.29538134765625,0.010474063456058502,0.0034244260750710964,0.014804461970925331
1761468890488336600,6.305336669921875,0.0070740049704909325,0.008810936473309994,0.01731795445084572
1761468890498292500,6.31529248046875,0.002489399164915085,0.007689214311540127,0.018618987873196602
1761468890508248600,6.32524853515625,-0.0031173541210591793,0.006372813601046801,0.015259942971169949
1761468890518203400,6.335203369140625,-0.005319087766110897,0.0033711621072143316,0.009712012484669685
1761468890528159700,6.34515966796875,-0.006835757754743099,0.006084923632442951,0.006031523924320936
1761468890538115600,6.355115478515625,-0.005297408439218998,0.0010807579383254051,0.002532278886064887
1761468890548070400,6.3650703125,-0.0017977486131712794,0.005105326883494854,0.00415334478020668
1761468890558026500,6.375026611328125,0.004487866070121527,0.001070367987267673,0.0036058591213077307
1761468890567982300,6.384982421875,0.010651752352714539,0.0038813345599919558,0.0022476469166576862
1761468890577937700,6.394937744140625,0.023053135722875595,0.007167323492467403,-0.0003858043346554041
1761468890587893500,6.4048935546875,0.025986075401306152,0.007994767278432846,-0.002891039941459894
1761468890597849600,6.414849609375,0.025178465992212296,0.009041034616529942,-0.004291920457035303
1761468890607805400,6.424805419921875,0.02472865954041481,0.016208400949835777,-0.004005364142358303
1761468890617760500,6.434760498046875,0.021668612957000732,0.02495608478784561,-0.007403245195746422
1761468890627716600,6.444716552734375,0.01845550909638405,0.03053460828959942,-0.010088509880006313
1761468890637672400,6.45467236328125,0.009220835752785206,0.029605338349938393,-0.016437090933322906
1761468890647627500,6.46462744140625,0.005973909981548786,0.031238388270139694,-0.0180903822183609
1761468890657583400,6.474583251953125,0.0006564570358023047,0.0215921588242054,-0.018710389733314514
1761468890667539700,6.484539794921875,0.0010362238390371203,0.011446047574281693,-0.01615349017083645
1761468890677494500,6.49449462890625,0.005717060063034296,0.008994604460895061,-0.0065422095358371735
1761468890687450400,6.504450439453125,0.004871506709605455,0.008032937534153461,0.0016067971009761095
1761468890697406500,6.514406494140625,0.003445980604737997,0.008956611156463623,0.009301839396357536
1761468890707362300,6.5243623046875,-0.000510144978761673,0.00768894562497735,0.014461980201303959
1761468890717317600,6.534317626953125,-0.006065692286938429,0.002366086468100548,0.015079254284501076
1761468890727273500,6.5442734375,-0.013302033767104149,-0.00032503786496818066,0.014905614778399467
1761468890737229600,6.5542294921875,-0.017032533884048462,0.018538309261202812,0.021887879818677902
1761468890747184600,6.5641845703125,-0.02298310026526451,0.03553033992648125,0.025885552167892456
1761468890757140500,6.574140380859375,-0.03129783272743225,0.042774498462677,0.024984555318951607
1761468890767096600,6.5840966796875,-0.03508244827389717,0.04184478893876076,0.021597813814878464
1761468890777051400,6.594051513671875,-0.03371400013566017,0.029122333973646164,0.011978568509221077
1761468890787007500,6.604007568359375,-0.028977299109101295,-0.0017556860111653805,0.0063912575133144855
1761468890796963300,6.61396337890625,-0.02279314398765564,-0.01698852702975273,0.006367996335029602
1761468890806918700,6.623918701171875,-0.0218953937292099,-0.017188796773552895,0.016802527010440826
1761468890816874500,6.63387451171875,-0.024439742788672447,-0.004380408674478531,0.029300937429070473
1761468890826830300,6.643830322265625,-0.024380620568990707,0.009115426801145077,0.043995730578899384
1761468890836786400,6.653786376953125,-0.024596039205789566,0.0071411337703466415,0.04758264869451523
1761468890846741500,6.663741455078125,-0.024042900651693344,0.006456434726715088,0.05127964913845062
1761468890856697600,6.673697509765625,-0.018913323059678078,0.016955502331256866,0.051862455904483795
1761468890866653400,6.6836533203125,-0.013644791208207607,0.024962563067674637,0.04637474566698074
1761468890876608500,6.6936083984375,-0.012508602812886238,0.025443000718951225,0.04610733687877655
1761468890886564600,6.703564697265625,-0.01342739351093769,0.02161816880106926,0.04085318744182587
1761468890896520700,6.713520751953125,-0.01894529163837433,0.01120192464441061,0.03409496322274208
1761468890906475500,6.7234755859375,-0.01931573636829853,0.007590145338326693,0.02945467084646225
1761468890916431400,6.733431396484375,-0.013189107179641724,0.001170771662145853,0.016090571880340576
1761468890926387500,6.743387451171875,-0.007322696037590504,-0.002670571906492114,0.004914349876344204
1761468890936342500,6.753342529296875,-0.002654505427926779,-0.0043170265853405,-0.0023545860312879086
1761468890946298400,6.76329833984375,-0.00019560876535251737,-0.01171901635825634,-0.0017399284988641739
1761468890956254500,6.77325439453125,0.0027398394886404276,-0.010745543986558914,0.002637753263115883
1761468890966209500,6.78320947265625,0.0038913905154913664,-0.004682059399783611,0.007056203670799732
1761468890976165600,6.79316552734375,0.00468813581392169,-0.0021773569751530886,0.00977933220565319
1761468890986121500,6.80312158203125,0.0045347376726567745,-0.0033763120882213116,0.012705613858997822
1761468890996076300,6.813076171875,0.006151074543595314,-0.0032020527869462967,0.01731005683541298
1761468891006032400,6.823032470703125,0.008007031865417957,-0.002126402221620083,0.01977641135454178
1761468891015988200,6.83298828125,0.011231208220124245,-0.0031086625531315804,0.017710085958242416
1761468891025944600,6.842944580078125,0.013889575377106667,-0.013259034603834152,0.017157215625047684
1761468891035899400,6.8528994140625,0.012614833191037178,-0.013020860962569714,0.0181119367480278
1761468891045855500,6.86285546875,0.011931199580430984,-0.008732106536626816,0.016695667058229446
1761468891055811300,6.872811279296875,0.011863773688673973,0.0008813740569166839,0.021095335483551025
1761468891065766700,6.8827666015625,0.011740734800696373,0.01299635972827673,0.0205690935254097
1761468891075722500,6.892722412109375,0.01703781820833683,0.02256287820637226,0.01868489757180214
1761468891085678600,6.9026787109375,0.020315904170274734,0.026983724907040596,0.006879103370010853
1761468891095633400,6.91263330078125,0.02181975170969963,0.03337202966213226,-0.008381898514926434
1761468891105589500,6.922589599609375,0.021466882899403572,0.03261276334524155,-0.016792694106698036
1761468891115545600,6.932545654296875,0.02724665217101574,0.008062321692705154,-0.018336180597543716
1761468891125501400,6.94250146484375,0.035998065024614334,-0.013272794894874096,-0.015930280089378357
1761468891135456500,6.95245654296875,0.04359246417880058,-0.022433891892433167,-0.015100231394171715
1761468891145412400,6.962412353515625,0.05173614248633385,-0.02600998431444168,-0.016131673008203506
1761468891155368400,6.972368408203125,0.048614419996738434,-0.03086208365857601,-0.011823548935353756
1761468891165323500,6.982323486328125,0.039404675364494324,-0.023841723799705505,-0.00045371497981250286
1761468891175279400,6.992279296875,0.02856571599841118,-0.00944583211094141,0.013841729611158371
1761468891185235500,7.0022353515625,0.015061624348163605,0.0039000664837658405,0.029273150488734245
1761468891195190500,7.0121904296875,0.005966074299067259,0.021933484822511673,0.03858943283557892
1761468891205146600,7.022146728515625,-0.002043649321421981,0.031466007232666016,0.03871353715658188
1761468891215102500,7.0321025390625,-0.008695523254573345,0.02817699685692787,0.024867460131645203
1761468891225057300,7.042057373046875,-0.009879298508167267,0.018640749156475067,0.006233322434127331
1761468891235013400,7.052013427734375,-0.01019752211868763,0.005680836271494627,-0.010248729959130287
1761468891244969500,7.061969482421875,-0.005030989646911621,0.0008895433275029063,-0.02272830158472061
1761468891254925600,7.071925537109375,0.0005865530692972243,0.001838159398175776,-0.03101963736116886
1761468891264880400,7.08188037109375,0.0029016388580203056,0.0022717220708727837,-0.028309335932135582
1761468891274836500,7.09183642578125,0.0026871818117797375,0.005313584115356207,-0.02481229417026043
1761468891284792300,7.101792236328125,0.0048051937483251095,0.01148759014904499,-0.018542412668466568
1761468891294747400,7.111747314453125,0.007915185764431953,0.020125288516283035,-0.011786912567913532
1761468891304703500,7.121703369140625,0.013005285523831844,0.022100821137428284,-0.008427068591117859
1761468891314659300,7.131659423828125,0.01387249305844307,0.012349569238722324,-0.008216610178351402
1761468891324614400,7.141614501953125,0.013939605094492435,0.0019837471190840006,-0.009332207962870598
1761468891334570500,7.151570556640625,0.017950307577848434,-0.0033280171919614077,-0.008760658092796803
1761468891344526600,7.161526611328125,0.020642496645450592,-0.006076665595173836,-0.007965704426169395
1761468891354481400,7.1714814453125,0.024648591876029968,-0.007833822630345821,-0.007370787672698498
1761468891364437500,7.1814375,0.02694610133767128,0.00017936280346475542,0.0012661099899560213
1761468891374393300,7.191393310546875,0.02555316500365734,0.006094601470977068,0.008782753720879555
1761468891384349400,7.201349365234375,0.020463597029447556,0.0070607964880764484,0.008868773467838764
1761468891394304500,7.211304443359375,0.013098996132612228,0.007612777873873711,0.005681098438799381
1761468891404260400,7.22126025390625,0.00790077168494463,0.004017244558781385,-0.0011847969144582748
1761468891414216400,7.231216552734375,0.0029441937804222107,0.0054058195091784,-0.003035394474864006
1761468891424171500,7.241171630859375,0.002582270186394453,0.013727931305766106,0.0021053054369986057
1761468891434127600,7.251127685546875,0.0048975758254528046,0.014772158116102219,0.001379188266582787
1761468891444083500,7.26108349609375,0.004837921354919672,0.016139689832925797,-0.0054065459407866
1761468891454038300,7.271038330078125,0.004429559223353863,0.011769974604249,-0.017180148512125015
1761468891463994600,7.28099462890625,-0.00098837586119771,0.006608502008020878,-0.02564047835767269
1761468891473950500,7.290950439453125,-0.005989903584122658,0.0016599951777607203,-0.03225814551115036
1761468891483906600,7.300906494140625,-0.00964802224189043,0.0046195657923817635,-0.02990684099495411
1761468891493861400,7.310861328125,-0.013670863583683968,0.00864617619663477,-0.024051938205957413
1761468891503817500,7.3208173828125,-0.014247171580791473,0.013019086793065071,-0.01315082237124443
1761468891513773600,7.330773681640625,-0.016798892989754677,0.019168591126799583,-0.0021540033631026745
1761468891523728400,7.340728271484375,-0.016491297632455826,0.009964972734451294,0.001970966812223196
1761468891533684500,7.3506845703125,-0.01686599664390087,-0.007821569219231606,0.0004256495740264654
1761468891543640300,7.360640380859375,-0.00923976767808199,-0.011163303628563881,0.0029103788547217846
1761468891553595600,7.370595703125,-0.0005659899907186627,-0.005889534950256348,0.004653360228985548
1761468891563551500,7.380551513671875,0.006270078010857105,0.011131526902318,0.013482271693646908
1761468891573507600,7.390507568359375,0.006018844898790121,0.024316567927598953,0.026287782937288284
1761468891583462400,7.40046240234375,0.002732770284637809,0.028464972972869873,0.03342292457818985
1761468891593418200,7.410418212890625,-0.002311334479600191,0.026903655380010605,0.03160686418414116
1761468891603374600,7.42037451171875,-0.006034966558218002,0.020657211542129517,0.03138795495033264
1761468891613330400,7.430330322265625,-0.0019489331170916557,0.008012345060706139,0.028235580772161484
1761468891623285500,7.440285400390625,0.003466605208814144,0.0030889592599123716,0.026997476816177368
1761468891633241300,7.450241455078125,0.009146446362137794,-0.00025331517099402845,0.02845989167690277
1761468891643197400,7.460197509765625,0.010532354936003685,-0.0075727468356490135,0.027756817638874054
1761468891653152500,7.470152587890625,0.009992120787501335,-0.0072957719676196575,0.021664949133992195
1761468891663108400,7.4801083984375,0.0075667803175747395,-0.010253745131194592,0.012693292461335659
1761468891673064400,7.490064453125,0.0032571544870734215,-0.007312552537769079,0.010611466132104397
1761468891683019500,7.50001953125,0.004061962012201548,0.003970461897552013,0.015929799526929855
1761468891692975600,7.5099755859375,0.0012111288961023092,0.012550280429422855,0.01912832446396351
1761468891702931500,7.519931396484375,-0.003367377445101738,0.017683789134025574,0.019028721377253532
1761468891712886500,7.529886474609375,-0.007163309957832098,0.01794779859483242,0.008612357079982758
1761468891722842400,7.53984228515625,-0.006144917104393244,0.0061481306329369545,-0.007455292157828808
1761468891732798500,7.549798583984375,-0.006062947679311037,-0.012460085563361645,-0.015079112723469734
1761468891742754600,7.559754638671875,-0.006620081141591072,-0.022228559479117393,-0.020091980695724487
1761468891752709400,7.56970947265625,-0.0066073620691895485,-0.023782070726156235,-0.01368878036737442
1761468891762665500,7.57966552734375,-0.008081421256065369,-0.01642002910375595,-0.006025800481438637
1761468891772621300,7.589621337890625,-0.013072562403976917,-0.003981289453804493,0.006874307990074158
1761468891782576600,7.59957666015625,-0.015301894396543503,0.013095165602862835,0.017734145745635033
1761468891792532500,7.609532470703125,-0.014718947000801563,0.016049586236476898,0.023749729618430138
1761468891802488600,7.619488525390625,-0.013252876698970795,0.00695968559011817,0.019402917474508286
1761468891812443400,7.629443359375,-0.005155608989298344,-0.0013155550695955753,0.013761591166257858
1761468891822399500,7.6393994140625,0.003582489211112261,-0.009039254859089851,0.007043234072625637
1761468891832355600,7.64935546875,0.004799176938831806,-0.017084486782550812,0.0010194529313594103
1761468891842310400,7.659310302734375,0.0054684290662407875,-0.014431711286306381,-0.007082947995513678
1761468891852266500,7.6692666015625,0.003511438611894846,-0.008030539378523827,-0.014051143079996109
1761468891862222300,7.679222412109375,-0.003111843019723892,-0.0023875669576227665,-0.015215476974844933
1761468891872178400,7.689178466796875,-0.008577020838856697,0.001368106808513403,-0.013495756313204765
1761468891882133500,7.699133544921875,-0.011487056501209736,0.0046845413744449615,-0.008555857464671135
1761468891892089300,7.70908935546875,-0.009145161136984825,0.003280172822996974,-0.007838567718863487
1761468891902045400,7.71904541015625,-0.00523404311388731,0.0018836113158613443,-0.010845010168850422
1761468891912000500,7.72900048828125,-0.00449732132256031,-0.008720739744603634,-0.01954883523285389
1761468891921956600,7.73895654296875,-0.005115175154060125,-0.02448691986501217,-0.025946812704205513
1761468891931912400,7.748912353515625,-0.006317030638456345,-0.02531232312321663,-0.026245445013046265
1761468891941867800,7.75886767578125,-0.007496810983866453,-0.01635797694325447,-0.01972789131104946
1761468891951823600,7.76882373046875,-0.008375653997063637,-0.011155758984386921,-0.012328030541539192
1761468891961779700,7.77877978515625,-0.010421494022011757,-0.004670961759984493,-0.004962259903550148
1761468891971734800,7.78873486328125,-0.011660297401249409,0.0017576448153704405,0.001573969260789454
1761468891981690600,7.798690673828125,-0.014451823197305202,0.006500734947621822,0.0026522830594331026
1761468891991646700,7.808646728515625,-0.014724411070346832,-0.015760362148284912,0.008997890166938305
1761468892001602600,7.8186025390625,-0.011437537148594856,-0.01905336230993271,0.008444218896329403
1761468892011558000,7.828557861328125,-0.009322463534772396,-0.012178589589893818,0.0011212097015231848
1761468892021513700,7.838513671875,-0.00732935406267643,-0.014421237632632256,-0.002627189736813307
1761468892031469800,7.8484697265625,-0.007343597710132599,-0.015597733668982983,-0.001702748704701662
1761468892041424600,7.858424560546875,-0.010464821942150593,-0.012833904474973679,-0.0012899585999548435
1761468892051380700,7.868380615234375,-0.012705008499324322,-0.015111617743968964,0.0010262967552989721
1761468892061336800,7.8783369140625,-0.01706486940383911,-0.015075931325554848,0.00457362737506628
1761468892071291600,7.888291748046875,-0.020010657608509064,-0.0045259068720042706,0.015620848163962364
1761468892081247700,7.898247802734375,-0.023693809285759926,0.00842344667762518,0.024967212229967117
1761468892091203600,7.90820361328125,-0.027814563363790512,0.018124811351299286,0.025613155215978622
1761468892101158700,7.91815869140625,-0.026278717443346977,0.013671206310391426,0.014273680746555328
1761468892111114800,7.92811474609375,-0.021475899964571,-0.0015658024931326509,-0.007013011258095503
1761468892121070600,7.938070556640625,-0.020436469465494156,-0.016520516946911812,-0.023246843367815018
1761468892131026700,7.948026611328125,-0.019050514325499535,-0.02607327699661255,-0.030990375205874443
1761468892140981800,7.957981689453125,-0.021588239818811417,-0.019595935940742493,-0.025711724534630775
1761468892150937900,7.967937744140625,-0.02444382756948471,-0.0035328147932887077,-0.0134752057492733
1761468892160893700,7.977893798828125,-0.027430029585957527,0.008655941113829613,-0.001017737202346325
1761468892170848500,7.9878486328125,-0.023633409291505814,0.01951373927295208,0.012491644360125065
1761468892180804600,7.9978046875,-0.02223738096654415,0.025453120470046997,0.01881824992597103
1761468892192626700,8.009626708984374,-0.02157294750213623,0.004485609475523233,0.017977848649024963
1761468892202581800,8.019581787109376,-0.019449574872851372,-0.008172307163476944,0.012753017246723175
1761468892212537900,8.029537841796875,-0.020026149228215218,-0.002108022104948759,0.0036993343383073807
1761468892222493700,8.03949365234375,-0.020216913893818855,0.010146601125597954,0.005634051747620106
1761468892232449800,8.04944970703125,-0.03108341060578823,0.016301967203617096,0.029911959543824196
1761468892242404600,8.059404541015626,-0.046911247074604034,0.019798874855041504,0.05430939048528671
1761468892252360700,8.069360595703126,-0.05261387303471565,0.04003516957163811,0.06084345281124115
1761468892262315800,8.079315673828125,-0.04889576882123947,0.04711447283625603,0.048491016030311584
1761468892272271600,8.089271728515625,-0.037541382014751434,0.028208957985043526,0.026901569217443466
1761468892282227700,8.099227783203125,-0.021659662947058678,0.012953746132552624,0.004577844403684139
1761468892292183600,8.10918359375,-0.0076961759477853775,0.0003788318717852235,-0.02036718651652336
1761468892302139000,8.119138916015626,0.0034586435649544,-0.010194179601967335,-0.04206530749797821
1761468892312094700,8.1290947265625,0.0049864985048770905,-0.022792262956500053,-0.05632307380437851
1761468892322050800,8.13905078125,0.002407347783446312,-0.012145478278398514,-0.05556371062994003
1761468892332005600,8.149005615234374,0.00035937712527811527,-0.008221310563385487,-0.05254235118627548
1761468892341961700,8.158961669921876,-0.002306136768311262,-0.005430493038147688,-0.04019802436232567
1761468892351917800,8.168917724609376,-0.0011766901006922126,-0.015343843959271908,-0.027496611699461937
1761468892361872600,8.17887255859375,0.004740018863230944,-0.043007344007492065,-0.028397487476468086
1761468892371828700,8.188828857421875,0.023448191583156586,-0.025925293564796448,-0.028676586225628853
1761468892381784600,8.19878466796875,0.0303187295794487,-0.023059647530317307,-0.03267800807952881
1761468892391739600,8.20873974609375,0.036111101508140564,-0.02872285805642605,-0.030202867463231087
1761468892401695700,8.21869580078125,0.03714468330144882,-0.010519882664084435,-0.01904207095503807
1761468892411651600,8.228651611328125,0.030903831124305725,0.009532122872769833,-0.0037613846361637115
1761468892421607700,8.238607666015625,0.023857861757278442,0.005879772827029228,0.009966898709535599
1761468892431562800,8.248562744140624,0.014757572673261166,0.0004218907852191478,0.024398569017648697
1761468892441518800,8.258518798828124,0.0009946145582944155,0.021781953051686287,0.04808025434613228
1761468892451474700,8.268474609375,-0.016402220353484154,0.041459519416093826,0.06956556439399719
1761468892461429500,8.278429443359375,-0.033229172229766846,0.050339650362730026,0.07474362105131149
1761468892471385600,8.288385498046875,-0.04570182040333748,0.06456492841243744,0.06858160346746445
1761468892481341700,8.298341796875,-0.04592406004667282,0.06840529292821884,0.05190414935350418
1761468892491296800,8.308296875,-0.03538806363940239,0.056212540715932846,0.026412902399897575
1761468892501252600,8.318252685546875,-0.02125902660191059,0.036532845348119736,-0.009345395490527153
1761468892511208700,8.328208740234375,-0.0035641854628920555,0.019844412803649902,-0.039873212575912476
1761468892521164500,8.33816455078125,0.008634157478809357,0.015949539840221405,-0.050699226558208466
1761468892531119900,8.348119873046874,0.007373151369392872,-0.013884522952139378,-0.05313921719789505
1761468892541697800,8.35869775390625,0.009626451879739761,-0.00784713588654995,-0.04862382635474205
1761468892551653600,8.368653564453124,0.007435897830873728,0.015595156699419022,-0.04590568318963051
1761468892561609700,8.378609619140626,0.001980145927518606,0.00983367394655943,-0.06977453082799911
1761468892571564800,8.388564697265625,0.003451686818152666,-0.005175900179892778,-0.09357369691133499
1761468892581521000,8.39852099609375,0.008286389522254467,-0.025280369445681572,-0.09620756655931473
1761468892591476700,8.408476806640625,0.013189833611249924,-0.0405222550034523,-0.08214721083641052
1761468892601432800,8.418432861328125,0.018604572862386703,-0.03611685708165169,-0.06292477995157242
1761468892611387600,8.4283876953125,0.03238936886191368,-0.032765354961156845,-0.03714153915643692
1761468892621343500,8.438343505859375,0.045773085206747055,-0.03369133546948433,-0.009172487072646618
1761468892631299800,8.4482998046875,0.05672932788729668,-0.025346854701638222,0.02478468045592308
1761468892641254700,8.458254638671875,0.06038025766611099,-0.01914355531334877,0.04647160321474075
1761468892651210800,8.468210693359374,0.05540851131081581,0.0031333426013588905,0.055799297988414764
1761468892661166600,8.47816650390625,0.0389816015958786,0.01378412265330553,0.08337872475385666
1761468892671121700,8.48812158203125,0.023504193872213364,-0.0002814500476233661,0.11310553550720215
1761468892681077800,8.498077880859375,0.020687900483608246,0.001051994739100337,0.11673861742019653
1761468892691033600,8.50803369140625,0.029709525406360626,0.012669232673943043,0.10242808610200882
1761468892700989700,8.51798974609375,0.0416058674454689,0.016496460884809494,0.08864676207304001
1761468892710944800,8.52794482421875,0.04199512302875519,0.00256893178448081,0.07893499732017517
1761468892720900900,8.53790087890625,0.03503229096531868,0.0008325506933033466,0.07189493626356125
1761468892730856700,8.547856689453125,0.024958552792668343,0.0021081161685287952,0.056273527443408966
1761468892740811800,8.557811767578125,0.015838824212551117,-0.01057438924908638,0.03938855230808258
1761468892750767600,8.567767578125,0.009367931634187698,0.0005314352456480265,0.032412655651569366
1761468892760723700,8.5777236328125,0.007541269063949585,0.030338065698742867,0.021112065762281418
1761468892770678800,8.5876787109375,0.005550733767449856,0.031738266348838806,0.013775140047073364
1761468892780634600,8.597634521484375,-0.0021111806854605675,0.027333395555615425,0.016309138387441635
1761468892790590700,8.6075908203125,-0.011615470051765442,0.02695469558238983,0.01395463664084673
1761468892800546600,8.617546630859374,-0.015312470495700836,0.02723858878016472,0.0069633061066269875
1761468892810502000,8.627501953125,-0.01974078267812729,0.025142502039670944,-0.008239197544753551
1761468892820457700,8.637457763671875,-0.02599361725151539,0.029254954308271408,-0.025092480704188347
1761468892830413800,8.647413818359375,-0.03701529651880264,0.024979962036013603,-0.041704945266246796
1761468892840368600,8.65736865234375,-0.04856063053011894,0.01600617542862892,-0.043693795800209045
1761468892850324700,8.66732470703125,-0.049266912043094635,0.025144632905721664,-0.03179064393043518
1761468892860280800,8.67728076171875,-0.05175803229212761,0.02252807840704918,-0.02613595314323902
1761468892870235600,8.687235595703125,-0.04130517318844795,0.03035857155919075,-0.015787580981850624
1761468892880191700,8.697191650390625,-0.027617590501904488,0.026913506910204887,-0.004204961936920881
1761468892890147600,8.707147705078125,-0.01605137623846531,0.023713625967502594,0.002227766439318657
1761468892900103700,8.717103759765624,-0.0055896807461977005,0.022529585286974907,0.010318183340132236
1761468892910058800,8.727058837890626,-0.004624462686479092,0.005970141850411892,0.009435529820621014
1761468892920014600,8.7370146484375,0.0011577927507460117,-0.0031506523955613375,0.0168436449021101
1761468892929970700,8.746970703125,0.00440203957259655,0.018624326214194298,0.039226748049259186
1761468892939925800,8.75692578125,0.0016318196430802345,0.028527824208140373,0.049372598528862
1761468892949881900,8.7668818359375,0.0055876304395496845,0.033656276762485504,0.049117326736450195
1761468892959837700,8.776837646484376,-0.007453602738678455,0.09045138210058212,0.11142410337924957
1761468892969792500,8.78679248046875,-0.025936270132660866,0.038908474147319794,0.10347819328308105
1761468892979748600,8.79674853515625,-0.01441037654876709,0.030928578227758408,0.08635620027780533
1761468892989704700,8.80670458984375,-0.007135024759918451,0.000926913577131927,0.05041652172803879
1761468892999660800,8.816660888671874,-0.005013017915189266,-0.01110178604722023,0.02713995799422264
1761468893009615600,8.82661572265625,0.00040689483284950256,-0.028191737830638885,0.006676206365227699
1761468893019571700,8.83657177734375,0.00893699936568737,-0.03551409766077995,-0.015299666672945023
1761468893029527600,8.846527587890625,0.009611966088414192,-0.03495004400610924,-0.036073558032512665
1761468893039483000,8.85648291015625,0.009876950643956661,-0.048416584730148315,-0.06448043882846832
1761468893049438700,8.866438720703124,0.014355719089508057,-0.07446876913309097,-0.09274780005216599
1761468893059394600,8.87639453125,0.017002101987600327,-0.07265249639749527,-0.11078991740942001
