time,seconds_elapsed,z,y,x
1761468248067299600,0.070299560546875,-0.18877952758073804,-0.027355186045914887,0.02157886766679585
1761468248077253600,0.080253662109375,-0.3956546838223934,-0.010425094033032656,0.008443893620558083
1761468248087207700,0.090207763671875,-0.47063715183138843,-0.02021364372819662,-0.023132819110527635
1761468248097161500,0.100161376953125,-0.38528935715258117,0.001980652423202991,-0.05919436737177893
1761468248107115800,0.11011572265625,-0.26173019750118254,0.008298603398352861,-0.07326116064172238
1761468248117070600,0.120070556640625,-0.11369710632860659,0.003087152360379696,-0.06852874355865642
1761468248127024600,0.130024658203125,0.05979892740249634,-0.019663170238584278,-0.08961089548338204
1761468248136978700,0.139978759765625,0.11256313386261463,0.01771378973647952,-0.06974124288726598
1761468248146932500,0.149932373046875,0.054928691017627713,0.04095218811333179,-0.052255891611799596
1761468248156887600,0.159887451171875,-0.030112814190983772,0.057513300683349367,-0.023889318299945443
1761468248166841900,0.169841796875,-0.1598597225666046,0.07054872334524989,-0.015080920482240617
1761468248176795600,0.179795654296875,-0.28614684587717054,0.044018005424737924,0.02430305019998923
1761468248186749700,0.189749755859375,-0.2279255430549383,0.05954392972812056,-0.044429928960185494
1761468248196703700,0.199703857421875,-0.08725625864863396,0.09510726440995931,-0.06662258114377036
1761468248206658600,0.209658447265625,0.033033670073747634,0.07820639849156141,-0.06440265833828598
1761468248216612600,0.219612548828125,0.15632921035289762,0.05261486111730337,-0.057867721877899014
1761468248226566700,0.229566650390625,0.21505787817537783,0.02940539657399058,-0.0553981168939732
1761468248236520400,0.2395205078125,0.16695172665417193,0.01484904795512557,-0.07125873477812857
1761468248246475800,0.249475830078125,0.09269465031027793,0.024484160654246807,-0.05999141776729375
1761468248256429600,0.2594296875,0.07577391064763069,0.01585398721396923,-0.06104794108290225
1761468248266383600,0.269383544921875,0.07317337276041508,0.014475246206670999,-0.09453183914218097
1761468248276337700,0.279337646484375,0.03066226476728916,0.03269932355284691,-0.11318451716396957
1761468248286291700,0.289291748046875,-0.05273614940941333,-0.0035943712301552294,-0.14666344678718596
1761468248296246500,0.29924658203125,-0.13509060749113558,-0.07392053786590695,-0.16098408695403485
1761468248306200800,0.309200927734375,-0.1788315495401621,-0.11259235995709896,-0.16684110588654874
1761468248316154600,0.319154541015625,-0.12228957810699939,-0.08683920228034257,-0.14626666602194308
1761468248326108700,0.329108642578125,-0.019238368955254555,-0.041620296633243556,-0.12076357411611824
1761468248336063700,0.339063720703125,-0.025474048474431035,-0.020624270355701444,-0.05682338219042867
1761468248346017500,0.349017578125,-0.08130582581162452,0.003103665103763342,-0.028514512148872018
1761468248355971600,0.3589716796875,-0.15180559544861316,-0.018096797704696653,-0.025546675319224596
1761468248365925600,0.368925537109375,-0.11526187142729759,-0.0413438177794218,-0.05834449081048369
1761468248375879400,0.37887939453125,-0.017714520388841627,-0.02187090941593051,-0.1324287678707391
1761468248385834800,0.388834716796875,0.05089607450067997,0.01391775845438242,-0.0786013160932809
1761468248395788500,0.39878857421875,0.09303893370330334,0.007088935347646474,-0.06326243879459797
1761468248405742600,0.40874267578125,-0.00936813232600689,0.005519640204310417,-0.010825272331759332
1761468248415696600,0.418696533203125,-0.19014906236827372,-0.021124182701855898,0.025904768041893837
1761468248425651500,0.4286513671875,-0.2329717205286026,0.007395955470204353,-0.024882585387304423
1761468248435605500,0.43860546875,-0.14642156432271003,0.0671193334184587,-0.12804225988220422
1761468248445559800,0.448559814453125,-0.04274082509577274,0.07692454198747872,-0.18476207210030407
1761468248455513600,0.458513671875,0.04072831622958183,0.05745046458020806,-0.15577965017873793
1761468248465468700,0.46846875,0.1082639753639698,0.054230479620397086,-0.14937405745275317
1761468248475422700,0.478422607421875,0.16090893935859202,0.0674555796355009,-0.1513245339334011
1761468248485376500,0.48837646484375,0.138859020113945,0.07810688363984226,-0.09779011028576641
1761468248495330600,0.49833056640625,0.13681260897815226,0.07655074023902415,-0.09723331665322184
1761468248505284600,0.50828466796875,0.17629530906081198,0.08188406409099698,-0.14961382102537898
1761468248515239700,0.51823974609375,0.13953414289653301,0.10118673045411705,-0.17850673803258688
1761468248525193700,0.52819384765625,0.04546645066738128,0.09665171737298368,-0.17593122498877345
1761468248535147800,0.538147705078125,0.0005833528459072112,0.08839563794210553,-0.19885745214391498
1761468248545101600,0.5481015625,0.010650573351979255,0.0653667906627059,-0.23942926263753322
1761468248555056600,0.558056640625,0.022847207102179527,0.03965937182381749,-0.24139979552552102
1761468248565010400,0.568010498046875,0.06218728384375572,0.01431640238314867,-0.19459815073162315
1761468248574964500,0.577964599609375,0.010741174244880676,0.02726648484915495,-0.1732838888177648
1761468248584918800,0.587918701171875,-0.07235211950540542,0.07831146630123258,-0.1336005881290883
1761468248594873600,0.59787353515625,-0.09327215793728828,0.07589359150454401,-0.1443400818735361
1761468248604827600,0.60782763671875,-0.10074293220937251,0.06012523674741387,-0.12365250049065797
1761468248614781700,0.61778173828125,-0.0662011956602335,0.04096621663868427,-0.07596059232614934
1761468248624735500,0.627735595703125,0.00014203881919384003,0.04833469958007335,-0.05404887597579509
1761468248634689500,0.637689453125,0.047994507840275764,0.0670173343487084,-0.04900631523132324
1761468248644644900,0.647644775390625,0.0331570041924715,0.0837717775337398,-0.03041464668177068
1761468248654598700,0.6575986328125,-0.014186346262693404,0.07035685403496027,-0.03355984937231987
1761468248664552700,0.667552734375,-0.037730887979269025,0.048876112980395556,-0.04617229738179594
1761468248674506800,0.6775068359375,-0.03801321205198765,0.01654196947813034,-0.043637993131205435
1761468248684461600,0.687461669921875,-0.040462358769774436,0.03437733976766467,-0.020763861489482224
1761468248694415600,0.69741552734375,-0.045423196047544474,0.0328403394587338,-0.03789703832641244
1761468248704369700,0.70736962890625,-0.010175357055664061,0.030443507450073955,-0.04955503515526652
1761468248714323700,0.71732373046875,0.02014379336237907,0.0482641185618937,-0.05575052879452705
1761468248724278800,0.72727880859375,0.008799977049231529,0.021820202142000197,-0.04742708321586251
1761468248734232600,0.737232666015625,-0.0358890595048666,0.026034166575223207,-0.07104129263516515
1761468248744186600,0.7471865234375,-0.0022270283997058867,0.028968028070032594,-0.1187798164203763
1761468248754140700,0.757140625,0.05718669907748699,0.05290288427844643,-0.1138057543348521
1761468248764094500,0.767094482421875,0.1278624098032713,0.056491410289704794,-0.09207677414026111
1761468248774049800,0.7770498046875,0.13906009564399718,0.0709599344946444,-0.0737851845158264
1761468248784003800,0.78700390625,0.08182605029344558,0.06951981868892908,-0.08455204119123517
1761468248793957600,0.79695751953125,-0.0013859014004468917,0.07011763845160603,-0.1067882402556017
1761468248803911700,0.80691162109375,-0.03399053240716457,0.06949439198672772,-0.13982735368944704
1761468248813866500,0.816866455078125,-0.05987666881382465,0.08317001224830746,-0.1346350822759792
1761468248823820500,0.826820556640625,-0.08780512470304966,0.0921577669546008,-0.12347498849928379
1761468248833774600,0.836774658203125,-0.04986439336538315,0.09263371390327811,-0.14020827929843216
1761468248843728600,0.846728759765625,-0.02214168918132782,0.09341302771270274,-0.13399539613295347
1761468248853683700,0.85668359375,0.026550737795233724,0.07247296940609813,-0.11555310945883393
1761468248863637800,0.8666376953125,0.08808511068820953,0.05174348511025309,-0.12317984147761016
1761468248873591600,0.876591552734375,0.11759937446415424,0.04425386000722646,-0.11938256808649748
1761468248883545600,0.886545654296875,0.034405542948842044,0.03922434140741825,-0.1300267847629264
1761468248893500700,0.896500732421875,-0.062008420145511625,0.01678264636620879,-0.10285988783072679
1761468248903454500,0.906454345703125,-0.1234562837988138,0.0006808218710124492,-0.10936291304919868
1761468248913408800,0.91640869140625,-0.1481698692947626,-0.002088642842322588,-0.101378709362261
1761468248923362800,0.92636279296875,-0.11619243027567863,-0.016641045938432214,-0.0979385057805106
1761468248933317600,0.936317626953125,-0.06856324861645698,-0.021024813980609177,-0.06539798951856791
1761468248943271700,0.946271728515625,-0.06985153486132621,-0.03521934354975819,-0.038406120359711346
1761468248953225700,0.956225830078125,-0.03467734562754631,-0.033538843116909266,-0.02629552092514932
1761468248963179500,0.966179443359375,0.018840894070267677,-0.028827158294618127,-0.01766673572435975
1761468248973134800,0.976134765625,0.06652852791845798,-0.057247781614959234,0.013163031096942722
1761468248983088600,0.986088623046875,0.08919044158160686,-0.06312544147670268,0.02152067120615393
1761468248993042700,0.996042724609375,0.06870002673864364,-0.05528130384758115,0.03766143947225064
1761468249002996700,1.005996826171875,0.012006079614162444,-0.06574643763005733,0.041651860815286636
1761468249012950800,1.01595068359375,0.015579846447706222,-0.04334858173057437,0.01666260018311441
1761468249022905600,1.025905517578125,0.052583004674315446,-0.04737871402949095,0.013613149484619497
1761468249032859600,1.035859619140625,0.010835866791009903,-0.03553863863199949,0.021385537051782012
1761468249042813400,1.0458134765625,-0.05905366199314594,-0.012060586280375719,0.020906156037002802
1761468249052767700,1.055767822265625,-0.1215180092126131,-0.007083382389694452,-0.037941169729083776
1761468249062723000,1.06572314453125,-0.14213701887130736,-0.015118512546271085,-0.08426774435713887
1761468249072677000,1.075677001953125,-0.14084464097321034,-0.022599662081897256,-0.08469576051086188
1761468249082631200,1.085631103515625,-0.11530687961280345,0.006749912651628255,-0.08262447066213935
1761468249092585000,1.0955849609375,-0.06477905390262603,0.023566022896021603,-0.056968708945251995
1761468249102540000,1.1055400390625,-0.0353179816186428,0.003950783452391624,-0.0726551575725898
1761468249112494000,1.115494140625,-0.030228549525141715,-0.010361965668946503,-0.08455613284446299
1761468249122448100,1.1254482421875,-0.012190204009413718,-0.008873334546387194,-0.08459598993081599
1761468249132402200,1.135402099609375,-0.0031967502146959302,-0.01635974477902055,-0.0987236648088321
1761468249142357000,1.14535693359375,0.012575988456606865,-0.016320289551466704,-0.10258563746660947
1761468249152311000,1.15531103515625,-0.003263385710120201,0.005681698898226022,-0.10414989110864699
1761468249162265000,1.16526513671875,-0.0016769933015108108,-0.00866159149184823,-0.0797340829828754
1761468249172219100,1.17521923828125,0.017982231414318085,-0.018639818540215493,-0.07875270726270973
1761468249182174200,1.18517431640625,0.029442952105402945,0.000400105233490467,-0.09633271455168724
1761468249192128300,1.195128173828125,-0.021528525719046593,-0.01489610196724534,-0.06583312953282147
1761468249202082000,1.20508203125,-0.10959843883812427,-0.03809036894142628,-0.09120021050143987
1761468249212036000,1.2150361328125,-0.10451894361674785,-0.022498393664509057,-0.12282061624377966
1761468249221991200,1.2249912109375,-0.07023498122096061,0.0030884675346314907,-0.09908383989073336
1761468249231945000,1.234945068359375,-0.018365677773952482,-0.005415010786056518,-0.060536922820843754
1761468249241899000,1.24489892578125,0.04536065220534801,-0.005266834487020969,-0.05071768572647124
1761468249251853000,1.25485302734375,0.07071662725806235,0.0034390345379710194,-0.03451503120530396
1761468249261808000,1.26480810546875,0.06788929487764835,0.0013204349488019943,-0.023877609595842657
1761468249271762200,1.27476220703125,0.04028466411530971,-0.009520546408742666,-0.04822860885709524
1761468249281716200,1.28471630859375,0.03512508939504623,-0.008724865986406802,-0.06470639052521437
1761468249291670000,1.294669921875,0.04124678714573383,-0.026413667412102222,-0.05640650848522782
1761468249301624000,1.3046240234375,0.08405015608370303,0.009482552485913037,-0.031933490279503166
1761468249311579000,1.314578857421875,0.08258534422814845,0.027211978182941673,0.007784078004956245
1761468249321533200,1.324533203125,0.04673603221178055,0.018986440020799637,0.006417685022577643
1761468249331487200,1.3344873046875,0.05910451539754867,-0.011820786175131798,-0.03737856741026044
1761468249341441300,1.344441162109375,0.014732289707660674,-0.06701514239162207,-0.0635177652625367
1761468249351396000,1.35439599609375,-0.05620411778092384,-0.07541442968547343,-0.10430778508409858
1761468249361350100,1.36435009765625,-0.13531798650622368,-0.06551745117977262,-0.12784531253799794
1761468249371304000,1.374303955078125,-0.13119360005259514,-0.059679100415110584,-0.1266346215739846
1761468249381258000,1.384258056640625,-0.1300625501960516,-0.0755452164582908,-0.11275175176989287
1761468249391213000,1.394213134765625,-0.07636895393133163,-0.07865180417150258,-0.12820928701218218
1761468249401167000,1.4041669921875,0.01700900246798992,-0.06305544498041271,-0.1473125583456829
1761468249411121200,1.41412109375,0.11026128666102886,-0.05614464267864823,-0.11453012308664619
1761468249421075200,1.4240751953125,0.14973171178400516,-0.045874885337799785,-0.10563172716423869
1761468249431030000,1.434030029296875,0.09558569557666778,-0.02896656676530838,-0.12000343993119894
1761468249440984000,1.443984130859375,-0.0018967735320329665,-0.037194296884536744,-0.1210811886979267
1761468249450938000,1.453938232421875,-0.010863339319825171,-0.023381606239825485,-0.09529511513225734
1761468249460892200,1.46389208984375,-0.00930968013703823,-0.020262743566930294,-0.06668474139347672
1761468249470847200,1.47384716796875,-0.059631754142045974,-0.010885551151633262,-0.045436968844570214
1761468249480801000,1.483801025390625,-0.10450433056950569,0.005925444526225328,-0.03633285774961114
1761468249490755000,1.493755126953125,-0.12166413968503474,-0.02159764543250203,-0.04642696626260876
1761468249500709000,1.503709228515625,-0.08966799596548079,-0.03395093104913831,-0.044330980364046986
1761468249510664000,1.513663818359375,-0.04481704684793949,-0.05792246600612998,-0.017889475096948444
1761468249520618200,1.5236181640625,0.016519173124432563,-0.059873746204376216,-0.004091799358278513
1761468249530572300,1.533572265625,0.07835749740004538,-0.052635611644387244,-0.01514865195620805
1761468249540526000,1.543526123046875,0.07958031719326973,-0.04629939436018467,0.0071474606018513435
1761468249550481200,1.553481201171875,0.038116087904572486,-0.04582183997631073,-0.0038060046868398784
1761468249560435000,1.56343505859375,0.03463935170471668,-0.0361949105836451,-0.016396861919015644
1761468249570389000,1.573388916015625,0.06112403852641582,-0.046225598471611735,-0.03945511795599013
1761468249580343000,1.583343017578125,0.0984866777151823,-0.0650103784404695,-0.044865452566929157
1761468249590298000,1.593298095703125,0.16545184348523617,-0.11500044401213526,-0.06289148659035564
1761468249600252200,1.603252197265625,0.2223275769174099,-0.09683715694248676,-0.06399400447215885
1761468249610206200,1.613206298828125,0.18866671485602854,-0.07324366151764988,-0.041823271859437225
1761468249620160000,1.623159912109375,0.11797229942977427,-0.0516996459685266,-0.009844335003010928
1761468249630115000,1.633114990234375,0.08283785768449306,-0.03196194918900728,-0.00258504805713892
1761468249640069000,1.643069091796875,-0.022216507983207703,-0.05841901735141873,0.004645268522575498
1761468249650023000,1.65302294921875,-0.09609247605502605,-0.04520765360072255,-0.0014404080666601657
1761468249659977200,1.662977294921875,-0.10254209058582782,-0.03409691539108753,-0.052366658509895206
1761468249669932000,1.67293212890625,-0.061357262760400766,-0.05403334961310029,-0.08101732772644608
1761468249679886000,1.682885986328125,0.05608896696865558,-0.05289309353679418,-0.06442625840958208
1761468249689840000,1.692840087890625,0.15018413172662257,-0.04288534813299775,-0.042509281362220645
1761468249699794200,1.702794189453125,0.1865384706556797,-0.034662878710776564,-0.005788629871420562
1761468249709749000,1.7127490234375,0.1603834541797638,-0.031069676524400708,-0.03398556397110224
1761468249719703300,1.722703369140625,0.08642623756527901,-0.04358253661692142,-0.06213668616767972
1761468249729657000,1.732656982421875,0.08022270675003527,-0.08273395891860127,-0.08757120634932071
1761468249739611100,1.742611083984375,0.11551087775230406,-0.07580562096014619,-0.0776973529908806
1761468249749565200,1.752565185546875,0.20512334413826463,-0.0914339827246964,-0.037863391785137354
1761468249759520000,1.76252001953125,0.24628420656621455,-0.09541253096684812,0.012828903771750628
1761468249769474000,1.77247412109375,0.23982874681651592,-0.11008929109498858,0.06527794333547353
1761468249779428000,1.782427978515625,0.2597065827190876,-0.10448299552053213,0.08160510101914405
1761468249789382000,1.7923818359375,0.269676188069582,-0.10929448745548724,0.0903309168536216
1761468249799337200,1.802337158203125,0.22652502860724924,-0.15310571826174854,0.12080839963853358
1761468249809291000,1.812291015625,0.12004033787548542,-0.16804010641276834,0.16817348700147122
1761468249819245000,1.8222451171875,-0.0034632921963930127,-0.15779636029601096,0.16965956084076314
1761468249829199000,1.83219921875,-0.005168927070498466,-0.17501915164515375,0.17869513674415646
1761468249839154000,1.84215380859375,0.024810616129636764,-0.19210516487210988,0.22041191602181642
1761468249849108000,1.85210791015625,0.05371580809652805,-0.19486264688670635,0.2644985662359744
1761468249859062300,1.862062255859375,0.08128419850170612,-0.20615911692678926,0.26161475442796944
1761468249869016000,1.87201611328125,0.025423195070028305,-0.22396730694845318,0.22942546275649217
1761468249878971100,1.88197119140625,-0.10428922651410102,-0.2441755438491702,0.19151472469829023
1761468249888925200,1.89192529296875,-0.18666998808085916,-0.2670538767419755,0.1581016633855179
1761468249898879000,1.90187890625,-0.1945329765409231,-0.26540318692550063,0.1257439563445747
1761468249908833000,1.9118330078125,-0.16587153020203113,-0.2696777955047786,0.09137954912371933
1761468249918788000,1.9217880859375,-0.07197919453978538,-0.2712162571184337,0.045000294460356235
1761468249928742100,1.9317421875,-0.015071312403678892,-0.27853797830864785,0.009783800454810261
1761468249938696200,1.9416962890625,-0.028405425751209256,-0.2931321747198701,-0.0016111615236848592
1761468249948650200,1.951650146484375,-0.042803368937969204,-0.3014223025508225,-0.016166852555423973
1761468249958605000,1.96160498046875,-0.06644201867878437,-0.28687121462896464,-0.06802694978266954
1761468249968559000,1.97155908203125,-0.12064707159698008,-0.2677186242610216,-0.09107165221832692
1761468249978513000,1.981512939453125,-0.15187456903159618,-0.2291543541975319,-0.043530148842558264
1761468249988467200,1.99146728515625,-0.16308043817877768,-0.18675562053769826,-0.04364551885053515
1761468249998422300,2.00142236328125,-0.13489888431131838,-0.19223785134106874,-0.05909377480782568
1761468250008376000,2.0113759765625,-0.04613514370918274,-0.17780264488384126,-0.06546089868694543
1761468250018330000,2.021330078125,0.05616261672675609,-0.16386998112127185,-0.0447806603603065
1761468250028284200,2.0312841796875,0.1392950734436512,-0.15283976080194114,-0.01818089579157531
1761468250038239000,2.041239013671875,0.19609248094260692,-0.1343938573986292,0.011032558406889438
1761468250048193300,2.051193359375,0.237629775467515,-0.10322408150061964,-0.02645699509717524
1761468250058147000,2.06114697265625,0.2775514514893293,-0.058280631794035434,-0.044189927925541994
1761468250068101400,2.071101318359375,0.29411095662415027,-0.041431203801929946,-0.0022300240743905303
1761468250078055400,2.081055419921875,0.23107962317168712,0.008789309524744748,0.0475322971560061
1761468250088009500,2.091009521484375,0.10329378573596477,0.04351078655496239,0.04071377624757588
1761468250097963500,2.100963623046875,0.006313420930504798,0.046686493981629607,-0.012989976084977388
1761468250107917600,2.11091748046875,-0.08099544468820094,0.019777955724671482,-0.08095430896021426
1761468250117872400,2.120872314453125,-0.1303320147871971,-0.0371960504502058,-0.14285897647030651
1761468250127826400,2.130826416015625,-0.024813538739085195,-0.06218078103773295,-0.30659210640415546
1761468250137780500,2.140780517578125,0.13189853345155717,-0.13020670790709554,-0.3878492707684636
1761468250147735300,2.1507353515625,0.3001706950545311,-0.18587715720273554,-0.3961582494303584
1761468250157689600,2.160689697265625,0.4237415451437235,-0.18832893426902592,-0.41846645428501067
1761468250167643600,2.1706435546875,0.46023967645764347,-0.1799680062241852,-0.4394675220638513
1761468250177597400,2.180597412109375,0.4956488434910774,-0.23491620565988122,-0.41187465480454266
1761468250187552500,2.190552490234375,0.4431102624803781,-0.24167795487977564,-0.3562091008797288
1761468250197506300,2.20050634765625,0.3035194209605455,-0.19137246668338775,-0.3513897178992629
1761468250207460400,2.21046044921875,0.17277414919734,-0.18630816903114317,-0.30394970213659106
1761468250217414400,2.220414306640625,0.06962649393379688,-0.22191095894053578,-0.19202070145905017
1761468250227369500,2.230369384765625,0.0279635272026062,-0.2428050592135638,-0.13842581632845102
1761468250237323500,2.240323486328125,-0.06326163507699967,-0.2552600516390055,-0.09701879711970686
1761468250247277600,2.250277587890625,-0.11339958468675612,-0.33421646478027106,-0.07847929714880883
1761468250257231400,2.2602314453125,-0.1464806010335684,-0.36705234725959596,-0.06793693341165781
1761468250267186400,2.2701865234375,-0.1943365771859884,-0.38858094604387877,-0.024181597511097788
1761468250277140500,2.280140380859375,-0.20492811382710932,-0.3857539059244096,0.006660188541561364
1761468250287094500,2.290094482421875,-0.19663024108111857,-0.40658736205138263,-0.019176848026365042
1761468250297048600,2.300048583984375,-0.2542635148823261,-0.4279025372806936,-0.09258819426111876
1761468250307003400,2.31000341796875,-0.3936848450541496,-0.47042862364724275,-0.24137035023532807
1761468250316957400,2.31995751953125,-0.5654097774595022,-0.530615015997365,-0.4168363688651472
1761468250326911500,2.329911376953125,-0.684267043030262,-0.6181723034191876,-0.555051026660949
1761468250336865500,2.339865478515625,-0.7213362522304058,-0.6921878991574049,-0.6214378080211579
1761468250346820600,2.349820556640625,-0.6436573847442865,-0.6951382003303617,-0.6464334253288805
1761468250356774700,2.359774658203125,-0.4846767830997705,-0.6808737473301589,-0.5902962353043257
1761468250366728400,2.369728515625,-0.3067565031856298,-0.6680924455597996,-0.4589033132873475
1761468250376682500,2.3796826171875,-0.2070990281254053,-0.6516738102003932,-0.3257038533050567
1761468250386637600,2.389637451171875,-0.17725684756934643,-0.6827179138921201,-0.19420235634706914
1761468250396591400,2.39959130859375,-0.2005383544355631,-0.715490010420233,-0.06355791460983455
1761468250406545400,2.40954541015625,-0.21188918501138687,-0.7485207578845322,0.08296024195514619
1761468250416500500,2.41950048828125,-0.24509061286747455,-0.7291155809950083,0.2131822204966098
1761468250426454500,2.42945458984375,-0.25202362700104713,-0.6773494456615299,0.32210619413927194
1761468250436408600,2.43940869140625,-0.20438567751348016,-0.655601431972906,0.4197645312715321
1761468250446362400,2.4493623046875,-0.10952069742679596,-0.6156118052814156,0.46656792963109905
1761468250456317400,2.4593173828125,-0.026814357167482376,-0.5944317276738583,0.5395912994615734
1761468250466271500,2.469271484375,0.05410217706561088,-0.5806904948301613,0.5812045818321406
1761468250476225300,2.479225341796875,0.16269991442859172,-0.5685179726079106,0.5494046182718128
1761468250486179600,2.4891796875,0.2714724238365888,-0.5703177885714918,0.5033288765996694
1761468250496134400,2.499134521484375,0.38370997900664805,-0.5192315252609551,0.45895898899734017
1761468250506088400,2.50908837890625,0.5276718752175569,-0.4816719021953642,0.3830773071262985
1761468250516042500,2.51904248046875,0.6780132433325052,-0.4561258113980293,0.28833697633259
1761468250525996500,2.52899658203125,0.7945394356071949,-0.40950156899765133,0.21100407273992894
1761468250535951400,2.538951416015625,0.8920382713288069,-0.3742808372084051,0.12253551569208503
1761468250545905700,2.54890576171875,0.9585387421965599,-0.3656613312926143,0.045865459922328586
1761468250555859500,2.558859375,1.0636217494368552,-0.36495186784900724,-0.04866553896963596
1761468250565813500,2.5688134765625,1.081940080937743,-0.3728056500893086,-0.09034845251031219
1761468250575768600,2.5787685546875,1.0309142425775528,-0.37835393186621363,-0.11709902372658253
1761468250585722400,2.588722412109375,1.0664584341675043,-0.35253099688887596,-0.2060391438089311
1761468250595676400,2.598676513671875,1.0980991885781288,-0.3939597895380109,-0.2943259876143187
1761468250605630500,2.60863037109375,1.07355336086452,-0.5097521876454353,-0.312845467710495
1761468250615585500,2.61858544921875,1.0318997464835644,-0.5749469096768647,-0.3720171300601214
1761468250625539600,2.62853955078125,0.9799603004097938,-0.6007843115709721,-0.500074770174548
1761468250635493600,2.63849365234375,0.8060153538674115,-0.7365098559647798,-0.5004195650242269
1761468250645447400,2.648447509765625,0.5753612626314163,-0.8521081928048282,-0.5358841885719448
1761468250655402500,2.658402587890625,0.31321663911044595,-0.957571869925782,-0.636150150919333
1761468250665356300,2.668356201171875,0.004368716603517532,-1.064912008443102,-0.6772445239823311
1761468250675310300,2.678310302734375,-0.24980127477645872,-1.1842051081478595,-0.7030379406042396
1761468250685265700,2.688265625,-0.45639878312051296,-1.266108023069799,-0.6968364556156098
1761468250695219500,2.698219482421875,-0.593400192669034,-1.3582684203729032,-0.6934756739456206
1761468250705173500,2.708173583984375,-0.6589385405063629,-1.4241094044186173,-0.647716962333396
1761468250715127600,2.71812744140625,-0.644158320003748,-1.4451163904815911,-0.5554360073905438
1761468250725082400,2.728082275390625,-0.5746639280170202,-1.4459174777314066,-0.4371438283566385
1761468250735036400,2.738036376953125,-0.45250703637897965,-1.444341752847284,-0.297410582691431
1761468250744990500,2.747990478515625,-0.2680027018994093,-1.4090502208441495,-0.15732837745808065
1761468250754944500,2.757944580078125,-0.1304980190038681,-1.390911922085285,-0.03596051730588078
1761468250764899600,2.767899658203125,-0.04268354195058346,-1.335235189179331,0.06270064019337296
1761468250774853400,2.777853271484375,0.03814414495527744,-1.268746847140789,0.07882913349978625
1761468250784807400,2.787807373046875,0.07823708589076996,-1.2046738226156681,0.05773074282631278
1761468250794761500,2.797761474609375,0.03919686887860298,-1.1285256718281655,0.02511551736034453
1761468250804716500,2.807716552734375,-0.06681552816629409,-1.0886383364673704,-0.024112770058587193
1761468250814670600,2.817670654296875,-0.1665267792403698,-1.0647956885870546,-0.1730624646194279
1761468250824624600,2.827624755859375,-0.261382406976819,-1.0565250691741703,-0.320975363478437
1761468250834578400,2.837578369140625,-0.3432780153751373,-1.0523060632396488,-0.41244069118946786
1761468250844533500,2.847533447265625,-0.44751931109428406,-1.0509789062891155,-0.4378877055265009
1761468250854487300,2.8574873046875,-0.5544020612329245,-1.0212853404235094,-0.4319873223762959
1761468250864441300,2.86744140625,-0.5514332745552063,-1.1317679416850208,-0.5407983371637761
1761468250874396700,2.877396728515625,-0.6492395687907934,-1.1657408653702586,-0.5492863256543874
1761468250884350500,2.8873505859375,-0.7993477126717567,-1.2575108751162887,-0.6190933637868613
1761468250894304500,2.897304443359375,-0.9527987372398375,-1.357838212262094,-0.6494396944727748
1761468250904258600,2.907258544921875,-1.1189075833290816,-1.4203887764602898,-0.6747653474524616
1761468250914213400,2.91721337890625,-1.3033756774514913,-1.4359423194229601,-0.710346583117172
1761468250924167400,2.92716748046875,-1.4825129319399595,-1.4285589311733842,-0.7024158631831408
1761468250934121500,2.93712158203125,-1.6495488297462462,-1.4410402270838618,-0.6702529845945536
1761468250944075500,2.947075439453125,-1.8149878137499094,-1.399476044552028,-0.6185485163204372
1761468250954030600,2.957030517578125,-1.9950112034231424,-1.2238221021346747,-0.6691874742548912
1761468250963984400,2.966984375,-2.1699749716192485,-1.024633043416217,-0.7418535550802946
1761468250973938400,2.9769384765625,-2.3396184215754268,-0.8090016031365841,-0.7266988752420991
1761468250983892500,2.986892578125,-2.3871119941562413,-0.5354679359212517,-0.7598894894432277
1761468250993847300,2.996847412109375,-2.357912203156948,-0.2434290363308042,-0.6483424007553606
1761468251003801600,3.006801513671875,-2.1223300078690053,0.005749868763610721,-0.523846471710503
1761468251013755600,3.016755615234375,-1.5817846225529908,0.159944770501554,-0.38595900004245337
1761468251023709400,3.02670947265625,-0.8968295972585678,0.37792379682064053,-0.253648670919612
1761468251033664500,3.03666455078125,-0.18670213678479194,0.619485943301022,0.019210092708840967
1761468251043618600,3.04661865234375,0.5188660529494286,0.8000203512363135,0.31360629601515827
1761468251053572400,3.056572265625,1.111215275260806,0.9828003461413085,0.5865121867209673
1761468251063528200,3.066528076171875,1.626271999055147,1.0856561788514256,0.7574100206524134
1761468251073482200,3.076482177734375,1.976716252797842,1.0410801011525095,0.8422919513851403
1761468251083436300,3.086436279296875,2.17526781733036,1.0305085843861101,0.7940992906242609
1761468251093390300,3.096390380859375,2.2294874832957983,1.0371833859749138,0.714355015040934
1761468251103345200,3.10634521484375,2.1796283506274223,1.005148517680168,0.5130523251693695
1761468251113299500,3.116299560546875,1.990237413150072,0.8916345128335058,0.4177047491975128
1761468251123253200,3.126253173828125,1.589639427706599,1.0737414307825266,0.5189000282842665
1761468251133207300,3.136207275390625,1.3135358369380234,1.2852895472712813,0.5884335101723671
1761468251143162400,3.146162353515625,1.0775701952904462,1.4317426757760345,0.6275784296680241
1761468251153116200,3.1561162109375,0.8950397912323474,1.4960276625514028,0.6441029365547001
1761468251163070200,3.1660703125,0.7484820333093404,1.5889005920380352,0.6222802501946687
1761468251173024300,3.176024169921875,0.6565665506780147,1.6398539496839046,0.6524594076201319
1761468251182979300,3.185979248046875,0.6246621768951416,1.6355669200144707,0.7028888144571334
1761468251192933400,3.195933349609375,0.6565560292840004,1.5928703724518418,0.7215858430773019
1761468251202887400,3.205887451171875,0.6995633963614701,1.5155023244805632,0.7126423659041523
1761468251212842200,3.21584228515625,0.6391062973111867,1.4045635769493876,0.7052721293970942
1761468251222796300,3.22579638671875,0.5493009387016297,1.291509006308019,0.64242689310126
1761468251232750000,3.23575,0.3636550329715013,1.1579578833438455,0.5587966063974424
1761468251242704100,3.2457041015625,0.10729951424598694,0.9841568753167986,0.4347726057132706
1761468251252659200,3.2556591796875,-0.14469371761679647,0.8327556228853762,0.21994944960922003
1761468251262613200,3.26561328125,-0.3489730121463537,0.7109924067400395,-0.01614643082190305
1761468251272567300,3.2755673828125,-0.5027309107065201,0.5936372162953019,-0.13402447609696536
1761468251282521300,3.285521240234375,-0.5749912602752447,0.49300358967930075,-0.22559472548719495
1761468251292476200,3.29547607421875,-0.5460743778705597,0.3731258950196206,-0.3182587249308824
1761468251302430200,3.30543017578125,-0.42112697873115534,0.2797169589601457,-0.38972624362148345
1761468251312384300,3.31538427734375,-0.24265198754370212,0.13549407372549174,-0.41599027342982586
1761468251322338300,3.32533837890625,-0.0551385343760252,0.013315700908005237,-0.44022316273674367
1761468251332293400,3.33529345703125,0.1406581784904003,-0.11594357008114456,-0.4621294357270002
1761468251342247200,3.3452470703125,0.2977595422595739,-0.24521935381367801,-0.4724538093319162
1761468251352201200,3.355201171875,0.41435821524858474,-0.3631140579625964,-0.5217808444175869
1761468251362155300,3.3651552734375,0.4884586397260427,-0.4860916183337569,-0.5496192839358002
1761468251372110300,3.3751103515625,0.5500765992492437,-0.5498696785002947,-0.5582328715674579
1761468251382064400,3.385064453125,0.5993634849876165,-0.6184880913700908,-0.557389333415404
1761468251392018400,3.395018310546875,0.6894973448991775,-0.6897755042534321,-0.56062773081474
1761468251401973200,3.40497314453125,0.7356354112178087,-0.7362124073881655,-0.5426452071394771
1761468251411927300,3.41492724609375,0.7260667878836393,-0.7876612934660167,-0.512768978183344
1761468251421881000,3.424881103515625,0.7267781510233878,-0.8363984363671392,-0.4930168144870549
1761468251431835100,3.434835205078125,0.689160660290718,-0.8592951816994696,-0.454186294702813
1761468251441790500,3.44479052734375,0.5600006118923425,-0.8903582823526114,-0.37849765118584033
1761468251451744300,3.454744140625,0.3627233050793409,-0.8992162731993943,-0.2755151233561337
1761468251461698300,3.4646982421875,0.11367314093112944,-0.9135524031963199,-0.2543092537201941
1761468251471652400,3.47465234375,-0.10055530068278312,-0.9323525268647819,-0.21815664790831504
1761468251481607200,3.484607177734375,-0.25106793371140956,-0.951782399804145,-0.23092399421855805
1761468251491561200,3.494561279296875,-0.34460488006472584,-0.9749543088160455,-0.18791859990246593
1761468251501515300,3.504515380859375,-0.3718681500434875,-0.9822212310791015,-0.12642682404220104
1761468251511469300,3.51446923828125,-0.3335375426054001,-0.9516407993763685,-0.03459522030204534
1761468251521424400,3.52442431640625,-0.2762970675140619,-0.9341228244729339,0.04927936001904309
1761468251531378200,3.534378173828125,-0.24755086550116537,-0.9054415043897927,0.14383476269990206
1761468251541332200,3.544332275390625,-0.16401859581172465,-0.9051845339540392,0.20264723634831605
1761468251551286300,3.554286376953125,-0.02566694069802761,-0.9307900267884135,0.2266765659071505
1761468251561241000,3.564240966796875,0.12213467980623245,-0.9596042525362223,0.27156170955523845
1761468251571195400,3.5741953125,0.25278292093575,-0.9858613411471248,0.3159110658261925
1761468251581149400,3.5841494140625,0.4133493304669857,-0.994393314909935,0.3161071729201823
1761468251591104300,3.594104248046875,0.5447779083192348,-1.017810065528378,0.31287717802301046
1761468251601058300,3.604058349609375,0.5949263793230056,-1.0264489337317646,0.30599713618569074
1761468251611012000,3.61401220703125,0.5782260044127703,-1.049982661793381,0.27912264632880684
1761468251620966100,3.623966064453125,0.4807663316577673,-1.102409233796969,0.15949549236409366
1761468251630921500,3.63392138671875,0.28261224201023577,-0.9779873929016292,0.08599449508450925
1761468251640875300,3.643875244140625,0.12246844180524348,-1.0695354304600506,-0.08554265966378152
1761468251650829300,3.653829345703125,-0.06365384926497936,-1.0784647329773753,-0.14876374353468416
1761468251660783400,3.663783447265625,-0.205495684581995,-0.9492774312458931,-0.19603622071072457
1761468251670738200,3.67373828125,-0.4225000206500292,-1.0400450590163468,-0.2637178641870618
1761468251680692200,3.683692138671875,-0.6920528746008873,-0.9767327897306531,-0.27049773358553647
1761468251690646300,3.693646240234375,-0.9488906238853931,-0.9196819919925182,-0.2530098615594208
1761468251700601300,3.703601318359375,-1.0862433310896158,-0.9273162131980061,-0.20190438209176062
1761468251710555400,3.713555419921875,-1.0272066202312706,-1.0300335872855038,-0.2292574492458254
1761468251720509200,3.72350927734375,-0.7852116352915763,-1.126261307092756,-0.3373112159252167
1761468251730463200,3.733463134765625,-0.5575304223865271,-1.0744775630373506,-0.377646002792567
1761468251740418300,3.743418212890625,-0.5542670366764069,-1.0250414050213992,-0.3433726348560303
1761468251750372000,3.7533720703125,-0.9223895704507827,-0.9353935750611125,-0.3807167885400355
1761468251760326100,3.763326171875,-1.7218904278576372,-0.7462067087884992,-0.4401435946945101
1761468251770280400,3.773280517578125,-2.692559168308973,-0.49763066495805974,-0.5002201699946075
1761468251780235300,3.7832353515625,-3.5392286041259764,-0.2575578802525997,-0.6413443585615605
1761468251790189300,3.793189208984375,-4.086184441006183,0.005302709518000483,-0.7239925388928502
1761468251800143400,3.803143310546875,-4.238157209715247,0.2686881999455392,-0.4933526953779161
1761468251810097200,3.81309716796875,-3.9399049155026673,0.5421333851598202,-0.17728000924922524
1761468251820052200,3.82305224609375,-3.161567257633805,0.7807214112002402,0.1398014155305922
1761468251830006300,3.83300634765625,-2.0857050353050233,0.9766341516617685,0.3520161061692983
1761468251839960300,3.842960205078125,-1.0128484245330094,1.1698354412075131,0.49263654646519567
1761468251849915400,3.852915283203125,0.07258008304238318,1.2265250774830578,0.5927958335677161
1761468251859869200,3.862869140625,1.038825161832571,1.2584480098359285,0.766675130995363
1761468251869823200,3.8728232421875,1.71164668174088,1.3164819733925164,0.9480550498440861
1761468251879777300,3.88277734375,2.2341472918003795,1.260094315738231,0.9174956609293818
1761468251889732400,3.892732421875,2.4555238516032696,1.2193079857110976,0.7389825296886264
1761468251899686400,3.902686279296875,2.376874093258381,1.3810050067074595,0.3769291232274845
1761468251909640200,3.91264013671875,2.0622756444007155,1.5820226690925656,0.24865955739542842
1761468251919594200,3.92259423828125,1.816993308353424,1.7294278376251457,0.17778646093402056
1761468251929549300,3.93254931640625,1.5540017126142978,1.8914124433912336,0.04738828557543456
1761468251939503000,3.942503173828125,1.2603671413302422,1.9443283332817256,-0.153625394754298
1761468251949457200,3.95245703125,0.96618487303555,1.9144247779272496,-0.23063966085184365
1761468251959412200,3.962412109375,0.7722627218693494,1.9112373800627886,-0.33461909076441076
1761468251969366300,3.9723662109375,0.6344593482881784,1.8387220328196883,-0.34992947262097146
1761468251979320300,3.9823203125,0.6518722553819417,1.7828693588249385,-0.3967116820620373
1761468251997361200,4.000361083984375,0.8465753277927637,1.6822775255240499,-0.5522792603926733
1761468252007316200,4.010316162109375,1.02096041931808,1.6628494792155921,-0.5703589973647147
1761468252017270300,4.020270263671875,1.1425292819350956,1.623232485228777,-0.4983161630041897
1761468252027224300,4.030224365234375,1.252403615105152,1.5408276121340692,-0.35647571592666205
1761468252037179100,4.04017919921875,1.2469412580460308,1.4453691961988806,-0.24122904206849632
1761468252047133200,4.05013330078125,1.1362123538732527,1.290922584722191,-0.21759627407919616
1761468252057087200,4.060087158203125,0.9361445395588874,1.093244880414754,-0.24912282752562312
1761468252067040500,4.07004052734375,0.648249973231554,0.9256452112458646,-0.3554360341480002
1761468252076995300,4.079995361328125,0.37177930271625514,0.7775313099220394,-0.4007251920197159
1761468252086949400,4.089949462890625,0.12379472197294235,0.6775114312902093,-0.286208001479879
1761468252096903400,4.0999033203125,-0.11239186894893645,0.6754528913252055,-0.08330430615246295
1761468252106857200,4.109857177734375,-0.27266192588210103,0.6783439365915954,0.06398516357857734
1761468252116812500,4.1198125,-0.3051356239855289,0.615797756307572,0.19804368807561695
1761468252126766300,4.129766357421875,-0.2769283511549234,0.49399187006428835,0.2718015827257186
1761468252136720400,4.139720458984375,-0.2712152342051267,0.33172362505123015,0.2797644878963008
1761468252146675500,4.149675537109375,-0.3000789251178503,0.15508841651156544,0.14409151393994687
1761468252156629200,4.159629150390625,-0.2501350367754698,-0.04022124349027872,-0.03260426568053663
1761468252166583300,4.169583251953125,-0.2526794605612755,-0.3092142716012895,-0.19959168470259755
1761468252176537300,4.179537353515625,-0.15464520278871058,-0.5651354905627668,-0.2807479094430804
1761468252186492400,4.189492431640625,0.08518705115914345,-0.8140298796273767,-0.2589545587753877
1761468252196446500,4.199446533203125,0.34213410603702066,-1.027882912057638,-0.23335286533329636
1761468252206400500,4.209400390625,0.5730874724805355,-1.1663796747304498,-0.23750859677325933
1761468252216354300,4.219354248046875,0.7494260361611843,-1.3323656250923872,-0.22060944788791237
1761468252226309400,4.229309326171875,0.8467360713124275,-1.4160603918671608,-0.16175587504412978
1761468252236263200,4.23926318359375,0.8627496330022811,-1.4367834464222191,-0.062383628399763254
1761468252246217200,4.24921728515625,0.7603431514948606,-1.4312228896856307,0.051315468956530094
1761468252256172500,4.259172607421875,0.5317752188831567,-1.4103966670170425,0.16087938447054476
1761468252266126300,4.269126220703125,0.240164262381196,-1.4550567697376011,0.21091728950561955
1761468252276080400,4.279080322265625,0.021055647510290144,-1.4673855054348706,0.24360322385393082
1761468252286034400,4.289034423828125,-0.036059739896655084,-1.461294348952919,0.2743471755553037
1761468252295989200,4.2989892578125,-0.04916764327287674,-1.4499386960715055,0.34306503021158274
1761468252305943300,4.308943359375,-0.009972527959942816,-1.4652783040225505,0.43115993164144456
1761468252315897300,4.3188974609375,-0.0352963543087244,-1.433874573238194,0.5301118157155812
1761468252325851400,4.328851318359375,-0.10419570301175117,-1.4388047231167553,0.602050605179742
1761468252336428300,4.33942822265625,-0.2566220607072115,-1.3895860803090034,0.6583316606543957
1761468252346383400,4.34938330078125,-0.37991117124557494,-1.3378110310167073,0.669931862881407
1761468252356337400,4.35933740234375,-0.4651666114658117,-1.308107382148504,0.6608610330015421
1761468252366291200,4.369291259765625,-0.5543184746026992,-1.2653146807350217,0.6290004983603954
1761468252376245200,4.379245361328125,-0.6222866799354553,-1.199258592633903,0.5814248735193163
1761468252386200300,4.389200439453125,-0.7102776825994253,-1.1380210837956517,0.5381630202241242
1761468252396154400,4.399154296875,-0.8309118947148323,-1.090058432398364,0.4647257723631337
1761468252406108400,4.4091083984375,-0.9687088385552167,-1.0016971351172774,0.3549921263054013
1761468252416063200,4.419063232421875,-1.004488592466712,-0.9419828172583132,0.2537652099713683
1761468252426017300,4.429017333984375,-0.9453039975702762,-0.9145884682457893,0.21290175958741456
1761468252435971300,4.438971435546875,-0.8026911778807639,-0.9258474558196962,0.21261443054601548
1761468252445925000,4.448925048828125,-0.6496645162045955,-0.9382952878519892,0.1870806512409821
1761468252455880400,4.45888037109375,-0.4801145897507667,-0.8699287308514118,0.11749962215041741
1761468252465834500,4.46883447265625,-0.35872868248522277,-0.8068436213850975,0.08376797814145684
1761468252475788300,4.478788330078125,-0.36551088997125625,-0.6875037599291652,0.10865779698714613
1761468252485742300,4.488742431640625,-0.48607320589423175,-0.5625965466696768,0.1130266962537542
1761468252495697200,4.498697265625,-0.660700874003768,-0.46762357616387307,0.021176351280510423
1761468252505651200,4.508651123046875,-0.8777630777388811,-0.45292423887774347,-0.10341273594051599
1761468252515605500,4.51860546875,-1.0216156683564186,-0.4540111573316157,-0.19223193305693564
1761468252525560300,4.528560302734375,-1.0970575705707073,-0.46995326122045517,-0.28090967587605115
1761468252535514400,4.538514404296875,-1.0285030897825955,-0.4529853214152157,-0.29937534342575817
1761468252545468400,4.548468505859375,-0.975213398143649,-0.4816400457523763,-0.3149323569871485
1761468252555422200,4.558422119140625,-1.059985438761115,-0.5114518311701715,-0.3550933581901714
1761468252565377300,4.568377197265625,-1.261184302932024,-0.4986766668796539,-0.43394495925009247
1761468252575331300,4.578331298828125,-1.5643378131896257,-0.4474941766530275,-0.5114817879170179
1761468252585285400,4.588285400390625,-1.8962714277297257,-0.33672274851277467,-0.5886341107783839
1761468252595240400,4.598240478515625,-2.199802539128065,-0.132854665132612,-0.6367522815309464
1761468252605194200,4.6081943359375,-2.3715374084055423,0.11296031648665666,-0.671289341904968
1761468252615148300,4.618148193359375,-2.446268532001972,0.4227506344102323,-0.6693691874973475
1761468252625102300,4.628102294921875,-2.3298954844623805,0.7504315599419176,-0.6306206469081341
1761468252635057400,4.638057373046875,-2.0557395206302402,1.140758765131235,-0.5348257655601948
1761468252645011500,4.648011474609375,-1.5680793378055096,1.4150595442615448,-0.41675574137698856
1761468252654965500,4.657965576171875,-0.9435872567802667,1.5094529613137244,-0.2662744168020785
1761468252664920300,4.66792041015625,-0.15517477962076662,1.5924090385504066,-0.18396467464491723
1761468252674874400,4.677874267578125,0.7138140400320291,1.5818696704879402,-0.08435684741269797
1761468252684828200,4.687828125,1.4396943654328584,1.4773875517502426,0.041441871326416725
1761468252694782200,4.6977822265625,1.9813573566019533,1.4143774072162807,0.1316308224260807
1761468252704737500,4.707737548828125,2.3108383172929288,1.391885443292558,0.20736250136718154
1761468252714691300,4.71769140625,2.511116559487581,1.4048559840247035,0.2550525829007849
1761468252724645400,4.727645263671875,2.535423317748308,1.4344015197217463,0.3010544921517372
1761468252734600200,4.73760009765625,2.3944758009225127,1.4403272565089165,0.3650240197697654
1761468252744554200,4.74755419921875,2.083407279756665,1.4341454991340636,0.3057185384400189
1761468252754508300,4.75750830078125,1.7428221567273139,1.4530636962242425,0.15723722857590763
1761468252764462300,4.76746240234375,1.4503151281684636,1.475602129638195,0.07142020895015448
1761468252774417400,4.77741748046875,1.1761562417268752,1.4662563552744685,0.010434811709448695
1761468252784371500,4.787371337890625,0.9873124167382716,1.4103903834067284,0.01624298653155565
1761468252794325200,4.7973251953125,0.8994470862805842,1.3149515489548445,-0.010973339032940566
1761468252804280300,4.8072802734375,0.9660521865665912,1.1995102293074131,-0.02912482606694102
1761468252814234400,4.817234375,1.1085673911005258,1.0456417099796236,0.003871946062520146
1761468252824188200,4.827188232421875,1.1430144351035356,0.9108408792153,0.034828298405557866
1761468252834142500,4.837142578125,1.139774430269003,0.842843593918532,0.017503873312845825
1761468252844097300,4.84709716796875,1.0634048918157815,0.7670746517069638,0.03270999107733369
1761468252854051300,4.85705126953125,0.9248048148989677,0.6965519395858049,0.12093662912808358
1761468252864005400,4.86700537109375,0.6659744304925203,0.7042274426497519,0.1925994511950761
1761468252873959400,4.87695947265625,0.3598533026009798,0.7460334711134433,0.23997706924602388
1761468252883914200,4.886914306640625,-0.008567337337136268,0.7461920226760208,0.26530016494244335
1761468252893868500,4.89686865234375,-0.39760464884638785,0.7524450917214155,0.2438698389008641
1761468252903822300,4.906822265625,-0.7627572268992662,0.7424155728772283,0.14261917636506258
1761468252913777400,4.91677734375,-1.0229922174066304,0.71120604949072,-0.009115911130607128
1761468252923731200,4.926731201171875,-1.0907938340008259,0.6624965252488851,-0.17321809357255696
1761468252933685200,4.936685302734375,-1.0253718060195445,0.5875089426733553,-0.29858685992918904
1761468252943639300,4.946639404296875,-0.8383627952426671,0.46292350871413945,-0.3480915531367063
1761468252953594400,4.956594482421875,-0.550143234744668,0.31276568047255277,-0.3916594036411494
1761468252963548400,4.96654833984375,-0.16263620154261588,0.13471768252551555,-0.3996607045933604
1761468252973502500,4.97650244140625,0.2765945891559124,-0.07004764195531606,-0.37204518711082635
1761468252983457300,4.986457275390625,0.768395525047183,-0.25226766488999125,-0.41825047344677146
1761468252993411300,4.996411376953125,1.2428075192421675,-0.4638610818251967,-0.4629644252464175
1761468253003365400,5.006365478515625,1.6251503015488384,-0.6965143840543926,-0.47380664871297773
1761468253013319200,5.016319091796875,1.889901892697811,-0.9425200659401715,-0.49135143855810165
1761468253023274500,5.0262744140625,1.9566034390956162,-1.1491580524250864,-0.5175283015396446
1761468253033228300,5.036228271484375,1.8185294318795202,-1.300785953219235,-0.44451676827743647
1761468253043182300,5.046182373046875,1.556860609176755,-1.3312893741630016,-0.36028438749462366
1761468253053137400,5.056137451171875,1.1558698250234127,-1.316595516769588,-0.3609823066309094
1761468253063091200,5.06609130859375,0.613523527765274,-1.3387427589088678,-0.3801992674719542
1761468253073046500,5.076046630859375,-0.012741992673277854,-1.3418956699818372,-0.41285869740583
1761468253083000300,5.086000244140625,-0.744133774971962,-1.2564251257061958,-0.4158108982749283
1761468253092955400,5.095955322265625,-1.4309241990000008,-1.1510792297460137,-0.31750819882452486
1761468253102909400,5.105909423828125,-2.014204564192891,-1.0636476145304739,-0.13243366324156522
1761468253112863200,5.11586328125,-2.5150790333777664,-0.9168637197013944,-0.02267806108035147
1761468253122818600,5.125818603515625,-2.890675264033675,-0.7119144900210201,-0.04563698492869735
1761468253132772400,5.1357724609375,-3.1064953587532043,-0.44567364669498055,-0.07462802854813635
1761468253142726400,5.145726318359375,-2.9675159271299836,-0.17419486618284136,-0.14041216784007846
1761468253152680400,5.155680419921875,-2.3527006059885025,0.017666297332942484,-0.22287520086281
1761468253162635300,5.16563525390625,-1.341008365753293,0.01747508560977876,-0.2399037117488682
1761468253172589300,5.17558935546875,-0.08917232140302657,-0.0759583273038268,-0.2287654279451817
1761468253182543400,5.18554345703125,1.0884960784524678,-0.18434519839510322,-0.23484595343526452
1761468253192498400,5.19549853515625,2.087851984205842,-0.34803836164474483,-0.15831892286539076
1761468253202452500,5.205452392578125,2.8956577286213636,-0.5755962404310703,-0.09305453313123434
1761468253212406300,5.21540625,3.448718312117457,-0.803876807468757,0.014065496362000702
1761468253222360300,5.2253603515625,3.6810564109176394,-1.0449145647488534,0.12471223867665976
1761468253232315400,5.2353154296875,3.626493046081066,-1.3094798395454883,0.18272488545058294
1761468253242269200,5.245269287109375,3.2151872041404244,-1.4688310280680656,0.22137685206383464
1761468253252223500,5.255223388671875,2.625527367043495,-1.6092619736738503,0.21253546529198064
1761468253262178300,5.26517822265625,1.9020517646968365,-1.7237296259835362,0.260348570417054
1761468253272132400,5.27513232421875,1.2431062099277972,-1.7197930171869693,0.26392215458750723
1761468253282086400,5.28508642578125,0.5448305152893066,-1.7066458047136663,0.17208324432373046
1761468253292040400,5.29504052734375,-0.22721651800274847,-1.686011451355368,-0.033488647299632426
1761468253301995300,5.304995361328125,-1.0176847586482762,-1.661246281802654,-0.33027240332961083
1761468253311949600,5.314949462890625,-1.7826690139472483,-1.6685848079971968,-0.6874988645583391
1761468253321903400,5.3249033203125,-2.547238258704543,-1.749442743910849,-0.9978242392066865
1761468253331858400,5.3348583984375,-3.3613889882326125,-1.9403432091683148,-1.2416828991264104
1761468253341812500,5.3448125,-4.044345533186197,-2.1194310715571043,-1.5248573050640521
1761468253351766300,5.354766357421875,-4.376935565808415,-2.077101457610726,-1.8566845366202294
1761468253361720300,5.36472021484375,-4.32492948423922,-1.8664469289608299,-2.1550939210906623
1761468253371675400,5.37467529296875,-4.095702795457839,-1.4524917415551841,-2.394502104407549
1761468253381629400,5.38462939453125,-4.057630546694994,-1.2029781246136872,-2.2296622553408145
1761468253391583500,5.39458349609375,-4.141079814276099,-1.0329589001476764,-1.6310981040373445
1761468253401538300,5.404538330078125,-4.215303572872281,-0.5120454862143844,-1.0867409053482115
1761468253411492400,5.414492431640625,-4.240651949140429,0.1978596367456019,-0.6229882523335516
1761468253421446400,5.4244462890625,-4.075854185649752,0.7838844783410429,-0.11595496825799345
1761468253431400200,5.434400146484375,-3.559790330639481,1.2775284117504953,0.26901312105096875
1761468253441355500,5.44435546875,-2.7106092042624947,1.7230831447735429,0.5041831553414464
1761468253451309600,5.4543095703125,-1.7707003437340259,2.0456196931540966,0.6803094645109027
1761468253461263400,5.464263427734375,-0.8125356955468654,2.225994088222086,0.789450441905111
1761468253471218400,5.474218505859375,0.12032909168899059,2.308922254538536,0.8542948161289096
1761468253481172200,5.484172119140625,1.0244745649188756,2.4424653403267262,0.9023693304028362
1761468253491126300,5.494126220703125,1.9007932890683412,2.5486615695059296,0.9892733415476977
1761468253501080300,5.504080322265625,2.632906955900788,2.451444619465619,1.1017184019885957
1761468253511035400,5.514035400390625,3.162268683901429,2.268782405721396,1.1175417018033564
1761468253520989400,5.523989501953125,3.5118910998672246,2.070886090227216,1.0628788221150636
1761468253530943500,5.533943603515625,3.6282659009724854,1.9057016655065118,0.9791611128561198
1761468253540898300,5.543898193359375,3.43920171123147,1.8773793879941105,0.9033126756675541
1761468253550852400,5.553852294921875,3.067884180808067,1.9277951316319404,0.8164521383382379
1761468253560806400,5.563806396484375,2.6405437343895435,1.9510567647539079,0.775290545257926
1761468253570760400,5.573760498046875,2.1553356208920476,1.9089942773111164,0.7022453289218247
1761468253580715500,5.583715576171875,1.616436249217391,1.8984835508212445,0.5554905140567571
1761468253590669300,5.59366943359375,1.0198422289431095,1.8918119641028344,0.4190181698836386
1761468253600623400,5.603623291015625,0.4654875139832496,1.8036178400821983,0.27534283552914857
1761468253610578200,5.613578125,0.16068039129972456,1.703950720410794,0.1086561895519495
1761468253620532200,5.6235322265625,0.06023907238543033,1.5838979614451527,0.010595555229112505
1761468253630486500,5.633486572265625,0.09823241069316864,1.3910267806366086,0.004173267096653581
1761468253640440600,5.643440673828125,0.24634499684274194,1.2072925537467003,0.1263907298155129
1761468253650395400,5.6533955078125,0.44301849254369735,1.053658427696675,0.3117304191406816
1761468253660349400,5.663349365234375,0.6352367624014615,0.8802776909083128,0.46739079032130537
1761468253670303200,5.67330322265625,0.7310960142225027,0.7079730589188635,0.6387941626220941
1761468253680258300,5.68325830078125,0.6501759728580713,0.5044727859377861,0.7532802273713052
1761468253690212600,5.693212646484375,0.46830549401342864,0.3388789036333561,0.6921371188182384
1761468253700166400,5.70316650390625,0.23289573268294333,0.28565555522888897,0.5720858942225575
1761468253710120400,5.713120361328125,-0.08893383647203446,0.19410203777775167,0.5279291379142552
1761468253720075300,5.7230751953125,-0.38494156662821766,0.06474822037294507,0.45512898238040506
1761468253730029300,5.733029296875,-0.5302162990033626,-0.13583645742237568,0.3079101302001625
1761468253739983400,5.7429833984375,-0.5041945535182952,-0.26697569693922996,0.0766300160203129
1761468253749938400,5.7529384765625,-0.3143476889669895,-0.47555911840349435,-0.122027785365656
1761468253759892500,5.762892578125,0.0024584990680217743,-0.7297120125181973,-0.21643771516121924
1761468253769846500,5.772846435546875,0.3050450230926275,-0.9885818521521985,-0.23600780028887092
1761468253779800300,5.78280029296875,0.5677461114525795,-1.1420846069075166,-0.22522980116493999
1761468253789755400,5.79275537109375,0.7565794150471686,-1.1863757301852107,-0.18513591038137672
1761468253799709400,5.80270947265625,0.8889724540174007,-1.120433331591636,-0.10997282510846852
1761468253809663200,5.812663330078125,0.9625912324577569,-0.999053707936406,-0.012233385564014316
1761468253819618600,5.82261865234375,1.0124994649648666,-0.9378203638166188,0.05569492614977061
1761468253829572400,5.832572265625,0.9628454994797706,-0.9306231457889079,0.08295746547617018
1761468253839526400,5.8425263671875,0.865748814818263,-0.9362082524448633,0.12208967162072658
1761468253849480400,5.85248046875,0.7393529704362154,-0.9186782948426901,0.08287249060645699
1761468253859435300,5.862435302734375,0.6090910982757807,-0.9335331880167126,0.04256795274689793
1761468253869389300,5.872389404296875,0.5768447791874408,-0.9369397815898061,0.03819901694767177
1761468253879343600,5.882343505859375,0.5631038386046886,-0.9253690246529876,0.034460414941236375
1761468253889298400,5.89229833984375,0.5139630833387374,-0.9251597658164799,0.057207011213153594
1761468253899252500,5.90225244140625,0.44224575460553167,-0.9373222050361335,0.07687003532126545
1761468253909206300,5.912206298828125,0.3849444892376661,-0.9712025550670921,0.05847067447341978
1761468253919160300,5.922160400390625,0.34926410404741765,-1.0162167319223283,-0.0010960516083985566
1761468253929115400,5.932115478515625,0.3008662761032581,-1.0674690725147724,-0.06069945643879473
1761468253939069400,5.9420693359375,0.18159633807837963,-1.1324877803921698,-0.11114479149729013
1761468253949023500,5.9520234375,0.008963058656454085,-1.1734547276832163,-0.1401375886823982
1761468253958978300,5.961978271484375,-0.2698755100339651,-1.2417987805910409,-0.15190401432178913
1761468253968932400,5.971932373046875,-0.5727215617775917,-1.2646006872467697,-0.19127718961536883
1761468253978886400,5.981886474609375,-0.8522562960386276,-1.2072604050427675,-0.26548918470852073
1761468253988840400,5.99184033203125,-1.1389239509195088,-1.1590946322888136,-0.33097565622813996
1761468253998795500,6.00179541015625,-1.3846353260338307,-1.1780850178323685,-0.3666795684244484
1761468254008749600,6.01174951171875,-1.6125620381325483,-1.168940903520584,-0.3868573371216655
1761468254018703400,6.021703369140625,-1.7590356249034405,-1.1257777613595128,-0.4596213253635913
1761468254028658400,6.031658447265625,-1.731447360754013,-1.0533205740444362,-0.43861353558301924
1761468254038612500,6.041612548828125,-1.653492014414072,-0.9853970846362411,-0.38511348912902177
1761468254048566300,6.051566162109375,-1.5430898579776287,-0.8891147850975394,-0.3580103781480342
1761468254058520300,6.061520263671875,-1.4192495432972907,-0.8017495131164789,-0.3414395479016006
1761468254068474600,6.071474609375,-1.1887322301834822,-0.7033988828711212,-0.37267705527357753
1761468254078428400,6.081428466796875,-0.9259949014663695,-0.674089640147984,-0.3397879082370549
1761468254088382500,6.091382568359375,-0.7928373078644275,-0.6959693173922598,-0.26892010900527236
1761468254098337500,6.101337646484375,-0.9378139340758324,-0.6127322312571108,-0.2310936516970396
1761468254108291600,6.11129150390625,-1.3426461960881948,-0.42151290930882096,-0.23433928255476055
1761468254118245600,6.12124560546875,-1.8397353015154598,-0.19089476616904139,-0.3246716607131064
1761468254128200400,6.131200439453125,-2.2905367030203343,0.07688143349811434,-0.36718934457749125
1761468254138154500,6.141154541015625,-2.660246213725209,0.3495098955020308,-0.46282837777659297
1761468254148108500,6.151108642578125,-2.8544138640850782,0.6176863465331495,-0.6182917650803923
1761468254158062600,6.1610625,-2.7967092786133287,0.8816679762229322,-0.7187925590969622
1761468254168017700,6.171017578125,-2.4905209307044744,1.0912640818610786,-0.7545237246263772
1761468254177971700,6.1809716796875,-1.9038135136723517,1.2418170469000935,-0.6755121472317726
1761468254187925500,6.190925537109375,-1.1193939055413007,1.3526479501426218,-0.5217270684037357
1761468254197880600,6.200880615234375,-0.2440636079072952,1.4565627903863787,-0.3219210468307137
1761468254207834400,6.21083447265625,0.6138923610776662,1.5954469449415802,-0.12264789002537727
1761468254217788700,6.22078857421875,1.3521084364384413,1.688801082073897,0.1743085191577673
1761468254227742700,6.23074267578125,1.9583423917174339,1.7212746340468525,0.44931193013209847
1761468254237697500,6.240697509765625,2.4163006792396304,1.7484680536597965,0.6272285933170467
1761468254247651600,6.250651611328125,2.69726515404284,1.7732392145618796,0.7327576638244092
1761468254257605600,6.260605712890625,2.7809733648210764,1.7957367314435542,0.76011832976304
1761468254267560400,6.270560546875,2.6196424006581305,1.78028372624591,0.6834797651100903
1761468254277514800,6.2805146484375,2.310000112903118,1.729801200982183,0.4606028106816113
1761468254287468500,6.290468505859375,1.9363468330085276,1.6298637399367988,0.23442564566396176
1761468254297422600,6.300422607421875,1.525289412871003,1.5253567790187894,0.0664516632899642
1761468254307377700,6.310377685546875,1.1656617357194423,1.4865467175006866,-0.07402662858888506
1761468254317331500,6.32033154296875,0.8766326124042272,1.5399508292995392,-0.17366167262159288
1761468254327285500,6.330285400390625,0.6238561212092638,1.5884826588869094,-0.1996115219142288
1761468254337240600,6.340240478515625,0.435025740224123,1.6705948326453566,-0.1509227481994778
1761468254347194600,6.350194580078125,0.32915947365164755,1.7202827004000543,-0.049057314766198394
1761468254357148700,6.360148681640625,0.22706045065820216,1.7213878851629794,0.0472089834857732
1761468254367103500,6.370103515625,0.23306992020606992,1.6516897872976959,0.09196984316706656
1761468254377057500,6.3800576171875,0.2916466123372316,1.5259658508278429,0.09045965779982507
1761468254387011600,6.390011474609375,0.29517011028826234,1.369998751785606,0.07920848820619285
1761468254396965400,6.39996533203125,0.2798667426943779,1.2108403093561528,0.06335391647033393
1761468254406920700,6.409920654296875,0.23263678948581218,1.0780945114254952,-0.01596307361163199
1761468254416874800,6.419874755859375,0.21358137588202952,0.9375530911825597,-0.10527904126904904
1761468254426828500,6.42982861328125,0.15092472096085546,0.7973236594982445,-0.1455281956795603
1761468254436783600,6.43978369140625,0.054740474969148634,0.685882077011466,-0.24169446762315927
1761468254446737400,6.4497373046875,-0.02320084284543991,0.5546857004798948,-0.3478489765524864
1761468254456691500,6.45969140625,-0.03392740404307842,0.4125717702232301,-0.4420779237579554
1761468254466645800,6.469645751953125,0.027505846562981603,0.28160642596855756,-0.5260294417727738
1761468254476600600,6.4796005859375,0.11212006627023219,0.1761578002862632,-0.5768994319841265
1761468254486554600,6.4895546875,0.268415374353528,0.055034343349188566,-0.5727219271037727
1761468254496508700,6.4995087890625,0.5281500141233205,-0.07018661203458905,-0.5696572057709097
1761468254506463500,6.50946337890625,0.8000824566870928,-0.22716113455370068,-0.5415449908126145
1761468254516417500,6.51941748046875,1.0448802240878343,-0.4156182983122766,-0.5221816803034395
1761468254526371800,6.529371826171875,1.234128538224101,-0.6163803785011172,-0.49972858708538115
1761468254536326700,6.53932666015625,1.345607383981347,-0.788399617677927,-0.45939190052188933
1761468254546280700,6.54928076171875,1.4089607889950275,-0.9072104137584567,-0.452365070625022
1761468254556234500,6.559234375,1.4061381327897309,-1.015753206063807,-0.41348340517543253
1761468254566188500,6.5691884765625,1.3531208283513783,-1.0936993461839855,-0.31345782745517786
1761468254576143600,6.5791435546875,1.2010615504026412,-1.1469462215945123,-0.2058408447578549
1761468254586097700,6.58909765625,0.9762333888411522,-1.1663782134257257,-0.15893442441523073
1761468254596051700,6.5990517578125,0.6841033769011498,-1.1522701930962502,-0.0915339359678328
1761468254606006500,6.609006591796875,0.38028409621119497,-1.1417699149351566,-0.10035744002312422
1761468254615960600,6.618960693359375,0.052857729962468146,-1.1123263052426278,-0.09302855843976139
1761468254625914600,6.62891455078125,-0.31685996404886246,-1.1145547218818217,-0.058411199371144175
1761468254635869400,6.638869384765625,-0.6417834075659513,-1.078468386239186,-0.06433299063555896
1761468254645823700,6.64882373046875,-0.9968892233788966,-1.046906542283669,-0.03333404125981033
1761468254655777800,6.65877783203125,-1.2761860572308301,-1.0265233872074633,-0.005931728136539459
1761468254665731600,6.668731689453125,-1.4682026670366526,-0.9994296285767108,-0.014855769956856965
1761468254675686700,6.678686767578125,-1.5729735395878552,-1.005513405469805,-0.06452069522738456
1761468254685640400,6.688640380859375,-1.655261946696043,-1.0284688952520489,-0.08177570834569632
1761468254695594500,6.698594482421875,-1.687640367731452,-1.0285828770205379,-0.12757774764299393
1761468254705549800,6.7085498046875,-1.696823791140318,-1.0184885493118316,-0.15386457380503415
1761468254715503600,6.718503662109375,-1.660033983403444,-0.9674144148305058,-0.1296791769016534
1761468254725457700,6.728457763671875,-1.5895979266524314,-0.884647722686082,-0.1310307376410812
1761468254735412500,6.73841259765625,-1.4600520938068628,-0.8649743963796644,-0.10099296144768595
1761468254745366500,6.748366455078125,-1.28060621176064,-0.8785618269011378,-0.04713482227101922
1761468254755320600,6.758320556640625,-1.0690694934487341,-0.8614582049522549,0.0020710341203957795
1761468254765274600,6.768274658203125,-0.86428108035326,-0.8361047871828079,0.09942680810950696
1761468254775229700,6.778229736328125,-0.7149076804876328,-0.8296095799446106,0.2660444074384868
1761468254785183700,6.788183837890625,-0.5955488951355219,-0.8532480835549533,0.3235199333947152
1761468254795137500,6.798137451171875,-0.521196541723609,-0.8473242464639246,0.27538609014898535
1761468254805092600,6.808092529296875,-0.5466238284468651,-0.8861607575975358,0.18750651197023688
1761468254815046700,6.818046630859375,-0.6145926183015108,-0.9038539429374038,-0.06905943463556469
1761468254825000400,6.82800048828125,-0.7838245648473501,-0.9127614720143378,-0.3117121528316289
1761468254834954500,6.83795458984375,-0.9961661698013543,-0.9358420494809746,-0.4591516620252281
1761468254844909600,6.84790966796875,-1.2430612017422913,-0.8029914760015905,-0.5325437190376222
1761468254854863600,6.857863525390625,-1.5289502734661102,-0.5640212457105517,-0.4998430072452873
1761468254864817700,6.867817626953125,-1.7827374030083416,-0.25686697537899017,-0.40520153371617196
1761468254874772500,6.8777724609375,-1.9102374092400072,0.07883475952297449,-0.2524183984722942
1761468254884726500,6.8877265625,-1.9338813196778297,0.4281745591551065,-0.0782590054616332
1761468254894680600,6.8976806640625,-1.8284803325295447,0.7182023381188511,0.1628584659911692
1761468254904635600,6.9076357421875,-1.5525602816343307,1.0136230621673166,0.3037530835859477
1761468254914589700,6.917589599609375,-1.1742594681948422,1.2101328917391598,0.4029539009198546
1761468254924543700,6.927543701171875,-0.7500690102398395,1.3496956762082875,0.44552031929679214
1761468254934497500,6.93749755859375,-0.2858089922249317,1.500947583296895,0.38755511012747884
1761468254944452600,6.94745263671875,0.1376426300615072,1.6075677369765937,0.2566425189733505
1761468254954406400,6.957406494140625,0.4473451235711574,1.6779244448810815,0.17807452062778173
1761468254964360700,6.967360595703125,0.6610246991306543,1.698082997421175,0.0797178990330547
1761468254974315500,6.9773154296875,0.7603425669729709,1.7394250616349278,-0.054457347178831696
1761468254984269600,6.98726953125,0.8505226041138172,1.7484867583602666,-0.200637796222046
1761468254994223600,6.9972236328125,0.9428256247580051,1.7606553350597618,-0.3375556191403419
1761468255004178400,7.007178466796875,1.0340683226943015,1.7641329480424521,-0.4452043121501803
1761468255014132500,7.017132568359375,1.1616864023476838,1.7526714966990053,-0.5533681881405412
1761468255024086800,7.027086669921875,1.2812655524522065,1.7265293397046624,-0.6585510755587369
1761468255034040600,7.03704052734375,1.3633084603667258,1.6628395423434674,-0.7702324581507592
1761468255043995600,7.04699560546875,1.3873621206492184,1.5729377376221119,-0.855568635457009
1761468255053949700,7.05694970703125,1.347155197945237,1.4832605354368686,-0.8919289657354355
1761468255063903500,7.066903564453125,1.2756687553584576,1.4071630919232965,-0.8885982138775289
1761468255073859300,7.076859375,1.1886644256442784,1.3654339280880987,-0.8723884720284492
1761468255083813400,7.0868134765625,1.067313005170226,1.3291143682114779,-0.8331855387352406
1761468255093767400,7.096767333984375,0.9470277526229619,1.316778910512477,-0.7625551284559071
1761468255103722200,7.10672216796875,0.8023486480534077,1.3359680334985256,-0.6590434621855616
1761468255113676300,7.11667626953125,0.5956523555099964,1.3733467470392584,-0.5401465952567756
1761468255123630300,7.12663037109375,0.41962943364977834,1.407547999587655,-0.45828934610746797
1761468255133584400,7.13658447265625,0.26479250768125057,1.348702281256765,-0.35744777582921083
1761468255143539500,7.14653955078125,0.13917232384681702,1.1914390049241483,-0.27365422485508023
1761468255153493500,7.156493408203125,0.11929857959747314,1.008385161513835,-0.2811327440422028
1761468255163447300,7.166447265625,0.1553103886991739,0.7944049955725669,-0.3048006198775023
1761468255173402400,7.17640234375,0.25277473762929437,0.5779322821632027,-0.2862456300765276
1761468255183356200,7.186356201171875,0.3776379656165838,0.39144451878145337,-0.22553053767718373
1761468255193310500,7.196310546875,0.5301970097810029,0.20398045771345494,-0.18490034805983305
1761468255203265500,7.206265625,0.685424980893731,0.07173179564997553,-0.1251426294505596
1761468255213219300,7.21621923828125,0.7445610604733228,-0.07043123444542289,-0.09704349316954612
1761468255223173400,7.22617333984375,0.753466251462698,-0.2012459181830287,-0.08034048791080713
1761468255233127400,7.23612744140625,0.7674041759222745,-0.30468013530299065,-0.05833214278556406
1761468255243082200,7.246082275390625,0.7409083831846713,-0.4604125488065183,-0.005809197735413909
1761468255253036500,7.25603662109375,0.6732955671608447,-0.5851479126304387,0.09252871915884316
1761468255262990600,7.265990478515625,0.6558347292721272,-0.679503774151206,0.12769253312908113
1761468255272945400,7.2759453125,0.6288040990054607,-0.7969806912794709,0.13154139057695866
1761468255282899500,7.2858994140625,0.607583616322279,-0.927303353716433,0.13912402772568166
1761468255292853200,7.295853271484375,0.5578916569143534,-1.0275259153135121,0.13760397855155168
1761468255302808300,7.305808349609375,0.48271395859420296,-1.1351626986898482,0.11648147635012865
1761468255312762600,7.3157626953125,0.42463820172250266,-1.2437868856683372,0.0615066811684519
1761468255322716400,7.32571630859375,0.403458635571599,-1.2897487186372278,0.03653086453974247
1761468255332670500,7.33567041015625,0.29550562585294243,-1.3387633633054792,0.0241729027479887
1761468255342625300,7.345625244140625,0.2066805104523897,-1.3737033053919672,-0.013186229309439659
1761468255352579300,7.355579345703125,0.09364099124968052,-1.4059789967052638,-0.01993504598252475
1761468255362533400,7.365533447265625,-0.0554956772506237,-1.4366770634382962,0.04456234143450856
1761468255372488400,7.375488525390625,-0.2965419831633568,-1.3938829007200897,0.12727810710929333
1761468255382442500,7.3854423828125,-0.6419587641328572,-1.3398482359327375,0.20697247913628816
1761468255392396500,7.395396484375,-0.9247796804577112,-1.2689452923223377,0.21956030416116118
1761468255402351400,7.405351318359375,-1.0665472814947365,-1.2263554200045763,0.2099654504071921
1761468255412305400,7.415305419921875,-1.0790151334017515,-1.2356504870943725,0.23179412811659275
1761468255422259500,7.425259521484375,-0.9548030627995729,-1.2666450525559485,0.22961466518566012
1761468255432213200,7.435213134765625,-0.7618781059771775,-1.3268518301069736,0.22361235603094098
1761468255442168600,7.44516845703125,-0.5373129792660475,-1.3788845074221492,0.24062409844528881
1761468255452122400,7.455122314453125,-0.44179333466291426,-1.3815158788390456,0.2777434669300914
1761468255462076400,7.465076416015625,-0.40239188312292096,-1.3340867497965692,0.29266693182829767
1761468255472031200,7.47503125,-0.39642859080433845,-1.2662905400298534,0.24736012870203702
1761468255481985300,7.4849853515625,-0.4886468557745218,-1.1799962582811712,0.1805302797494456
1761468255491939300,7.494939208984375,-0.6726514240384102,-1.0700944525822997,0.1314775315605104
1761468255501894400,7.504894287109375,-0.9750234285295009,-0.9309194983869791,0.02459065323602408
1761468255511848400,7.514848388671875,-1.2670990799337625,-0.7725891773447394,-0.10027692213281988
1761468255521802500,7.524802490234375,-1.4501362644702196,-0.6845262784883379,-0.24664284727815536
1761468255531757300,7.53475732421875,-1.4978963790327309,-0.6406563032321632,-0.3824809852009639
1761468255541711400,7.54471142578125,-1.3647358628213404,-0.6053747081011533,-0.452141856328398
1761468255551665400,7.55466552734375,-1.1016133341789245,-0.6169479492560028,-0.45282961939685046
1761468255561619200,7.564619140625,-0.8008212923556566,-0.6275036839313805,-0.4343420322762802
1761468255571574500,7.574574462890625,-0.6853250276505947,-0.6390263639427721,-0.4384309090251103
1761468255581528300,7.5845283203125,-0.8361421965837478,-0.6079433895453811,-0.41829153610952197
1761468255591482400,7.594482421875,-1.231267303574085,-0.43458354941457505,-0.35156408808548
1761468255601437400,7.6044375,-1.856887511846423,-0.13842545100226997,-0.3359063906285912
1761468255611391200,7.61439111328125,-2.5231676472872495,0.18916984207257628,-0.33136450941525397
1761468255621345300,7.62434521484375,-3.1442110491633413,0.5040982535369694,-0.409010716740787
1761468255631300400,7.63430029296875,-3.5196062042891976,0.910659969690442,-0.6367679905567318
1761468255641254400,7.64425439453125,-3.425809145694971,1.2837658448353408,-0.907119009147957
1761468255651208400,7.65420849609375,-2.9221839164972305,1.59363843421489,-0.9584808014642446
1761468255661162500,7.66416259765625,-2.110764073237777,1.7968978841774164,-0.9020125528544187
1761468255671117300,7.674117431640625,-1.0561129812419414,1.8488583730392156,-0.7288459702733904
1761468255681071400,7.6840712890625,0.047338089758157724,1.8843717310994863,-0.5885226497605442
1761468255691025400,7.694025390625,1.0406816033542157,1.9376212368585168,-0.548794742745161
1761468255700980500,7.70398046875,1.8421569757044314,1.9654826188609003,-0.4584516239970922
1761468255710934500,7.7139345703125,2.4766490572184323,2.0034870630845427,-0.3784702151896432
1761468255720888300,7.723888427734375,2.8518320308983323,1.9579452090933918,-0.2969939647145569
1761468255730843400,7.733843505859375,3.1032500932216642,1.878437664875388,-0.2336840335164219
1761468255740797200,7.743797119140625,3.2595594298303125,1.8719091398894785,-0.13747399549633263
1761468255750751500,7.75375146484375,3.311719240656495,1.8483073150277136,-0.058000572743639345
1761468255760706300,7.763706298828125,3.2367098846405744,1.7309174916610122,0.004322064450196922
1761468255770660400,7.773660400390625,2.8399481163591145,1.6144804389744996,0.008562734227254986
1761468255780614400,7.783614501953125,2.2331758164197204,1.539209801673889,-0.07156476851999759
1761468255790568400,7.793568359375,1.671021241363883,1.52122026373595,-0.17791523841284215
1761468255800523300,7.803523193359375,1.1765402726083993,1.5030655983641743,-0.2165880103521049
1761468255810477600,7.8134775390625,0.8324000874459743,1.5210393542110918,-0.20422478786334394
1761468255820431400,7.823431396484375,0.6295230609297752,1.5541805763125418,-0.18595007630847393
1761468255830386400,7.833386474609375,0.5057780233174562,1.5064835901141165,-0.12101385908275841
1761468255840340500,7.843340576171875,0.45730420752763745,1.4149433705359697,0.04548771265111863
1761468255850294300,7.853294189453125,0.33491467617750165,1.2981222869679332,0.21228351809121668
1761468255860249300,7.863249267578125,0.13889993664622305,1.2111585815250874,0.3332300110261887
1761468255870203400,7.873203369140625,-0.05286182161569595,1.1474684919029474,0.40470074458718297
1761468255880157400,7.883157470703125,-0.17887188155055045,1.1100142289079724,0.45026722156293686
1761468255890111500,7.893111572265625,-0.2640636088848114,1.0457470700502396,0.4948394268043339
1761468255900066300,7.90306640625,-0.3530558975458145,0.9324394014306366,0.4895919546049088
1761468255910020400,7.913020263671875,-0.36688217832446096,0.8267024603262543,0.4344742438212037
1761468255919974400,7.922974365234375,-0.3417354621082544,0.6293716697603464,0.31735775750316675
1761468255929929500,7.932929443359375,-0.3484118711322546,0.45461716040074823,0.2405430325657129
1761468255939883500,7.942883544921875,-0.38995267278850076,0.29435251029506326,0.1594296605862677
1761468255949837600,7.952837646484375,-0.45775312033891674,0.1417166015021503,0.05346176027022302
1761468255959792400,7.96279248046875,-0.481932452827692,-0.009298866482079029,-0.0572596912484616
1761468255969746400,7.972746337890625,-0.38011049320995804,-0.1554655792608857,-0.14505707103647292
1761468255979700200,7.9827001953125,-0.21877777548134325,-0.2833557538539171,-0.17550035929083824
1761468255991521300,7.994521240234375,0.09611702597439288,-0.4831806993231177,-0.07009944520778953
1761468256001475300,8.004475341796875,0.25657471443414687,-0.593111877246946,-0.00740194681957364
1761468256011429400,8.014429443359376,0.39571547409892077,-0.690039196690917,0.03130494658499956
1761468256021384400,8.024384521484375,0.4552718249171972,-0.7802429069682956,0.08688567177057266
1761468256031338500,8.03433837890625,0.47766602755486964,-0.8268105968758463,0.11614712982922792
1761468256041292500,8.04429248046875,0.49499651706218717,-0.8480473000414669,0.1245538697771728
1761468256051246300,8.054246337890625,0.5011170457690954,-0.8798596116267144,0.15136135881245136
1761468256061201400,8.064201416015624,0.5477677377849817,-0.9330253846250474,0.16081453907340765
1761468256071155000,8.074155029296875,0.5608101747095584,-0.9752733116373419,0.1368850896924734
1761468256081109000,8.08410888671875,0.5366097994327544,-1.010147056619823,0.0821481949198991
1761468256091064000,8.09406396484375,0.4864695117354393,-1.080469131602347,-0.015216346897557378
1761468256101017900,8.104017822265625,0.388669062718749,-1.1222874350257217,-0.14610701848082244
1761468256110972000,8.113971923828124,0.24584932228028772,-1.1997298634074627,-0.26120741573609413
1761468256120927000,8.123927001953126,0.11997428690195083,-1.2304901817217468,-0.32633287192359567
1761468256130881000,8.133881103515625,0.06706453449130058,-1.209791969347,-0.33403643203824757
1761468256140835000,8.1438349609375,-0.05006196176409721,-1.18721627266258,-0.29546354027688504
1761468256150790000,8.153789794921876,-0.19585867218673228,-1.1584659789964555,-0.2300088521350175
1761468256160744000,8.163743896484375,-0.3203548204272985,-1.0646667284451425,-0.2525509388107806
1761468256170698000,8.173697998046874,-0.492331681767106,-1.038502505749464,-0.20206125315390527
1761468256180651800,8.18365185546875,-0.6042243690222502,-0.9926515858091414,-0.2271121808454394
1761468256190607000,8.193607177734375,-0.6016939737617969,-0.9694729547955095,-0.3508261657323688
1761468256200561200,8.20356103515625,-0.5993015256673098,-1.0347338008657097,-0.415186263570562
1761468256210515000,8.213514892578125,-0.5481862554579973,-1.0633939320303498,-0.5290579227484762
1761468256220470000,8.223469970703125,-0.5142471609771251,-1.0212778147041797,-0.5858440051358192
1761468256230423800,8.233423828125,-0.581182516130805,-0.9607133097566664,-0.5877809645477682
1761468256240377900,8.2433779296875,-0.7115303130090236,-0.8914544800914823,-0.579491567369178
1761468256250333200,8.253333251953125,-0.8371475742340088,-0.8005461286760867,-0.6028988925721496
1761468256260287000,8.263286865234376,-0.9180997643023728,-0.7145633970946074,-0.6990512090556323
1761468256270241000,8.273240966796875,-0.9166852213293314,-0.6707051122762262,-0.7405242792379111
1761468256280195800,8.28319580078125,-0.8023053934335708,-0.6711424807801842,-0.7046037286162375
1761468256290150000,8.29314990234375,-0.5732844563573598,-0.7008060898989439,-0.5308277088999748
1761468256300104000,8.30310400390625,-0.280026901692152,-0.6709606944724917,-0.338452933306247
1761468256310059000,8.31305908203125,-0.02977788314819336,-0.5789486195988953,-0.23669402898736297
1761468256320013000,8.323012939453125,0.07008651266098022,-0.5102044614575802,-0.11699519802592694
1761468256330590000,8.33358984375,0.013563245928287506,-0.45180940950363874,-0.06462758966796099
1761468256340544000,8.3435439453125,-0.15593758068680763,-0.34181934099942446,-0.24799086435362694
1761468256350498800,8.353498779296874,-0.4039186542987823,-0.2107492211960256,-0.3014049130246043
1761468256360453000,8.363453125,-0.8668418707519769,0.026093495547026394,-0.2849252681929618
1761468256370407200,8.3734072265625,-1.49215403598845,0.2370586975812912,-0.2433621816396713
1761468256380362000,8.383362060546874,-2.131994492793083,0.39548298051729797,-0.13775069354586303
1761468256390316000,8.39331591796875,-2.5484517261475323,0.6554819703117013,-0.1414696410037577
1761468256400270000,8.40327001953125,-2.5369459972709416,0.9296300430983304,-0.18819895121380686
1761468256410225000,8.413224853515626,-2.3409265815645455,1.1646323926717042,-0.05495579822026193
1761468256420179200,8.42317919921875,-1.854101095998287,1.4174422016143797,0.0925155674163252
1761468256430133000,8.433133056640624,-1.106177865615487,1.505766674016416,0.32828130257762966
1761468256440087000,8.443087158203125,-0.24783961931467055,1.524701968371868,0.5575331258002668
1761468256450042000,8.4530419921875,0.5593740044265986,1.592117362127453,0.6987012265741824
1761468256459996000,8.462995849609374,1.1670026289343833,1.6276372960589824,0.8024986509833485
1761468256469950000,8.472949951171875,1.5892197409898041,1.6174464491732417,0.9470444845620543
1761468256479905000,8.482905029296875,1.8114941264152526,1.6845866792492568,0.965418930164352
1761468256489859000,8.492859130859374,1.7594424521386622,1.6905395963042973,0.8464948099024593
1761468256499813000,8.502813232421875,1.524513752323389,1.6643138526797294,0.5923879468865693
1761468256509768000,8.512767822265625,1.2030623688310385,1.5455224919520318,0.25643136044070125
1761468256519722000,8.522721923828126,0.8645277485907077,1.3946671829655766,-0.0609760083578527
1761468256529676000,8.532676025390625,0.6134709207952023,1.3063997014477848,-0.3299428060490638
1761468256539631000,8.542631103515625,0.4701899925857782,1.1491494307272136,-0.5270470943827181
1761468256549585200,8.552585205078126,0.38773558126091956,1.0253786741517483,-0.7280847035773098
1761468256559539200,8.562539306640625,0.3967775503724813,0.9460175526671111,-0.8964256195675581
1761468256569494000,8.572493896484374,0.38131285473704335,0.8462932959809899,-0.9834569103538989
1761468256579448000,8.582447998046876,0.3925473654568195,0.8040569132760167,-1.1048024125438183
1761468256589401900,8.59240185546875,0.3599818974167108,0.7607496864691377,-1.1282237662721424
1761468256599357200,8.602357177734374,0.3104483434408903,0.7333926007270812,-1.0765159369971602
1761468256609311000,8.61231103515625,0.2674211026191711,0.6854271728508174,-0.9874055018492043
1761468256619265000,8.62226513671875,0.1907902828812599,0.5961245030663908,-0.9664094025064259
1761468256629220000,8.63222021484375,0.06269932501912116,0.512982840129733,-0.9402795204717666
1761468256639174000,8.642173828125,-0.1131827270656824,0.4479489346832037,-0.8662317760296165
1761468256649128000,8.6521279296875,-0.169702486667037,0.4083915619291365,-0.766936485345289
1761468256659083000,8.6620830078125,-0.13183832769691944,0.353924935465306,-0.5574645175434648
1761468256669037000,8.672037109375,-0.1117582472205162,0.23373554450795053,-0.3395007618587464
1761468256678991000,8.6819912109375,-0.04684183067381382,0.20403233403116464,-0.23685996013879776
1761468256688945200,8.691945068359376,0.02134557036757469,0.17204042809531092,-0.19479542686939239
1761468256698900000,8.70189990234375,0.01213350538611412,0.17646511266976594,-0.13093392620310187
1761468256708854000,8.71185400390625,-0.09531973811686038,0.24323694782480595,-0.04109298482351005
1761468256718807800,8.721807861328125,-0.15670388888418674,0.3724063485734164,0.09374372097179293
1761468256728763100,8.73176318359375,-0.14518880765736103,0.41058527258113026,0.3643455725189298
1761468256738717200,8.74171728515625,-0.047616322177648544,0.34223186732307076,0.5303769694577902
1761468256748671000,8.7516708984375,0.1552981137394905,0.10638239940106868,0.5055879806380719
1761468256758626000,8.7616259765625,0.4496989932209253,-0.20710268138721585,0.3687158234924078
1761468256768579800,8.771579833984376,0.5132248321920633,-0.5107428061179816,0.30954204225093124
1761468256778534000,8.781533935546875,0.4566530501425266,-0.7194424013078212,0.22336561472825706
1761468256788489200,8.7914892578125,0.32218554298579694,-0.8560423904486,0.17600962398722766
1761468256798443000,8.801443115234376,0.12461363714039325,-0.9173417855419218,0.16392134598232805
1761468256808397000,8.81139697265625,0.006178396373987197,-0.9172839178748429,0.07843757689893245
1761468256818351900,8.821351806640624,-0.0485462965041399,-0.9107280664905906,-0.04330386580601334
1761468256828306000,8.831305908203126,-0.08324585396349429,-0.8829057013243437,-0.10272796854674815
1761468256838260000,8.841260009765625,-0.04838789107203483,-0.7780667319729924,-0.12949914415962993
1761468256848215000,8.851215087890624,-0.015537760871648787,-0.662968526674807,-0.1362882197778672
1761468256858169000,8.861169189453125,-0.02211713926196098,-0.5336018497884273,-0.11896737488172948
1761468256868123100,8.871123046875,-0.03184650611579418,-0.42957273551523684,-0.0857423469543457
1761468256878078000,8.881077880859374,-0.02706862418949604,-0.38021497649773955,-0.06605857231914997
1761468256888032000,8.891031982421875,0.10212415743470192,-0.4185485065452754,-0.15324593045003712
1761468256897986000,8.900986083984375,0.2158832230836153,-0.5159899129912257,-0.17066051804423332
1761468256907941000,8.910941162109374,0.29900048223137854,-0.5651555104374886,-0.18731858818270264
1761468256917895200,8.920895263671875,0.3051455608576536,-0.5953768995694816,-0.1896440354555845
1761468256927849000,8.930848876953124,0.1963800657123327,-0.5848978833921253,-0.13346475985497236
1761468256937804000,8.940803955078126,0.04268880264759063,-0.5519754186078906,-0.1378516697023064
1761468256947758000,8.950758056640625,-0.020158990931510926,-0.4994428289465606,-0.15638598204143345
1761468256957712000,8.9607119140625,0.028088030365109443,-0.4929255560070276,-0.11214823291879146
1761468256967666000,8.970666015625,0.049967269217967986,-0.49990635480508205,-0.05807276119701564
1761468256977621000,8.98062109375,0.13601999729573727,-0.46914179870709777,-0.09457034452166407
1761468256987575000,8.990574951171874,0.20256722991466522,-0.5203143520615995,-0.11112963046077638
1761468256997529000,9.000529052734375,0.17212708346545696,-0.5940884671941399,-0.1406155814576894
1761468257007484000,9.01048388671875,0.12157821496725081,-0.6329441214196384,-0.20122816333062946
1761468257017438000,9.02043798828125,0.09334931482672691,-0.6836579712212085,-0.26210432804320005
1761468257027392000,9.03039208984375,0.04700315871536732,-0.7412576350137591,-0.32331367023289204
1761468257037347000,9.04034716796875,-0.06783142721056938,-0.766532361523807,-0.38395851040761914
1761468257047301000,9.050301025390626,-0.2951566662847996,-0.7850253189392388,-0.4224382074601948
1761468257057255000,9.0602548828125,-0.5933586916148662,-0.7440069337219,-0.4205357713723555
1761468257067210000,9.0702099609375,-0.845067845839262,-0.7249782619945705,-0.4253760144777596
1761468257077164300,9.080164306640626,-0.9519336448431015,-0.7166917874254286,-0.4513640038236975
1761468257087118000,9.0901181640625,-0.9041296911388635,-0.6677201051160693,-0.47362362029626964
1761468257097073200,9.1000732421875,-0.8478267891585827,-0.6253941444315015,-0.4854590560512617
1761468257107027000,9.11002685546875,-0.9256500335514545,-0.6076793317817151,-0.5123692382760345
1761468257116981000,9.11998095703125,-1.073872509816289,-0.5812482748433947,-0.6037163829674944
1761468257126936300,9.129936279296874,-1.2802245189666748,-0.5339890955403447,-0.705119569183886
1761468257136890000,9.13989013671875,-1.5036585958212614,-0.4499975377760827,-0.769039448973909
1761468257146844200,9.14984423828125,-1.7451181587100029,-0.3424262208513915,-0.8244700250990689
1761468257156799000,9.159799072265624,-1.9507804320305584,-0.1873217299878597,-0.8729288625154644
1761468257166753000,9.1697529296875,-2.0568430979579686,0.015062106183916329,-0.9320304553035647
1761468257176707000,9.17970703125,-2.0658593481063843,0.23983795303627847,-0.9261033302769064
1761468257186662100,9.189662109375,-1.9094646713018417,0.4227952042043209,-0.9675037005491555
1761468257196616200,9.1996162109375,-1.5062188016980886,0.5125524858884513,-0.9347008435565978
1761468257206570200,9.2095703125,-0.9523737898260355,0.6091600718587636,-0.8435284343775361
1761468257216525000,9.219525146484376,-0.29694822587668895,0.7263298227339983,-0.7029727664135396
1761468257226479000,9.22947900390625,0.31401041983664035,0.7591207700930536,-0.48603327574264255
1761468257236433200,9.23943310546875,0.93748251016438,0.838516962891072,-0.28805194884613156
1761468257246388200,9.24938818359375,1.4344628945201634,0.8935960221648216,-0.12517200167551637
1761468257256342300,9.25934228515625,1.7956804712116716,0.8934383473850787,0.02166185150882229
1761468257266296000,9.269296142578124,2.0395196227133274,0.9993009606957435,0.12819465569863095
1761468257276250000,9.27925,2.1126520789414642,1.0424401374593377,0.2936412202205509
1761468257286205000,9.289204833984375,2.124437793803215,1.1084238909766078,0.4097861946253106
1761468257296159000,9.299158935546876,1.954662241899967,1.1898039510682223,0.43124640434850003
1761468257306113000,9.309113037109375,1.618092199730873,1.1888825984396039,0.3453051372885704
1761468257316068000,9.319068115234375,1.188594283017516,1.149707941392809,0.2462778133580461
1761468257326022100,9.329022216796876,0.7388029353380203,1.1283055262714623,0.09699698714669794
1761468257335976200,9.33897607421875,0.3567816400706768,1.1657875540561973,-0.09251122003477066
1761468257345931000,9.348930908203124,-0.01255436114668846,1.1741712053894997,-0.2472250676129013
1761468257355885000,9.358885009765626,0.05950608193576336,0.9758423436969518,0.02660213918890804
1761468257365839000,9.368839111328125,0.2050216373294592,0.967664736329764,0.12171828102506696
1761468257375794200,9.378794189453124,0.3955108914375305,1.061021357680112,0.07947046361062675
1761468257385748200,9.388748291015625,0.562235823598504,1.0155888092823326,0.3321597514461726
1761468257395702000,9.398701904296875,0.7187637713938951,1.0865997433118522,0.44078350003324446
1761468257405657000,9.408656982421874,0.749282828298211,1.094518115220964,0.5903315623460337
1761468257415611100,9.418611083984375,0.7353063253939152,1.1565692054644225,0.7200585604447871
1761468257425565000,9.42856494140625,0.7089923189640045,1.2026261693708598,0.8380166121535003
1761468257435520300,9.438520263671874,0.5670078603059053,1.2350294325865805,0.9300952494572847
