time,seconds_elapsed,z,y,x
1761468248067299600,0.070299560546875,0.12269480526447296,-0.14775335788726807,-0.12900908291339874
1761468248077253600,0.080253662109375,0.13242840766906738,-0.1027267575263977,-0.04999522492289543
1761468248087207700,0.090207763671875,0.11965810507535934,-0.05983365699648857,0.01969219744205475
1761468248097161500,0.100161376953125,0.10770051181316376,-0.03370911255478859,0.0700557678937912
1761468248107115800,0.11011572265625,0.09976141899824142,-0.007955689914524555,0.09316148608922958
1761468248117070600,0.120070556640625,0.08901157230138779,0.007537781726568937,0.08972760289907455
1761468248127024600,0.130024658203125,0.08078277111053467,0.006988413631916046,0.06645534187555313
1761468248136978700,0.139978759765625,0.07933560758829117,0.002842936897650361,0.04094173014163971
1761468248146932500,0.149932373046875,0.08002980798482895,-0.009402256458997726,0.03501754626631737
1761468248156887600,0.159887451171875,0.07685878127813339,-0.02749018184840679,0.03988740220665932
1761468248166841900,0.169841796875,0.0803251639008522,-0.042427174746990204,0.06658334285020828
1761468248176795600,0.179795654296875,0.08398940414190292,-0.044475145637989044,0.10128113627433777
1761468248186749700,0.189749755859375,0.08171185851097107,-0.05004289373755455,0.1297547072172165
1761468248196703700,0.199703857421875,0.07840847969055176,-0.045909132808446884,0.1423669159412384
1761468248206658600,0.209658447265625,0.08049879223108292,-0.03866853192448616,0.1368294060230255
1761468248216612600,0.219612548828125,0.08388713002204895,-0.0471419095993042,0.11445137858390808
1761468248226566700,0.229566650390625,0.07971914112567902,-0.07049963623285294,0.09420263767242432
1761468248236520400,0.2395205078125,0.07361384481191635,-0.08844667673110962,0.08261388540267944
1761468248246475800,0.249475830078125,0.06921448558568954,-0.09836161136627197,0.07812675088644028
1761468248256429600,0.2594296875,0.06311052292585373,-0.10476038604974747,0.07283797860145569
1761468248266383600,0.269383544921875,0.061800844967365265,-0.09336487948894501,0.058859147131443024
1761468248276337700,0.279337646484375,0.06435775011777878,-0.06215370073914528,0.033956993371248245
1761468248286291700,0.289291748046875,0.06019104644656181,-0.042103394865989685,0.016842881217598915
1761468248296246500,0.29924658203125,0.05562079697847366,-0.018436679616570473,0.023400649428367615
1761468248306200800,0.309200927734375,0.04404241219162941,0.00004606437869369984,0.04671091213822365
1761468248316154600,0.319154541015625,0.03488273546099663,0.003664234885945916,0.0650441125035286
1761468248326108700,0.329108642578125,0.031187303364276886,-0.005215376615524292,0.0673883855342865
1761468248336063700,0.339063720703125,0.03206028789281845,-0.03053111769258976,0.06497902423143387
1761468248346017500,0.349017578125,0.0360257513821125,-0.04273030161857605,0.06816599518060684
1761468248355971600,0.3589716796875,0.03824682906270027,-0.041980888694524765,0.08275532722473145
1761468248365925600,0.368925537109375,0.03320062533020973,-0.038474470376968384,0.10021750628948212
1761468248375879400,0.37887939453125,0.023960523307323456,-0.03344988450407982,0.11174659430980682
1761468248385834800,0.388834716796875,0.018068574368953705,-0.04018766060471535,0.10696490854024887
1761468248395788500,0.39878857421875,0.012827740050852299,-0.07933159917593002,0.09650002419948578
1761468248405742600,0.40874267578125,0.006691788323223591,-0.13592885434627533,0.1010124608874321
1761468248415696600,0.418696533203125,0.0031886661890894175,-0.1522199511528015,0.12807230651378632
1761468248425651500,0.4286513671875,0.002685034880414605,-0.1269073337316513,0.15659482777118683
1761468248435605500,0.43860546875,0.0003390563069842756,-0.11188311129808426,0.16442345082759857
1761468248445559800,0.448559814453125,-0.004196209367364645,-0.09404920786619186,0.1534011960029602
1761468248455513600,0.458513671875,-0.001949566649273038,-0.0692296177148819,0.13535961508750916
1761468248465468700,0.46846875,-0.0011608083732426167,-0.04863256588578224,0.11413678526878357
1761468248475422700,0.478422607421875,-0.00047477814950980246,-0.0492008812725544,0.09176409989595413
1761468248485376500,0.48837646484375,0.004524156916886568,-0.0583496168255806,0.07437580823898315
1761468248495330600,0.49833056640625,0.011998319067060947,-0.058400485664606094,0.056566983461380005
1761468248505284600,0.50828466796875,0.008158798329532146,-0.07271231710910797,0.03752884641289711
1761468248515239700,0.51823974609375,0.0028846736531704664,-0.09096749126911163,0.02061804197728634
1761468248525193700,0.52819384765625,-0.002236991422250867,-0.07986070960760117,0.01389282289892435
1761468248535147800,0.538147705078125,-0.008125773631036282,-0.05924251675605774,0.015947185456752777
1761468248545101600,0.5481015625,-0.018349915742874146,-0.04799492284655571,0.019541652873158455
1761468248555056600,0.558056640625,-0.03178529441356659,-0.0362091027200222,0.015410824678838253
1761468248565010400,0.568010498046875,-0.03941432759165764,-0.03403989598155022,0.0007176932413130999
1761468248574964500,0.577964599609375,-0.04624427109956741,-0.030556216835975647,-0.0070185232907533646
1761468248584918800,0.587918701171875,-0.05136540159583092,-0.019780021160840988,-0.003429938340559602
1761468248594873600,0.59787353515625,-0.05558038875460625,-0.018015410751104355,0.006136668846011162
1761468248604827600,0.60782763671875,-0.05912790074944496,-0.021819675341248512,0.016192564740777016
1761468248614781700,0.61778173828125,-0.06199559569358826,-0.026109229773283005,0.02553892880678177
1761468248624735500,0.627735595703125,-0.06409664452075958,-0.030560683459043503,0.0230060163885355
1761468248634689500,0.637689453125,-0.06524446606636047,-0.04223917797207832,0.012576544657349586
1761468248644644900,0.647644775390625,-0.057923562824726105,-0.041309796273708344,-0.0017657044809311628
1761468248654598700,0.6575986328125,-0.05475280433893204,-0.03342017903923988,-0.013954460620880127
1761468248664552700,0.667552734375,-0.04924742132425308,-0.0246201753616333,-0.01878450997173786
1761468248674506800,0.6775068359375,-0.04812409728765488,-0.022476863116025925,-0.017542412504553795
1761468248684461600,0.687461669921875,-0.04839440807700157,-0.02015725150704384,-0.0081550357863307
1761468248694415600,0.69741552734375,-0.04681595414876938,-0.014769408851861954,-0.0017725036013871431
1761468248704369700,0.70736962890625,-0.04316698759794235,-0.012963907793164253,-0.0011177572887390852
1761468248714323700,0.71732373046875,-0.035423047840595245,-0.011610755696892738,-0.00035422900691628456
1761468248724278800,0.72727880859375,-0.03209739178419113,-0.021261828020215034,0.004250870086252689
1761468248734232600,0.737232666015625,-0.03622236102819443,-0.021942531690001488,0.01042594201862812
1761468248744186600,0.7471865234375,-0.038222409784793854,-0.01306848879903555,0.014199762605130672
1761468248754140700,0.757140625,-0.03974973037838936,-0.01713327132165432,0.011048444546759129
1761468248764094500,0.767094482421875,-0.04406120628118515,-0.03614654392004013,0.0011442539980635047
1761468248774049800,0.7770498046875,-0.04791693389415741,-0.06131155043840408,-0.014320189133286476
1761468248784003800,0.78700390625,-0.047772448509931564,-0.07293692231178284,-0.023101843893527985
1761468248793957600,0.79695751953125,-0.04890908673405647,-0.06997095793485641,-0.02595648728311062
1761468248803911700,0.80691162109375,-0.05238540843129158,-0.0547073595225811,-0.022127699106931686
1761468248813866500,0.816866455078125,-0.05351325869560242,-0.04598604142665863,-0.01350811030715704
1761468248823820500,0.826820556640625,-0.05549166351556778,-0.038413647562265396,-0.005228651687502861
1761468248833774600,0.836774658203125,-0.061124514788389206,-0.03673505783081055,0.003573095891624689
1761468248843728600,0.846728759765625,-0.06451539695262909,-0.026533227413892746,0.005197685211896896
1761468248853683700,0.85668359375,-0.0640173852443695,-0.0072508747689425945,-0.008852086961269379
1761468248863637800,0.8666376953125,-0.05521629378199577,0.012050936929881573,-0.03154059872031212
1761468248873591600,0.876591552734375,-0.05157362297177315,0.017753563821315765,-0.05561397597193718
1761468248883545600,0.886545654296875,-0.054873473942279816,0.00982988253235817,-0.06499973684549332
1761468248893500700,0.896500732421875,-0.05856967344880104,0.006355255842208862,-0.05458784103393555
1761468248903454500,0.906454345703125,-0.06155983358621597,0.011982412077486515,-0.04053204506635666
1761468248913408800,0.91640869140625,-0.06704913824796677,0.020552730187773705,-0.021599367260932922
1761468248923362800,0.92636279296875,-0.07020990550518036,0.028322625905275345,-0.013125601224601269
1761468248933317600,0.936317626953125,-0.0684860423207283,0.026576125994324684,-0.012909618206322193
1761468248943271700,0.946271728515625,-0.06930980086326599,0.027875665575265884,-0.012023132294416428
1761468248953225700,0.956225830078125,-0.06976786255836487,0.03008422628045082,-0.007435038685798645
1761468248963179500,0.966179443359375,-0.06883902102708817,0.03255641832947731,-0.0031489639077335596
1761468248973134800,0.976134765625,-0.060714785009622574,0.030587542802095413,-0.007550103589892387
1761468248983088600,0.986088623046875,-0.05504820495843887,0.02826559543609619,-0.01879418082535267
1761468248993042700,0.996042724609375,-0.047723446041345596,0.021197300404310226,-0.023225149139761925
1761468249002996700,1.005996826171875,-0.040602799504995346,0.022690163925290108,-0.02265825867652893
1761468249012950800,1.01595068359375,-0.03678915277123451,0.01409108191728592,-0.019955148920416832
1761468249022905600,1.025905517578125,-0.03476971760392189,-0.00734113622456789,-0.02210155874490738
1761468249032859600,1.035859619140625,-0.026750408113002777,-0.0210361760109663,-0.026752501726150513
1761468249042813400,1.0458134765625,-0.02150452882051468,-0.020704222843050957,-0.02300904132425785
1761468249052767700,1.055767822265625,-0.01802271232008934,-0.010146385990083218,-0.017095226794481277
1761468249062723000,1.06572314453125,-0.01941441185772419,-0.004629731643944979,-0.010735674761235714
1761468249072677000,1.075677001953125,-0.023700237274169922,-0.0015636341413483024,-0.002940335776656866
1761468249082631200,1.085631103515625,-0.025475693866610527,-0.006860906258225441,0.006015092600136995
1761468249092585000,1.0955849609375,-0.023854361847043037,-0.018746327608823776,0.010047917254269123
1761468249102540000,1.1055400390625,-0.027018405497074127,-0.023532602936029434,0.01245377492159605
1761468249112494000,1.115494140625,-0.025981370359659195,-0.020465172827243805,0.009185277856886387
1761468249122448100,1.1254482421875,-0.025246072560548782,-0.016265368089079857,0.006614262238144875
1761468249132402200,1.135402099609375,-0.02228303998708725,-0.006003143265843391,0.0052959974855184555
1761468249142357000,1.14535693359375,-0.022803183645009995,-0.005892827641218901,0.004392450675368309
1761468249152311000,1.15531103515625,-0.023030085489153862,-0.013193083927035332,0.008219413459300995
1761468249162265000,1.16526513671875,-0.023030225187540054,-0.016062045469880104,0.009833881631493568
1761468249172219100,1.17521923828125,-0.023566851392388344,-0.024008652195334435,0.007195754908025265
1761468249182174200,1.18517431640625,-0.02283794805407524,-0.029891494661569595,0.00036216992884874344
1761468249192128300,1.195128173828125,-0.019716190174221992,-0.029294947162270546,0.010285374708473682
1761468249202082000,1.20508203125,-0.019039085134863853,-0.016229044646024704,0.0205613374710083
1761468249212036000,1.2150361328125,-0.02011100761592388,-0.0039702486246824265,0.027699407190084457
1761468249221991200,1.2249912109375,-0.019125105813145638,0.009155487641692162,0.02774396724998951
1761468249231945000,1.234945068359375,-0.014548996463418007,0.009472137317061424,0.02419477328658104
1761468249241899000,1.24489892578125,-0.010815191082656384,0.004845201503485441,0.02045760490000248
1761468249251853000,1.25485302734375,-0.008553368039429188,0.006285172887146473,0.013570403680205345
1761468249261808000,1.26480810546875,-0.004883585963398218,0.002845127135515213,0.0068839602172374725
1761468249271762200,1.27476220703125,-0.007242081221193075,0.0013574854237958789,0.0039438302628695965
1761468249281716200,1.28471630859375,-0.010760582983493805,0.0027089565992355347,0.0041088685393333435
1761468249291670000,1.294669921875,-0.008232444524765015,0.005217388272285461,0.0013090873835608363
1761468249301624000,1.3046240234375,-0.003333739237859845,-0.003597244154661894,-0.0037369094789028168
1761468249311579000,1.314578857421875,0.00604937644675374,-0.005091011058539152,-0.0038016242906451225
1761468249321533200,1.324533203125,0.01455456018447876,-0.0031922589987516403,-0.00823800079524517
1761468249331487200,1.3344873046875,0.015480807982385159,-0.008596079424023628,-0.008880089037120342
1761468249341441300,1.344441162109375,0.01860828511416912,-0.020772522315382957,-0.010163139551877975
1761468249351396000,1.35439599609375,0.017617322504520416,-0.019018298014998436,-0.003122007939964533
1761468249361350100,1.36435009765625,0.017521264031529427,-0.008791247382760048,0.006063481792807579
1761468249371304000,1.374303955078125,0.018167346715927124,-0.0039951615035533905,0.017657820135354996
1761468249381258000,1.384258056640625,0.01974497362971306,0.002754681510850787,0.02963358536362648
1761468249391213000,1.394213134765625,0.01933218538761139,0.012197185307741165,0.03493354469537735
1761468249401167000,1.4041669921875,0.018498562276363373,0.019496869295835495,0.030412249267101288
1761468249411121200,1.41412109375,0.01897606812417507,0.0141106266528368,0.013778145425021648
1761468249421075200,1.4240751953125,0.017317939549684525,0.004553257953375578,-0.004809200763702393
1761468249431030000,1.434030029296875,0.014481406658887863,0.003730873577296734,-0.014558234252035618
1761468249440984000,1.443984130859375,0.008331802673637867,0.004653351381421089,-0.011717479676008224
1761468249450938000,1.453938232421875,0.006121644284576178,-0.0018828448373824358,-0.009026355110108852
1761468249460892200,1.46389208984375,0.005738138221204281,-0.008725528605282307,-0.004625445697456598
1761468249470847200,1.47384716796875,0.008647908456623554,-0.005558231379836798,0.0028367317281663418
1761468249480801000,1.483801025390625,0.008584817871451378,0.0013702686410397291,0.01126406155526638
1761468249490755000,1.493755126953125,0.008584817871451378,0.012542495504021645,0.02274627983570099
1761468249500709000,1.503709228515625,0.011037756688892841,0.020366555079817772,0.028298132121562958
1761468249510664000,1.513663818359375,0.013202373869717121,0.02973821945488453,0.03139086067676544
1761468249520618200,1.5236181640625,0.014973686076700687,0.029636036604642868,0.02761458046734333
1761468249530572300,1.533572265625,0.012379766441881657,0.008202649652957916,0.01750442199409008
1761468249540526000,1.543526123046875,0.014219151809811592,-0.01716703362762928,0.012805934995412827
1761468249550481200,1.553481201171875,0.014733142219483852,-0.02421588823199272,0.012696745805442333
1761468249560435000,1.56343505859375,0.017712393775582314,-0.017117787152528763,0.01553645171225071
1761468249570389000,1.573388916015625,0.020792605355381966,-0.012842080555856228,0.0105464868247509
1761468249580343000,1.583343017578125,0.020719636231660843,-0.010499830357730389,0.00458686426281929
1761468249590298000,1.593298095703125,0.017223970964550972,-0.009904880076646805,-0.006152332294732332
1761468249600252200,1.603252197265625,0.006627348251640797,-0.013154879212379456,-0.023961031809449196
1761468249610206200,1.613206298828125,0.006094982381910086,-0.008918056264519691,-0.04096398502588272
1761468249620160000,1.623159912109375,0.008886145427823067,-0.010346698574721813,-0.052372559905052185
1761468249630115000,1.633114990234375,0.001823442173190415,-0.027941938489675522,-0.06003420799970627
1761468249640069000,1.643069091796875,0.0004158219089731574,-0.03645706549286842,-0.05737977474927902
1761468249650023000,1.65302294921875,-0.0015557161532342434,-0.023613441735506058,-0.04948057234287262
1761468249659977200,1.662977294921875,-0.0026503426488488913,-0.0006630339776165783,-0.03562885895371437
1761468249669932000,1.67293212890625,-0.002049000933766365,0.013221888802945614,-0.025111237540841103
1761468249679886000,1.682885986328125,-0.004896651953458786,0.01325988955795765,-0.023636456578969955
1761468249689840000,1.692840087890625,-0.006720118224620819,-0.004402195103466511,-0.029341744258999825
1761468249699794200,1.702794189453125,-0.0075964354909956455,-0.030018096789717674,-0.04251110181212425
1761468249709749000,1.7127490234375,-0.010059060528874397,-0.04507454112172127,-0.04961295425891876
1761468249719703300,1.722703369140625,-0.015491755679249763,-0.03515978157520294,-0.053503748029470444
1761468249729657000,1.732656982421875,-0.02600591443479061,-0.014140780083835125,-0.055263034999370575
1761468249739611100,1.742611083984375,-0.03284338861703873,0.01108279637992382,-0.062223486602306366
1761468249749565200,1.752565185546875,-0.03211767598986626,0.02720663696527481,-0.07875266671180725
1761468249759520000,1.76252001953125,-0.033955786377191544,0.028666235506534576,-0.09703189134597778
1761468249769474000,1.77247412109375,-0.034149929881095886,0.03839476406574249,-0.11268062144517899
1761468249779428000,1.782427978515625,-0.03750060871243477,0.049536895006895065,-0.12993498146533966
1761468249789382000,1.7923818359375,-0.03720872849225998,0.04346568509936333,-0.14839094877243042
1761468249799337200,1.802337158203125,-0.03527678921818733,0.023499680683016777,-0.16182394325733185
1761468249809291000,1.812291015625,-0.038535699248313904,0.011626510880887508,-0.16078025102615356
1761468249819245000,1.8222451171875,-0.035427019000053406,0.014894270338118076,-0.151759535074234
1761468249829199000,1.83219921875,-0.029368063434958458,0.008350617252290249,-0.1439945548772812
1761468249839154000,1.84215380859375,-0.019446831196546555,-0.010323467664420605,-0.13797874748706818
1761468249849108000,1.85210791015625,-0.006958471145480871,-0.032851144671440125,-0.1393212378025055
1761468249859062300,1.862062255859375,-0.0003048731305170804,-0.06791147589683533,-0.14097967743873596
1761468249869016000,1.87201611328125,0.006028123665601015,-0.10338158905506134,-0.14048272371292114
1761468249878971100,1.88197119140625,0.009683622978627682,-0.11673033237457275,-0.13001269102096558
1761468249888925200,1.89192529296875,0.007725666742771864,-0.10708516091108322,-0.11168908327817917
1761468249898879000,1.90187890625,0.008601720444858074,-0.08187548071146011,-0.09625479578971863
1761468249908833000,1.9118330078125,0.013363984413444996,-0.05692032352089882,-0.09121742844581604
1761468249918788000,1.9217880859375,0.01677456870675087,-0.04456331953406334,-0.09920590370893478
1761468249928742100,1.9317421875,0.01955597475171089,-0.04448715224862099,-0.10805478692054749
1761468249938696200,1.9416962890625,0.020250540226697922,-0.04042462259531021,-0.11208640038967133
1761468249948650200,1.951650146484375,0.01602410338819027,-0.03968160226941109,-0.1067129448056221
1761468249958605000,1.96160498046875,0.007856732234358788,-0.04498381167650223,-0.09783036261796951
1761468249968559000,1.97155908203125,-0.0006813613581471145,-0.0422319658100605,-0.08191211521625519
1761468249978513000,1.981512939453125,-0.00441010994836688,-0.04164736345410347,-0.06360524147748947
1761468249988467200,1.99146728515625,-0.005573378410190344,-0.04256295785307884,-0.053072165697813034
1761468249998422300,2.00142236328125,-0.00939884502440691,-0.0402873270213604,-0.04737544059753418
1761468250008376000,2.0113759765625,-0.010810320265591145,-0.030108727514743805,-0.04328988492488861
1761468250018330000,2.021330078125,-0.007734287064522505,-0.021210061386227608,-0.04736160859465599
1761468250028284200,2.0312841796875,-0.0048402296379208565,-0.004289933480322361,-0.0533747598528862
1761468250038239000,2.041239013671875,-0.00021711539011448622,0.010793391615152359,-0.05469411611557007
1761468250048193300,2.051193359375,-0.003000384895130992,0.029042968526482582,-0.060758400708436966
1761468250058147000,2.06114697265625,-0.01047608070075512,0.036799076944589615,-0.06932080537080765
1761468250068101400,2.071101318359375,-0.011338944546878338,0.02677520550787449,-0.0828094556927681
1761468250078055400,2.081055419921875,-0.0032942648977041245,0.019359203055500984,-0.08541232347488403
1761468250088009500,2.091009521484375,0.003748730756342411,0.0065355501137673855,-0.07343395799398422
1761468250097963500,2.100963623046875,0.011664983816444874,-0.018467353656888008,-0.053144484758377075
1761468250107917600,2.11091748046875,0.013103890232741833,-0.05379871279001236,-0.026602886617183685
1761468250117872400,2.120872314453125,0.00844244472682476,-0.08055727928876877,-0.008635521866381168
1761468250127826400,2.130826416015625,-0.005333821289241314,-0.07888587564229965,-0.012355425395071507
1761468250137780500,2.140780517578125,-0.02216288261115551,-0.06661763042211533,-0.029752401635050774
1761468250147735300,2.1507353515625,-0.040423110127449036,-0.06129956617951393,-0.05571768805384636
1761468250157689600,2.160689697265625,-0.05877693369984627,-0.05074165016412735,-0.08424912393093109
1761468250167643600,2.1706435546875,-0.08803655207157135,-0.046371135860681534,-0.12177439033985138
1761468250177597400,2.180597412109375,-0.11293360590934753,-0.04597237706184387,-0.15585078299045563
1761468250187552500,2.190552490234375,-0.13110488653182983,-0.03440120816230774,-0.1764194369316101
1761468250197506300,2.20050634765625,-0.14958301186561584,-0.031193390488624573,-0.18634101748466492
1761468250207460400,2.21046044921875,-0.16690342128276825,-0.02960534766316414,-0.1830674558877945
1761468250217414400,2.220414306640625,-0.17854394018650055,-0.027982212603092194,-0.17205508053302765
1761468250227369500,2.230369384765625,-0.18144625425338745,-0.03339109197258949,-0.15924659371376038
1761468250237323500,2.240323486328125,-0.17820121347904205,-0.033525992184877396,-0.14992807805538177
1761468250247277600,2.250277587890625,-0.1709297150373459,-0.034897785633802414,-0.14988760650157928
1761468250257231400,2.2602314453125,-0.15767337381839752,-0.03676161170005798,-0.15709105134010315
1761468250267186400,2.2701865234375,-0.1413916051387787,-0.04535137116909027,-0.16786833107471466
1761468250277140500,2.280140380859375,-0.12126228213310242,-0.06673289090394974,-0.184686541557312
1761468250287094500,2.290094482421875,-0.09745389223098755,-0.08701259642839432,-0.21014821529388428
1761468250297048600,2.300048583984375,-0.07713368535041809,-0.10161460191011429,-0.22859635949134827
1761468250307003400,2.31000341796875,-0.06546477973461151,-0.11094924807548523,-0.22133392095565796
1761468250316957400,2.31995751953125,-0.06710022687911987,-0.11371733993291855,-0.19038985669612885
1761468250326911500,2.329911376953125,-0.07804528623819351,-0.10699259489774704,-0.14222471415996552
1761468250336865500,2.339865478515625,-0.0931384265422821,-0.07408075779676437,-0.08628692477941513
1761468250346820600,2.349820556640625,-0.10763933509588242,-0.02843603678047657,-0.04065818712115288
1761468250356774700,2.359774658203125,-0.11544350534677505,0.02557118982076645,-0.01319495402276516
1761468250366728400,2.369728515625,-0.11275504529476166,0.06972187012434006,-0.00940767116844654
1761468250376682500,2.3796826171875,-0.10760705918073654,0.09847366809844971,-0.02002725377678871
1761468250386637600,2.389637451171875,-0.1032828837633133,0.10698539763689041,-0.02646464668214321
1761468250396591400,2.39959130859375,-0.10377949476242065,0.09222706407308578,-0.024003250524401665
1761468250406545400,2.40954541015625,-0.10626555234193802,0.07034546136856079,-0.016438808292150497
1761468250416500500,2.41950048828125,-0.09596165269613266,0.049653828144073486,0.006315301172435284
1761468250426454500,2.42945458984375,-0.08208312094211578,0.03889865055680275,0.040046364068984985
1761468250436408600,2.43940869140625,-0.06256065517663956,0.03314804658293724,0.07203435897827148
1761468250446362400,2.4493623046875,-0.04168440401554108,0.020282050594687462,0.10090196132659912
1761468250456317400,2.4593173828125,-0.015012472867965698,0.008664808236062527,0.12698788940906525
1761468250466271500,2.469271484375,0.00929260067641735,0.003001596312969923,0.1498122364282608
1761468250476225300,2.479225341796875,0.03365271911025047,-0.017380353063344955,0.16548655927181244
1761468250486179600,2.4891796875,0.05956926941871643,-0.035786792635917664,0.17208907008171082
1761468250496134400,2.499134521484375,0.08014272153377533,-0.04160895198583603,0.17166246473789215
1761468250506088400,2.50908837890625,0.09526654332876205,-0.042855579406023026,0.15945319831371307
1761468250516042500,2.51904248046875,0.1012055054306984,-0.0441536046564579,0.14560291171073914
1761468250525996500,2.52899658203125,0.10584526509046555,-0.04523990675806999,0.12309253960847855
1761468250535951400,2.538951416015625,0.1116023138165474,-0.029168404638767242,0.09839744120836258
1761468250545905700,2.54890576171875,0.11199992150068283,-0.0019378504948690534,0.07004782557487488
1761468250555859500,2.558859375,0.10482578724622726,0.01192660816013813,0.04666050896048546
1761468250565813500,2.5688134765625,0.09790769219398499,0.020315565168857574,0.020943157374858856
1761468250575768600,2.5787685546875,0.094241201877594,0.05036298558115959,-0.003769595641642809
1761468250585722400,2.588722412109375,0.09108588844537735,0.0868765264749527,-0.03522365912795067
1761468250595676400,2.598676513671875,0.08758033812046051,0.1077779158949852,-0.07784878462553024
1761468250605630500,2.60863037109375,0.09377271682024002,0.11301875114440918,-0.11959916353225708
1761468250615585500,2.61858544921875,0.09084228426218033,0.10704313963651657,-0.16329656541347504
1761468250625539600,2.62853955078125,0.08163706958293915,0.09619475901126862,-0.20667865872383118
1761468250635493600,2.63849365234375,0.08213189244270325,0.07575034350156784,-0.24297820031642914
1761468250645447400,2.648447509765625,0.07726310193538666,0.034150708466768265,-0.26389279961586
1761468250655402500,2.658402587890625,0.07249715924263,-0.004874641075730324,-0.2709048390388489
1761468250665356300,2.668356201171875,0.06223679706454277,-0.02928118035197258,-0.2556459903717041
1761468250675310300,2.678310302734375,0.05437881499528885,-0.038167573511600494,-0.22766649723052979
1761468250685265700,2.688265625,0.041478198021650314,-0.024736188352108,-0.18778912723064423
1761468250695219500,2.698219482421875,0.026324881240725517,-0.0005913355853408575,-0.14053495228290558
1761468250705173500,2.708173583984375,0.006076866295188665,0.03246168792247772,-0.09204332530498505
1761468250715127600,2.71812744140625,-0.01664532534778118,0.05744129791855812,-0.04841705784201622
1761468250725082400,2.728082275390625,-0.03260352090001106,0.08112479746341705,-0.00508902408182621
1761468250735036400,2.738036376953125,-0.04636192321777344,0.10317795723676682,0.029936395585536957
1761468250744990500,2.747990478515625,-0.059762418270111084,0.09919492900371552,0.05786336585879326
1761468250754944500,2.757944580078125,-0.0697261244058609,0.06928091496229172,0.072623610496521
1761468250764899600,2.767899658203125,-0.07388118654489517,0.035859040915966034,0.08264482021331787
1761468250774853400,2.777853271484375,-0.07906202971935272,0.005609138868749142,0.08307959139347076
1761468250784807400,2.787807373046875,-0.0842922106385231,-0.029104366898536682,0.07448716461658478
1761468250794761500,2.797761474609375,-0.07971744984388351,-0.0627429410815239,0.06233764439821243
1761468250804716500,2.807716552734375,-0.07789397984743118,-0.07237426191568375,0.057469118386507034
1761468250814670600,2.817670654296875,-0.07359940558671951,-0.06468694657087326,0.05500392988324165
1761468250824624600,2.827624755859375,-0.06953808665275574,-0.05855341628193855,0.05529394745826721
1761468250834578400,2.837578369140625,-0.06379528343677521,-0.06858189404010773,0.0650908425450325
1761468250844533500,2.847533447265625,-0.05802954360842705,-0.07768698036670685,0.08437399566173553
1761468250854487300,2.8574873046875,-0.0617469921708107,-0.12165527790784836,0.1103014200925827
1761468250864441300,2.86744140625,-0.06972049176692963,-0.18198493123054504,0.12668785452842712
1761468250874396700,2.877396728515625,-0.07394673675298691,-0.24050214886665344,0.12466534227132797
1761468250884350500,2.8873505859375,-0.08360655605792999,-0.2890387773513794,0.10969811677932739
1761468250894304500,2.897304443359375,-0.09177464991807938,-0.3075331151485443,0.09306611120700836
1761468250904258600,2.907258544921875,-0.09720350801944733,-0.30295249819755554,0.07138718664646149
1761468250914213400,2.91721337890625,-0.09866233915090561,-0.29112690687179565,0.04676873981952667
1761468250924167400,2.92716748046875,-0.09680265188217163,-0.2833147943019867,0.02243916690349579
1761468250934121500,2.93712158203125,-0.0953524261713028,-0.29199540615081787,0.004358638543635607
1761468250944075500,2.947075439453125,-0.09613193571567535,-0.29681041836738586,-0.0007801973260939121
1761468250954030600,2.957030517578125,-0.10814245045185089,-0.28097569942474365,0.015484096482396126
1761468250963984400,2.966984375,-0.12629376351833344,-0.2248234748840332,0.060433197766542435
1761468250973938400,2.9769384765625,-0.15385159850120544,-0.12447208911180496,0.13683345913887024
1761468250983892500,2.986892578125,-0.19801320135593414,-0.002505964133888483,0.23392164707183838
1761468250993847300,2.996847412109375,-0.23200727999210358,0.13565319776535034,0.3603258728981018
1761468251003801600,3.006801513671875,-0.2508281171321869,0.2628367245197296,0.4968280494213104
1761468251013755600,3.016755615234375,-0.26659709215164185,0.38741540908813477,0.6291559934616089
1761468251023709400,3.02670947265625,-0.27037638425827026,0.4907098412513733,0.7354880571365356
1761468251033664500,3.03666455078125,-0.2497134655714035,0.5582826733589172,0.8114544153213501
1761468251043618600,3.04661865234375,-0.20482829213142395,0.5781106948852539,0.8219072818756104
1761468251053572400,3.056572265625,-0.14209140837192535,0.555865466594696,0.7925008535385132
1761468251063528200,3.066528076171875,-0.08390559256076813,0.49293258786201477,0.7262775897979736
1761468251073482200,3.076482177734375,-0.031575705856084824,0.4226720631122589,0.6421622633934021
1761468251083436300,3.086436279296875,0.017360679805278778,0.3406389653682709,0.5416952967643738
1761468251093390300,3.096390380859375,0.05672163516283035,0.2529807984828949,0.43777745962142944
1761468251103345200,3.10634521484375,0.06903662532567978,0.15233835577964783,0.3189490735530853
1761468251113299500,3.116299560546875,0.07272516936063766,0.11952275782823563,0.20239943265914917
1761468251123253200,3.126253173828125,0.09917888045310974,0.13079698383808136,0.1117909625172615
1761468251133207300,3.136207275390625,0.12574869394302368,0.15298572182655334,0.03933682292699814
1761468251143162400,3.146162353515625,0.14877678453922272,0.17374879121780396,-0.0028652246110141277
1761468251153116200,3.1561162109375,0.16757480800151825,0.19508980214595795,-0.02127162367105484
1761468251163070200,3.1660703125,0.19563840329647064,0.21202750504016876,-0.020505698397755623
1761468251173024300,3.176024169921875,0.23493145406246185,0.2159096747636795,-0.008788525126874447
1761468251182979300,3.185979248046875,0.2707080841064453,0.21866044402122498,-0.007649756968021393
1761468251192933400,3.195933349609375,0.3036087155342102,0.20211084187030792,-0.02392851933836937
1761468251202887400,3.205887451171875,0.3263465166091919,0.14914269745349884,-0.06277205795049667
1761468251212842200,3.21584228515625,0.34106406569480896,0.07221678644418716,-0.11671755462884903
1761468251222796300,3.22579638671875,0.3421519696712494,-0.03169097378849983,-0.18644310534000397
1761468251232750000,3.23575,0.3427279591560364,-0.1462879627943039,-0.261517196893692
1761468251242704100,3.2457041015625,0.3406970202922821,-0.22967739403247833,-0.3218953013420105
1761468251252659200,3.2556591796875,0.33323580026626587,-0.2647682726383209,-0.36445504426956177
1761468251262613200,3.26561328125,0.32501861453056335,-0.25888773798942566,-0.3903297781944275
1761468251272567300,3.2755673828125,0.32565662264823914,-0.2337517887353897,-0.39559268951416016
1761468251282521300,3.285521240234375,0.32656049728393555,-0.19009564816951752,-0.3884916603565216
1761468251292476200,3.29547607421875,0.32229092717170715,-0.14089974761009216,-0.37196820974349976
1761468251302430200,3.30543017578125,0.3122071325778961,-0.10137896984815598,-0.35527098178863525
1761468251312384300,3.31538427734375,0.2951028347015381,-0.07919386029243469,-0.3398638963699341
1761468251322338300,3.32533837890625,0.27041664719581604,-0.0795733630657196,-0.3321908116340637
1761468251332293400,3.33529345703125,0.24352194368839264,-0.09182295948266983,-0.32609254121780396
1761468251342247200,3.3452470703125,0.21502557396888733,-0.1040886789560318,-0.32404670119285583
1761468251352201200,3.355201171875,0.18088006973266602,-0.12098826467990875,-0.3206559419631958
1761468251362155300,3.3651552734375,0.14603367447853088,-0.1389387547969818,-0.3110097050666809
1761468251372110300,3.3751103515625,0.11864904314279556,-0.1441963165998459,-0.2932964265346527
1761468251382064400,3.385064453125,0.09938506782054901,-0.13690032064914703,-0.26999616622924805
1761468251392018400,3.395018310546875,0.08474622666835785,-0.13530288636684418,-0.2536216378211975
1761468251401973200,3.40497314453125,0.08071153610944748,-0.12213142961263657,-0.2517281472682953
1761468251411927300,3.41492724609375,0.08465579897165298,-0.09767521917819977,-0.26218464970588684
1761468251421881000,3.424881103515625,0.08564223349094391,-0.08055588603019714,-0.28485825657844543
1761468251431835100,3.434835205078125,0.08075355738401413,-0.08166439086198807,-0.3177414834499359
1761468251441790500,3.44479052734375,0.07514600455760956,-0.09014096856117249,-0.34286385774612427
1761468251451744300,3.454744140625,0.07117447257041931,-0.10084271430969238,-0.34705260396003723
1761468251461698300,3.4646982421875,0.05965150520205498,-0.11091771721839905,-0.32698941230773926
1761468251471652400,3.47465234375,0.045104507356882095,-0.11554297804832458,-0.27994826436042786
1761468251481607200,3.484607177734375,0.02034190483391285,-0.11701809614896774,-0.21777278184890747
1761468251491561200,3.494561279296875,-0.004341694992035627,-0.11512582749128342,-0.1516176164150238
1761468251501515300,3.504515380859375,-0.024368666112422943,-0.11085598170757294,-0.08552967756986618
1761468251511469300,3.51446923828125,-0.038426175713539124,-0.11281248182058334,-0.026220161467790604
1761468251521424400,3.52442431640625,-0.05023596063256264,-0.11778513342142105,0.02916666492819786
1761468251531378200,3.534378173828125,-0.060553763061761856,-0.11866825819015503,0.08192599564790726
1761468251541332200,3.544332275390625,-0.07050919532775879,-0.11422770470380783,0.12636829912662506
1761468251551286300,3.554286376953125,-0.08224400132894516,-0.122645303606987,0.1617615520954132
1761468251561241000,3.564240966796875,-0.09499254822731018,-0.1375025361776352,0.18759740889072418
1761468251571195400,3.5741953125,-0.10872244089841843,-0.15557405352592468,0.20400984585285187
1761468251581149400,3.5841494140625,-0.12352801859378815,-0.17438103258609772,0.20688366889953613
1761468251591104300,3.594104248046875,-0.14179863035678864,-0.21809561550617218,0.1907823383808136
1761468251601058300,3.604058349609375,-0.15896163880825043,-0.2660050690174103,0.16215068101882935
1761468251611012000,3.61401220703125,-0.17884962260723114,-0.2919881045818329,0.12477172911167145
1761468251620966100,3.623966064453125,-0.18896324932575226,-0.2825876772403717,0.09100870788097382
1761468251630921500,3.63392138671875,-0.19730237126350403,-0.2852254807949066,0.055453963577747345
1761468251640875300,3.643875244140625,-0.22676679491996765,-0.2688979208469391,0.03539556637406349
1761468251650829300,3.653829345703125,-0.24826468527317047,-0.2322109490633011,0.027811991050839424
1761468251660783400,3.663783447265625,-0.27951979637145996,-0.21303565800189972,0.022869430482387543
1761468251670738200,3.67373828125,-0.31770583987236023,-0.17636066675186157,0.03040333278477192
1761468251680692200,3.683692138671875,-0.34299415349960327,-0.13205552101135254,0.0524284727871418
1761468251690646300,3.693646240234375,-0.36831924319267273,-0.06457814574241638,0.08195873349905014
1761468251700601300,3.703601318359375,-0.3823927044868469,0.03436388447880745,0.10095186531543732
1761468251710555400,3.713555419921875,-0.389285147190094,0.09496644884347916,0.09415940195322037
1761468251720509200,3.72350927734375,-0.39349186420440674,0.11010704934597015,0.039259135723114014
1761468251730463200,3.733463134765625,-0.3944571018218994,0.08783819526433945,-0.08309929817914963
1761468251740418300,3.743418212890625,-0.38349688053131104,0.025719959288835526,-0.26244404911994934
1761468251750372000,3.7533720703125,-0.37977221608161926,-0.048078179359436035,-0.43870460987091064
1761468251760326100,3.763326171875,-0.38381943106651306,-0.08715394139289856,-0.547534704208374
1761468251770280400,3.773280517578125,-0.3821423351764679,-0.026097003370523453,-0.5602566599845886
1761468251780235300,3.7832353515625,-0.3904538154602051,0.14114977419376373,-0.4659104347229004
1761468251790189300,3.793189208984375,-0.416525274515152,0.3795669972896576,-0.2686225175857544
1761468251800143400,3.803143310546875,-0.43793630599975586,0.6384813785552979,-0.007192784454673529
1761468251810097200,3.81309716796875,-0.4334160089492798,0.8334528803825378,0.26854783296585083
1761468251820052200,3.82305224609375,-0.4053494930267334,0.9440856575965881,0.528332531452179
1761468251830006300,3.83300634765625,-0.37309226393699646,0.986957311630249,0.73774653673172
1761468251839960300,3.842960205078125,-0.3275572955608368,0.9714012742042542,0.8731067776679993
1761468251849915400,3.852915283203125,-0.28256744146347046,0.841331422328949,0.9099414348602295
1761468251859869200,3.862869140625,-0.18948009610176086,0.5943999290466309,0.8728175163269043
1761468251869823200,3.8728232421875,-0.12037301063537598,0.3365457355976105,0.7438401579856873
1761468251879777300,3.88277734375,-0.11809014528989792,0.09172531962394714,0.5461321473121643
1761468251889732400,3.892732421875,-0.11033959686756134,-0.14380685985088348,0.3646586835384369
1761468251899686400,3.902686279296875,-0.12038956582546234,-0.2779686450958252,0.20437391102313995
1761468251909640200,3.91264013671875,-0.10716542601585388,-0.29821985960006714,0.08749604225158691
1761468251919594200,3.92259423828125,-0.058628786355257034,-0.25316503643989563,0.018777966499328613
1761468251929549300,3.93254931640625,-0.0008553294464945793,-0.21263180673122406,-0.005924808792769909
1761468251939503000,3.942503173828125,0.047044020146131516,-0.14082525670528412,0.02063303254544735
1761468251949457200,3.95245703125,0.07400873303413391,-0.04729420691728592,0.0767275020480156
1761468251959412200,3.962412109375,0.09370546787977219,0.04074270650744438,0.1353444755077362
1761468251969366300,3.9723662109375,0.10944622755050659,0.12456724047660828,0.18725049495697021
1761468251979320300,3.9823203125,0.10771304368972778,0.20370520651340485,0.21428796648979187
1761468251997361200,4.000361083984375,0.038522426038980484,0.2762671709060669,0.1809368133544922
1761468252007316200,4.010316162109375,-0.00863008014857769,0.28104978799819946,0.126257985830307
1761468252017270300,4.020270263671875,-0.04568849876523018,0.24390003085136414,0.05006866529583931
1761468252027224300,4.030224365234375,-0.0689779594540596,0.17202138900756836,-0.03394226357340813
1761468252037179100,4.04017919921875,-0.09574991464614868,0.09113505482673645,-0.12252618372440338
1761468252047133200,4.05013330078125,-0.13680103421211243,0.019556501880288124,-0.2095300555229187
1761468252057087200,4.060087158203125,-0.18576884269714355,-0.012274663895368576,-0.28128597140312195
1761468252067040500,4.07004052734375,-0.2363530397415161,-0.027068177238106728,-0.34129732847213745
1761468252076995300,4.079995361328125,-0.277713805437088,-0.05722155049443245,-0.38972237706184387
1761468252086949400,4.089949462890625,-0.3012321889400482,-0.09881017357110977,-0.4238640069961548
1761468252096903400,4.0999033203125,-0.2995679974555969,-0.17663492262363434,-0.4373643696308136
1761468252106857200,4.109857177734375,-0.26715967059135437,-0.2651245594024658,-0.43854889273643494
1761468252116812500,4.1198125,-0.2117249071598053,-0.33775800466537476,-0.42898309230804443
1761468252126766300,4.129766357421875,-0.14321985840797424,-0.3552170693874359,-0.40871500968933105
1761468252136720400,4.139720458984375,-0.08409528434276581,-0.282323956489563,-0.37393918633461
1761468252146675500,4.149675537109375,-0.037174444645643234,-0.13925331830978394,-0.33419522643089294
1761468252156629200,4.159629150390625,-0.011045902967453003,0.02876337617635727,-0.2929726839065552
1761468252166583300,4.169583251953125,0.0010179863311350346,0.16003075242042542,-0.26055943965911865
1761468252176537300,4.179537353515625,0.00021211383864283562,0.2528964877128601,-0.24624229967594147
1761468252186492400,4.189492431640625,-0.013340238481760025,0.3020657002925873,-0.23802320659160614
1761468252196446500,4.199446533203125,-0.03855770826339722,0.3012486398220062,-0.24066878855228424
1761468252206400500,4.209400390625,-0.07195815443992615,0.26796823740005493,-0.25871536135673523
1761468252216354300,4.219354248046875,-0.09899269789457321,0.2211567908525467,-0.293105810880661
1761468252226309400,4.229309326171875,-0.11340394616127014,0.1877613067626953,-0.33101990818977356
1761468252236263200,4.23926318359375,-0.11518453806638718,0.16506583988666534,-0.35626694560050964
1761468252246217200,4.24921728515625,-0.10891184955835342,0.13294380903244019,-0.3644503653049469
1761468252256172500,4.259172607421875,-0.10194715112447739,0.10404371470212936,-0.34136077761650085
1761468252266126300,4.269126220703125,-0.09666676074266434,0.09968724846839905,-0.29535871744155884
1761468252276080400,4.279080322265625,-0.0838170051574707,0.12350549548864365,-0.23809781670570374
1761468252286034400,4.289034423828125,-0.061733994632959366,0.12568314373493195,-0.18998703360557556
1761468252295989200,4.2989892578125,-0.03264348953962326,0.0948362797498703,-0.155342236161232
1761468252305943300,4.308943359375,0.002386214677244425,0.04762427136301994,-0.1297823041677475
1761468252315897300,4.3188974609375,0.041179947555065155,-0.007370535284280777,-0.10859951376914978
1761468252325851400,4.328851318359375,0.0815163254737854,-0.06066284701228142,-0.08102467656135559
1761468252336428300,4.33942822265625,0.12176947295665741,-0.10515254735946655,-0.05164574831724167
1761468252346383400,4.34938330078125,0.16252227127552032,-0.12306902557611465,-0.02334652841091156
1761468252356337400,4.35933740234375,0.20732755959033966,-0.12416864931583405,0.00818822905421257
1761468252366291200,4.369291259765625,0.25170236825942993,-0.13184459507465363,0.046274978667497635
1761468252376245200,4.379245361328125,0.296493798494339,-0.12744824588298798,0.09439270198345184
1761468252386200300,4.389200439453125,0.3410656452178955,-0.09058911353349686,0.15773670375347137
1761468252396154400,4.399154296875,0.38699451088905334,-0.03723960742354393,0.23729464411735535
1761468252406108400,4.4091083984375,0.42332103848457336,0.029080599546432495,0.3219808042049408
1761468252416063200,4.419063232421875,0.44812625646591187,0.07088024169206619,0.40070438385009766
1761468252426017300,4.429017333984375,0.46598339080810547,0.08127095550298691,0.45390594005584717
1761468252435971300,4.438971435546875,0.48099616169929504,0.08115697652101517,0.4717664420604706
1761468252445925000,4.448925048828125,0.4905026853084564,0.07237153500318527,0.45353981852531433
1761468252455880400,4.45888037109375,0.5051013231277466,0.04153372719883919,0.412502646446228
1761468252465834500,4.46883447265625,0.5253507494926453,-0.01622013747692108,0.3677271604537964
1761468252475788300,4.478788330078125,0.5523187518119812,-0.08151605725288391,0.3455832302570343
1761468252485742300,4.488742431640625,0.5773612260818481,-0.13438326120376587,0.345486044883728
1761468252495697200,4.498697265625,0.5905753374099731,-0.13846507668495178,0.3638900816440582
1761468252505651200,4.508651123046875,0.5923458933830261,-0.12123174965381622,0.38750940561294556
1761468252515605500,4.51860546875,0.5825930833816528,-0.10432600229978561,0.3882175385951996
1761468252525560300,4.528560302734375,0.5718593001365662,-0.08984921127557755,0.34444382786750793
1761468252535514400,4.538514404296875,0.5631284117698669,-0.0784628614783287,0.25822290778160095
1761468252545468400,4.548468505859375,0.5438226461410522,-0.08869487047195435,0.15997077524662018
1761468252555422200,4.558422119140625,0.5105538964271545,-0.13192516565322876,0.0700608566403389
1761468252565377300,4.568377197265625,0.46395811438560486,-0.19587798416614532,0.010018090717494488
1761468252575331300,4.578331298828125,0.409852534532547,-0.2651207149028778,-0.02056778222322464
1761468252585285400,4.588285400390625,0.3508756458759308,-0.30293792486190796,-0.017249809578061104
1761468252595240400,4.598240478515625,0.2973373234272003,-0.2814778983592987,0.028894782066345215
1761468252605194200,4.6081943359375,0.2606619894504547,-0.1964922398328781,0.10742015391588211
1761468252615148300,4.618148193359375,0.24450565874576569,-0.044371142983436584,0.21433381736278534
1761468252625102300,4.628102294921875,0.24240748584270477,0.13271291553974152,0.36004769802093506
1761468252635057400,4.638057373046875,0.26174044609069824,0.30048486590385437,0.5293006300926208
1761468252645011500,4.648011474609375,0.30207139253616333,0.43459638953208923,0.6947994232177734
1761468252654965500,4.657965576171875,0.3324652314186096,0.5115782618522644,0.7980815768241882
1761468252664920300,4.66792041015625,0.37127700448036194,0.5155606269836426,0.8223670721054077
1761468252674874400,4.677874267578125,0.4116763472557068,0.46872973442077637,0.77057284116745
1761468252684828200,4.687828125,0.4461451470851898,0.3808942437171936,0.6578311920166016
1761468252694782200,4.6977822265625,0.4732827842235565,0.2734071910381317,0.5203614830970764
1761468252704737500,4.707737548828125,0.4907490611076355,0.15712547302246094,0.38119760155677795
1761468252714691300,4.71769140625,0.5069823861122131,0.02234155312180519,0.2551842927932739
1761468252724645400,4.727645263671875,0.5280784368515015,-0.1301042139530182,0.16063803434371948
1761468252734600200,4.73760009765625,0.5408844947814941,-0.25237447023391724,0.10369433462619781
1761468252744554200,4.74755419921875,0.5491083264350891,-0.30170586705207825,0.07842910289764404
1761468252754508300,4.75750830078125,0.5523104667663574,-0.2953643500804901,0.0702795684337616
1761468252764462300,4.76746240234375,0.5558295249938965,-0.2663767337799072,0.07112691551446915
1761468252774417400,4.77741748046875,0.5544193387031555,-0.20918722450733185,0.07182519137859344
1761468252784371500,4.787371337890625,0.5505959987640381,-0.10865142941474915,0.05925864726305008
1761468252794325200,4.7973251953125,0.5431058406829834,-0.006109876558184624,0.009423715993762016
1761468252804280300,4.8072802734375,0.5282652378082275,0.056099023669958115,-0.07471500337123871
1761468252814234400,4.817234375,0.5081046223640442,0.07901792973279953,-0.1697365790605545
1761468252824188200,4.827188232421875,0.4774918556213379,0.05951354652643204,-0.25923869013786316
1761468252834142500,4.837142578125,0.4370807707309723,-0.0031471713446080685,-0.34702232480049133
1761468252844097300,4.84709716796875,0.3966277241706848,-0.10624661296606064,-0.42457863688468933
1761468252854051300,4.85705126953125,0.36075812578201294,-0.24880243837833405,-0.4755067825317383
1761468252864005400,4.86700537109375,0.3366037905216217,-0.41323986649513245,-0.4988217055797577
1761468252873959400,4.87695947265625,0.3260752558708191,-0.5489475727081299,-0.4938053786754608
1761468252883914200,4.886914306640625,0.3274489641189575,-0.6299137473106384,-0.4623624086380005
1761468252893868500,4.89686865234375,0.3269703984260559,-0.6295661926269531,-0.41191548109054565
1761468252903822300,4.906822265625,0.32171356678009033,-0.5414478778839111,-0.34671255946159363
1761468252913777400,4.91677734375,0.30742090940475464,-0.3831210732460022,-0.2811655104160309
1761468252923731200,4.926731201171875,0.29531151056289673,-0.18323393166065216,-0.22168874740600586
1761468252933685200,4.936685302734375,0.286251425743103,0.027745947241783142,-0.17819878458976746
1761468252943639300,4.946639404296875,0.27309292554855347,0.22469626367092133,-0.15349455177783966
1761468252953594400,4.956594482421875,0.2452077567577362,0.3967686891555786,-0.13712862133979797
1761468252963548400,4.96654833984375,0.21559332311153412,0.5276498794555664,-0.11808472871780396
1761468252973502500,4.97650244140625,0.18952098488807678,0.6098132133483887,-0.10707415640354156
1761468252983457300,4.986457275390625,0.1559745818376541,0.6157922744750977,-0.11371101438999176
1761468252993411300,4.996411376953125,0.11600319296121597,0.5289010405540466,-0.1371460258960724
1761468253003365400,5.006365478515625,0.05992932245135307,0.339701384305954,-0.17890726029872894
1761468253013319200,5.016319091796875,-0.007384739350527525,0.09802377969026566,-0.2542853355407715
1761468253023274500,5.0262744140625,-0.06938712298870087,-0.08311214298009872,-0.3491854965686798
1761468253033228300,5.036228271484375,-0.11749899387359619,-0.18226616084575653,-0.46664392948150635
1761468253043182300,5.046182373046875,-0.1528436690568924,-0.22554510831832886,-0.6137906908988953
1761468253053137400,5.056137451171875,-0.17096249759197235,-0.19569319486618042,-0.7802505493164062
1761468253063091200,5.06609130859375,-0.18203669786453247,-0.120425283908844,-0.9274318814277649
1761468253073046500,5.076046630859375,-0.19226349890232086,-0.06946809589862823,-1.0005700588226318
1761468253083000300,5.086000244140625,-0.1939098834991455,-0.08707644790410995,-1.0040608644485474
1761468253092955400,5.095955322265625,-0.1909111589193344,-0.16625434160232544,-0.9371791481971741
1761468253102909400,5.105909423828125,-0.19249846041202545,-0.24418140947818756,-0.8111557364463806
1761468253112863200,5.11586328125,-0.20408374071121216,-0.25008511543273926,-0.6321729421615601
1761468253122818600,5.125818603515625,-0.20667096972465515,-0.13172489404678345,-0.38890114426612854
1761468253132772400,5.1357724609375,-0.1959458887577057,0.11379964649677277,-0.0936894565820694
1761468253142726400,5.145726318359375,-0.16266639530658722,0.4014543890953064,0.20017549395561218
1761468253152680400,5.155680419921875,-0.12191790342330933,0.647535502910614,0.4086964726448059
1761468253162635300,5.16563525390625,-0.07349846512079239,0.8383948802947998,0.5245809555053711
1761468253172589300,5.17558935546875,-0.023120513185858727,0.9841326475143433,0.5579417943954468
1761468253182543400,5.18554345703125,0.022902661934494972,1.0416611433029175,0.5303898453712463
1761468253192498400,5.19549853515625,0.049025874584913254,0.9958335161209106,0.4544737935066223
1761468253202452500,5.205452392578125,0.07714128494262695,0.851039707660675,0.3428365886211395
1761468253212406300,5.21540625,0.08258931338787079,0.6311239004135132,0.20375779271125793
1761468253222360300,5.2253603515625,0.06097472831606865,0.348090797662735,0.06476178765296936
1761468253232315400,5.2353154296875,0.026883069425821304,0.03887275606393814,-0.041598476469516754
1761468253242269200,5.245269287109375,-0.019927866756916046,-0.2771896421909332,-0.08984192460775375
1761468253252223500,5.255223388671875,-0.0440656952559948,-0.573883593082428,-0.10686644911766052
1761468253262178300,5.26517822265625,-0.04339572414755821,-0.8240090608596802,-0.1323569118976593
1761468253272132400,5.27513232421875,-0.014811486005783081,-0.9779030084609985,-0.18223898112773895
1761468253282086400,5.28508642578125,0.029564237222075462,-1.0109869241714478,-0.22817263007164001
1761468253292040400,5.29504052734375,0.06709057092666626,-0.9568769931793213,-0.26768115162849426
1761468253301995300,5.304995361328125,0.08391983062028885,-0.8517080545425415,-0.2898745834827423
1761468253311949600,5.314949462890625,0.07788723707199097,-0.7573676705360413,-0.29898980259895325
1761468253321903400,5.3249033203125,0.04584995284676552,-0.7151930928230286,-0.2802521586418152
1761468253331858400,5.3348583984375,-0.021028947085142136,-0.6393614411354065,-0.216067835688591
1761468253341812500,5.3448125,-0.1212238222360611,-0.4949967563152313,-0.10384664684534073
1761468253351766300,5.354766357421875,-0.2725294530391693,-0.31638893485069275,-0.013540719635784626
1761468253361720300,5.36472021484375,-0.47733452916145325,-0.1488444060087204,0.026678849011659622
1761468253371675400,5.37467529296875,-0.6737831234931946,-0.009588518179953098,0.04403573274612427
1761468253381629400,5.38462939453125,-0.8219608664512634,0.060527268797159195,0.07000696659088135
1761468253391583500,5.39458349609375,-0.9493268132209778,0.07270936667919159,0.16032274067401886
1761468253401538300,5.404538330078125,-1.0512524843215942,0.07733870297670364,0.33101746439933777
1761468253411492400,5.414492431640625,-1.09572434425354,0.10875547677278519,0.5540835857391357
1761468253421446400,5.4244462890625,-1.0914652347564697,0.1887711137533188,0.7726858258247375
1761468253431400200,5.434400146484375,-1.045200228691101,0.3107593357563019,0.9648044109344482
1761468253441355500,5.44435546875,-0.961062490940094,0.43986618518829346,1.1172771453857422
1761468253451309600,5.4543095703125,-0.8653386235237122,0.5442823171615601,1.2192471027374268
1761468253461263400,5.464263427734375,-0.7649869322776794,0.6288317441940308,1.269102692604065
1761468253471218400,5.474218505859375,-0.651887834072113,0.6557680368423462,1.2712057828903198
1761468253481172200,5.484172119140625,-0.5239014625549316,0.6047825813293457,1.2046613693237305
1761468253491126300,5.494126220703125,-0.4014085829257965,0.48459652066230774,1.072808861732483
1761468253501080300,5.504080322265625,-0.32356497645378113,0.33495646715164185,0.879440188407898
1761468253511035400,5.514035400390625,-0.29075244069099426,0.17420247197151184,0.6412760615348816
1761468253520989400,5.523989501953125,-0.2805730998516083,-0.007971549406647682,0.38646677136421204
1761468253530943500,5.533943603515625,-0.2715393900871277,-0.16715720295906067,0.16607312858104706
1761468253540898300,5.543898193359375,-0.2591964304447174,-0.30071061849594116,0.007524348795413971
1761468253550852400,5.553852294921875,-0.2358655482530594,-0.440218985080719,-0.09345872700214386
1761468253560806400,5.563806396484375,-0.2169485241174698,-0.5801393985748291,-0.1404864639043808
1761468253570760400,5.573760498046875,-0.20484445989131927,-0.6703363656997681,-0.13859695196151733
1761468253580715500,5.583715576171875,-0.2010023593902588,-0.6759251356124878,-0.09292754530906677
1761468253590669300,5.59366943359375,-0.1994824856519699,-0.5958185791969299,-0.022167889401316643
1761468253600623400,5.603623291015625,-0.20626571774482727,-0.4392240643501282,0.037718676030635834
1761468253610578200,5.613578125,-0.22121377289295197,-0.23081548511981964,0.06632795184850693
1761468253620532200,5.6235322265625,-0.23496918380260468,-0.03395972028374672,0.05319319665431976
1761468253630486500,5.633486572265625,-0.24466095864772797,0.11328884959220886,-0.005366785451769829
1761468253640440600,5.643440673828125,-0.2542929947376251,0.2049829512834549,-0.09535031765699387
1761468253650395400,5.6533955078125,-0.25199440121650696,0.23551024496555328,-0.2126079648733139
1761468253660349400,5.663349365234375,-0.2356337457895279,0.202255979180336,-0.3395423889160156
1761468253670303200,5.67330322265625,-0.20733845233917236,0.13534513115882874,-0.45468470454216003
1761468253680258300,5.68325830078125,-0.18400415778160095,0.061113450676202774,-0.5352363586425781
1761468253690212600,5.693212646484375,-0.14954179525375366,-0.004874620586633682,-0.5613318681716919
1761468253700166400,5.70316650390625,-0.10138968378305435,-0.03990088403224945,-0.526867151260376
1761468253710120400,5.713120361328125,-0.03137757256627083,-0.0351889543235302,-0.44010910391807556
1761468253720075300,5.7230751953125,0.035946235060691833,0.0008196070557460189,-0.3124971389770508
1761468253730029300,5.733029296875,0.08281759917736053,0.0706988200545311,-0.17734169960021973
1761468253739983400,5.7429833984375,0.10526794195175171,0.14759577810764313,-0.06356289982795715
1761468253749938400,5.7529384765625,0.10582134872674942,0.18873682618141174,0.004270738456398249
1761468253759892500,5.762892578125,0.09284152090549469,0.1854739487171173,0.03408727049827576
1761468253769846500,5.772846435546875,0.07357248663902283,0.14886747300624847,0.022121423855423927
1761468253779800300,5.78280029296875,0.05834220349788666,0.10525592416524887,-0.008887788280844688
1761468253789755400,5.79275537109375,0.0592452809214592,0.08075430989265442,-0.05071566253900528
1761468253799709400,5.80270947265625,0.08365301787853241,0.07376117259263992,-0.09026940166950226
1761468253809663200,5.812663330078125,0.11636755615472794,0.050605252385139465,-0.12419460713863373
1761468253819618600,5.82261865234375,0.14943374693393707,-0.0011569502530619502,-0.15067648887634277
1761468253829572400,5.832572265625,0.1726437211036682,-0.05107098072767258,-0.15808993577957153
1761468253839526400,5.8425263671875,0.18896576762199402,-0.0958709865808487,-0.1348954439163208
1761468253849480400,5.85248046875,0.19990868866443634,-0.12194573134183884,-0.101661317050457
1761468253859435300,5.862435302734375,0.21986153721809387,-0.12110687047243118,-0.07652883976697922
1761468253869389300,5.872389404296875,0.23140473663806915,-0.11149419099092484,-0.059444133192300797
1761468253879343600,5.882343505859375,0.2410101741552353,-0.11312160640954971,-0.04797731712460518
1761468253889298400,5.89229833984375,0.257490336894989,-0.11368700116872787,-0.032195158302783966
1761468253899252500,5.90225244140625,0.27319782972335815,-0.11919873207807541,-0.017435714602470398
1761468253909206300,5.912206298828125,0.28737542033195496,-0.12643109261989594,-0.00974343903362751
1761468253919160300,5.922160400390625,0.2985854744911194,-0.14374668896198273,-0.020230701193213463
1761468253929115400,5.932115478515625,0.29739901423454285,-0.17293334007263184,-0.03915965184569359
1761468253939069400,5.9420693359375,0.29389500617980957,-0.1952998787164688,-0.0577346496284008
1761468253949023500,5.9520234375,0.29212427139282227,-0.208865225315094,-0.07153354585170746
1761468253958978300,5.961978271484375,0.2972637414932251,-0.20498208701610565,-0.07634562999010086
1761468253968932400,5.971932373046875,0.30297648906707764,-0.15816211700439453,-0.0616828016936779
1761468253978886400,5.981886474609375,0.30871349573135376,-0.0847417563199997,-0.021837983280420303
1761468253988840400,5.99184033203125,0.3119172751903534,-0.009023825637996197,0.04267629608511925
1761468253998795500,6.00179541015625,0.30718284845352173,0.07910624146461487,0.12531998753547668
1761468254008749600,6.01174951171875,0.29495149850845337,0.17623119056224823,0.21762408316135406
1761468254018703400,6.021703369140625,0.2827496826648712,0.23992496728897095,0.31379616260528564
1761468254028658400,6.031658447265625,0.2756726145744324,0.2573753297328949,0.40366455912590027
1761468254038612500,6.041612548828125,0.2765863239765167,0.27231085300445557,0.48587122559547424
1761468254048566300,6.051566162109375,0.28695401549339294,0.31847062706947327,0.556831419467926
1761468254058520300,6.061520263671875,0.2900032699108124,0.3234105706214905,0.5871177315711975
1761468254068474600,6.071474609375,0.28272777795791626,0.21886660158634186,0.5544924139976501
1761468254078428400,6.081428466796875,0.26884782314300537,0.0602211058139801,0.4445210099220276
1761468254088382500,6.091382568359375,0.26387354731559753,-0.13777373731136322,0.30487924814224243
1761468254098337500,6.101337646484375,0.245792418718338,-0.3207060694694519,0.20039376616477966
1761468254108291600,6.11129150390625,0.2201341986656189,-0.4589014947414398,0.15690568089485168
1761468254118245600,6.12124560546875,0.19335335493087769,-0.54343181848526,0.16424775123596191
1761468254128200400,6.131200439453125,0.16589882969856262,-0.5556266903877258,0.21294258534908295
1761468254138154500,6.141154541015625,0.1393311768770218,-0.44376325607299805,0.2890493869781494
1761468254148108500,6.151108642578125,0.11605273932218552,-0.2276567816734314,0.3728761076927185
1761468254158062600,6.1610625,0.09891166538000107,0.05366559326648712,0.4547460675239563
1761468254168017700,6.171017578125,0.08836927264928818,0.35065171122550964,0.5091502070426941
1761468254177971700,6.1809716796875,0.0779012143611908,0.6261380910873413,0.5347191095352173
1761468254187925500,6.190925537109375,0.07780694216489792,0.8434246182441711,0.5329907536506653
1761468254197880600,6.200880615234375,0.08299438655376434,0.9724187254905701,0.5186809301376343
1761468254207834400,6.21083447265625,0.10727789252996445,0.9904925227165222,0.491643488407135
1761468254217788700,6.22078857421875,0.15330424904823303,0.8878383040428162,0.4473913609981537
1761468254227742700,6.23074267578125,0.21000906825065613,0.7027512788772583,0.38493409752845764
1761468254237697500,6.240697509765625,0.2726863920688629,0.4585948586463928,0.31594839692115784
1761468254247651600,6.250651611328125,0.3317931294441223,0.17899996042251587,0.24223528802394867
1761468254257605600,6.260605712890625,0.3811328709125519,-0.10402035713195801,0.18102885782718658
1761468254267560400,6.270560546875,0.40112388134002686,-0.3318239450454712,0.13279661536216736
1761468254277514800,6.2805146484375,0.3903083801269531,-0.4757024943828583,0.08594795316457748
1761468254287468500,6.290468505859375,0.3568662405014038,-0.5364289879798889,0.034135621041059494
1761468254297422600,6.300422607421875,0.3081376552581787,-0.5327411890029907,-0.01821645349264145
1761468254307377700,6.310377685546875,0.2562851011753082,-0.4762217402458191,-0.07227356731891632
1761468254317331500,6.32033154296875,0.22426629066467285,-0.3753768801689148,-0.12404141575098038
1761468254327285500,6.330285400390625,0.21479395031929016,-0.2450079619884491,-0.17820239067077637
1761468254337240600,6.340240478515625,0.230483740568161,-0.1288759410381317,-0.22711659967899323
1761468254347194600,6.350194580078125,0.26290827989578247,-0.04420606791973114,-0.27238553762435913
1761468254357148700,6.360148681640625,0.3024626672267914,0.013572112657129765,-0.3145020008087158
1761468254367103500,6.370103515625,0.33287811279296875,0.033345818519592285,-0.3630407750606537
1761468254377057500,6.3800576171875,0.34856629371643066,0.01719982922077179,-0.4123303294181824
1761468254387011600,6.390011474609375,0.354401558637619,-0.00711909169331193,-0.4494113624095917
1761468254396965400,6.39996533203125,0.3491981327533722,-0.03935450315475464,-0.47361016273498535
1761468254406920700,6.409920654296875,0.34101158380508423,-0.07369783520698547,-0.49308374524116516
1761468254416874800,6.419874755859375,0.3315075635910034,-0.10329221189022064,-0.5035560727119446
1761468254426828500,6.42982861328125,0.3158239424228668,-0.11018633842468262,-0.5023331642150879
1761468254436783600,6.43978369140625,0.29010969400405884,-0.08155015856027603,-0.49008768796920776
1761468254446737400,6.4497373046875,0.2584068775177002,-0.019072670489549637,-0.48087793588638306
1761468254456691500,6.45969140625,0.22148199379444122,0.05969701707363129,-0.47602641582489014
1761468254466645800,6.469645751953125,0.18515194952487946,0.15106847882270813,-0.4655492603778839
1761468254476600600,6.4796005859375,0.15367931127548218,0.24146679043769836,-0.453201562166214
1761468254486554600,6.4895546875,0.1335306316614151,0.3104383945465088,-0.4429611563682556
1761468254496508700,6.4995087890625,0.11585935205221176,0.33745768666267395,-0.43862777948379517
1761468254506463500,6.50946337890625,0.08821360766887665,0.3316168487071991,-0.4409215450286865
1761468254516417500,6.51941748046875,0.05179084837436676,0.3068665564060211,-0.44605711102485657
1761468254526371800,6.529371826171875,0.00483905291184783,0.26604801416397095,-0.44785076379776
1761468254536326700,6.53932666015625,-0.0477486327290535,0.1939319670200348,-0.4452595114707947
1761468254546280700,6.54928076171875,-0.10769958794116974,0.09229109436273575,-0.43710145354270935
1761468254556234500,6.559234375,-0.16737598180770874,-0.03768036141991615,-0.42563724517822266
1761468254566188500,6.5691884765625,-0.21749825775623322,-0.17624622583389282,-0.41210490465164185
1761468254576143600,6.5791435546875,-0.2543773651123047,-0.28680673241615295,-0.3971721827983856
1761468254586097700,6.58909765625,-0.2798832654953003,-0.35397592186927795,-0.38279539346694946
1761468254596051700,6.5990517578125,-0.2918654978275299,-0.4034520983695984,-0.3740580677986145
1761468254606006500,6.609006591796875,-0.30176472663879395,-0.4444940686225891,-0.36330848932266235
1761468254615960600,6.618960693359375,-0.3089614808559418,-0.45267748832702637,-0.33713528513908386
1761468254625914600,6.62891455078125,-0.32043251395225525,-0.4538221061229706,-0.29500752687454224
1761468254635869400,6.638869384765625,-0.33105507493019104,-0.4493403136730194,-0.23529201745986938
1761468254645823700,6.64882373046875,-0.3336372971534729,-0.4368727207183838,-0.16459068655967712
1761468254655777800,6.65877783203125,-0.33767732977867126,-0.4099248945713043,-0.08862339705228806
1761468254665731600,6.668731689453125,-0.34889668226242065,-0.3720526099205017,-0.021571924909949303
1761468254675686700,6.678686767578125,-0.3706624209880829,-0.32518672943115234,0.031199820339679718
1761468254685640400,6.688640380859375,-0.4035671055316925,-0.2745025157928467,0.06243923306465149
1761468254695594500,6.698594482421875,-0.44017642736434937,-0.20892293751239777,0.07312598079442978
1761468254705549800,6.7085498046875,-0.4606747627258301,-0.10925359278917313,0.07329988479614258
1761468254715503600,6.718503662109375,-0.4694298803806305,-0.0008001481182873249,0.07839977741241455
1761468254725457700,6.728457763671875,-0.47974351048469543,0.09708087146282196,0.0834246277809143
1761468254735412500,6.73841259765625,-0.49309754371643066,0.18518678843975067,0.08435888588428497
1761468254745366500,6.748366455078125,-0.5082716941833496,0.25034740567207336,0.09076005965471268
1761468254755320600,6.758320556640625,-0.5169810652732849,0.28108981251716614,0.10272690653800964
1761468254765274600,6.768274658203125,-0.511217474937439,0.2766900062561035,0.12682291865348816
1761468254775229700,6.778229736328125,-0.5032796263694763,0.20354101061820984,0.14925876259803772
1761468254785183700,6.788183837890625,-0.4967593848705292,0.07967179268598557,0.14633993804454803
1761468254795137500,6.798137451171875,-0.4921129047870636,-0.0457608625292778,0.11899924278259277
1761468254805092600,6.808092529296875,-0.5096607804298401,-0.1302001029253006,0.05752043426036835
1761468254815046700,6.818046630859375,-0.5474874973297119,-0.1577831506729126,-0.03345436230301857
1761468254825000400,6.82800048828125,-0.6023550033569336,-0.16394543647766113,-0.13661882281303406
1761468254834954500,6.83795458984375,-0.6620730757713318,-0.16759005188941956,-0.22816215455532074
1761468254844909600,6.84790966796875,-0.7061912417411804,-0.14829517900943756,-0.27392297983169556
1761468254854863600,6.857863525390625,-0.725529134273529,-0.10004281997680664,-0.2614014446735382
1761468254864817700,6.867817626953125,-0.7201911211013794,-0.04602193087339401,-0.20118656754493713
1761468254874772500,6.8777724609375,-0.6819462776184082,0.0049542877823114395,-0.10264842957258224
1761468254884726500,6.8877265625,-0.6229801774024963,0.05981913581490517,0.03742239624261856
1761468254894680600,6.8976806640625,-0.5488783121109009,0.09717027842998505,0.1885986477136612
1761468254904635600,6.9076357421875,-0.4626592695713043,0.1204146146774292,0.32535621523857117
1761468254914589700,6.917589599609375,-0.3717344105243683,0.1386028230190277,0.43031689524650574
1761468254924543700,6.927543701171875,-0.2765706181526184,0.1498725265264511,0.4843638837337494
1761468254934497500,6.93749755859375,-0.18335489928722382,0.1468595564365387,0.49483075737953186
1761468254944452600,6.94745263671875,-0.09923762828111649,0.14006662368774414,0.47836148738861084
1761468254954406400,6.957406494140625,-0.03547123074531555,0.13714732229709625,0.46026989817619324
1761468254964360700,6.967360595703125,0.007542016450315714,0.12402884662151337,0.45340535044670105
1761468254974315500,6.9773154296875,0.0320245660841465,0.11175224930047989,0.4598352909088135
1761468254984269600,6.98726953125,0.041791174560785294,0.09609126299619675,0.4696096181869507
1761468254994223600,6.9972236328125,0.04068857431411743,0.07349079847335815,0.4809197187423706
1761468255004178400,7.007178466796875,0.029810363426804543,0.036615338176488876,0.48444628715515137
1761468255014132500,7.017132568359375,0.005844310391694307,-0.027013704180717468,0.471325159072876
1761468255024086800,7.027086669921875,-0.03370709717273712,-0.09689798206090927,0.4395557641983032
1761468255034040600,7.03704052734375,-0.09029807150363922,-0.15201683342456818,0.38599249720573425
1761468255043995600,7.04699560546875,-0.15845315158367157,-0.19440850615501404,0.317123144865036
1761468255053949700,7.05694970703125,-0.2270353138446808,-0.21389585733413696,0.23713167011737823
1761468255063903500,7.066903564453125,-0.2977302372455597,-0.20560277998447418,0.14477431774139404
1761468255073859300,7.076859375,-0.36223161220550537,-0.18843242526054382,0.040980711579322815
1761468255083813400,7.0868134765625,-0.41243112087249756,-0.17504125833511353,-0.06710873544216156
1761468255093767400,7.096767333984375,-0.4383336901664734,-0.13828937709331512,-0.1703733652830124
1761468255103722200,7.10672216796875,-0.43663832545280457,-0.08068307489156723,-0.25218355655670166
1761468255113676300,7.11667626953125,-0.4209677577018738,-0.026311427354812622,-0.2972753942012787
1761468255123630300,7.12663037109375,-0.3887176513671875,0.0025005126371979713,-0.31095975637435913
1761468255133584400,7.13658447265625,-0.35482558608055115,0.01993098296225071,-0.29299691319465637
1761468255143539500,7.14653955078125,-0.33114928007125854,0.03082277998328209,-0.2586323022842407
1761468255153493500,7.156493408203125,-0.3244873285293579,0.04085271805524826,-0.2207459658384323
1761468255163447300,7.166447265625,-0.33012551069259644,0.05860162153840065,-0.19198675453662872
1761468255173402400,7.17640234375,-0.33794525265693665,0.08359985053539276,-0.1804923415184021
1761468255183356200,7.186356201171875,-0.34152957797050476,0.1062132865190506,-0.18977399170398712
1761468255193310500,7.196310546875,-0.34178465604782104,0.12122946232557297,-0.21936896443367004
1761468255203265500,7.206265625,-0.3313834071159363,0.14963047206401825,-0.258452445268631
1761468255213219300,7.21621923828125,-0.318448930978775,0.19224728643894196,-0.29319727420806885
1761468255223173400,7.22617333984375,-0.3072955906391144,0.2157219797372818,-0.31266018748283386
1761468255233127400,7.23612744140625,-0.2977752387523651,0.204190194606781,-0.3145473301410675
1761468255243082200,7.246082275390625,-0.28062209486961365,0.17573805153369904,-0.2922912836074829
1761468255253036500,7.25603662109375,-0.2662768065929413,0.1341523975133896,-0.253476619720459
1761468255262990600,7.265990478515625,-0.25588300824165344,0.07748619467020035,-0.2037636637687683
1761468255272945400,7.2759453125,-0.24799105525016785,0.01730293594300747,-0.16095583140850067
1761468255282899500,7.2858994140625,-0.24203649163246155,-0.046576712280511856,-0.1306067258119583
1761468255292853200,7.295853271484375,-0.24977248907089233,-0.0846749097108841,-0.11055080592632294
1761468255302808300,7.305808349609375,-0.26596319675445557,-0.09647883474826813,-0.10977821797132492
1761468255312762600,7.3157626953125,-0.27529123425483704,-0.10233072936534882,-0.12863698601722717
1761468255322716400,7.32571630859375,-0.2799115478992462,-0.09258382022380829,-0.15957386791706085
1761468255332670500,7.33567041015625,-0.28856849670410156,-0.06541901081800461,-0.19550225138664246
1761468255342625300,7.345625244140625,-0.29722535610198975,-0.031453583389520645,-0.22970443964004517
1761468255352579300,7.355579345703125,-0.30606260895729065,-0.006719309836626053,-0.252034068107605
1761468255362533400,7.365533447265625,-0.310036838054657,-0.0002789876307360828,-0.2572517395019531
1761468255372488400,7.375488525390625,-0.29409682750701904,0.019005535170435905,-0.22122418880462646
1761468255382442500,7.3854423828125,-0.2668471038341522,0.07177340984344482,-0.15063391625881195
1761468255392396500,7.395396484375,-0.2365783303976059,0.13373568654060364,-0.06487496942281723
1761468255402351400,7.405351318359375,-0.20092792809009552,0.1889563351869583,0.021201860159635544
1761468255412305400,7.415305419921875,-0.16979247331619263,0.22869212925434113,0.10432934761047363
1761468255422259500,7.425259521484375,-0.14264287054538727,0.25100091099739075,0.16049674153327942
1761468255432213200,7.435213134765625,-0.11804495751857758,0.25492507219314575,0.1860303282737732
1761468255442168600,7.44516845703125,-0.08836615830659866,0.23845794796943665,0.19743824005126953
1761468255452122400,7.455122314453125,-0.05485692247748375,0.19924569129943848,0.1997862309217453
1761468255462076400,7.465076416015625,-0.01875218190252781,0.14769195020198822,0.19163696467876434
1761468255472031200,7.47503125,0.016529759392142296,0.09696318209171295,0.18406525254249573
1761468255481985300,7.4849853515625,0.05785030499100685,0.0480174794793129,0.19383078813552856
1761468255491939300,7.494939208984375,0.09755959361791611,0.005567818880081177,0.23504352569580078
1761468255501894400,7.504894287109375,0.1340307742357254,-0.0026885131374001503,0.30363377928733826
1761468255511848400,7.514848388671875,0.1636490672826767,0.0277238842099905,0.38440069556236267
1761468255521802500,7.524802490234375,0.18356071412563324,0.09623849391937256,0.4569430947303772
1761468255531757300,7.53475732421875,0.19860602915287018,0.17903733253479004,0.4997028708457947
1761468255541711400,7.54471142578125,0.21286378800868988,0.23163822293281555,0.48764941096305847
1761468255551665400,7.55466552734375,0.21409152448177338,0.21795690059661865,0.4221261739730835
1761468255561619200,7.564619140625,0.2059188187122345,0.13032957911491394,0.3066065013408661
1761468255571574500,7.574574462890625,0.1902836412191391,-0.013225064612925053,0.17599590122699738
1761468255581528300,7.5845283203125,0.17460748553276062,-0.19583748281002045,0.08677122741937637
1761468255591482400,7.594482421875,0.15991704165935516,-0.40126508474349976,0.07482707500457764
1761468255601437400,7.6044375,0.15121649205684662,-0.5929141640663147,0.13737459480762482
1761468255611391200,7.61439111328125,0.1482684314250946,-0.6738973259925842,0.2806170880794525
1761468255621345300,7.62434521484375,0.15225784480571747,-0.5690063238143921,0.466185599565506
1761468255631300400,7.63430029296875,0.15846902132034302,-0.30856558680534363,0.6532775163650513
1761468255641254400,7.64425439453125,0.18350353837013245,0.017350196838378906,0.8152807950973511
1761468255651208400,7.65420849609375,0.21282906830310822,0.3221912682056427,0.9226818084716797
1761468255661162500,7.66416259765625,0.2401999682188034,0.5378431081771851,0.9650515913963318
1761468255671117300,7.674117431640625,0.24880295991897583,0.637706995010376,0.9476773142814636
1761468255681071400,7.6840712890625,0.2363649308681488,0.6471108794212341,0.8836514353752136
1761468255691025400,7.694025390625,0.22107429802417755,0.5939289927482605,0.7933357954025269
1761468255700980500,7.70398046875,0.20758672058582306,0.5013015866279602,0.6740046143531799
1761468255710934500,7.7139345703125,0.18635155260562897,0.4180166721343994,0.5509735941886902
1761468255720888300,7.723888427734375,0.17151987552642822,0.3561208248138428,0.4274201989173889
1761468255730843400,7.733843505859375,0.15431775152683258,0.27612751722335815,0.314154714345932
1761468255740797200,7.743797119140625,0.13717631995677948,0.11715064197778702,0.20103533565998077
1761468255750751500,7.75375146484375,0.11212148517370224,-0.13843663036823273,0.08219952136278152
1761468255760706300,7.763706298828125,0.0756276547908783,-0.41165271401405334,-0.01730496808886528
1761468255770660400,7.773660400390625,0.02201465703547001,-0.6058642864227295,-0.08510425686836243
1761468255780614400,7.783614501953125,-0.03621376305818558,-0.6946769952774048,-0.12248145788908005
1761468255790568400,7.793568359375,-0.08973460644483566,-0.6886569261550903,-0.14711041748523712
1761468255800523300,7.803523193359375,-0.1233048215508461,-0.601333498954773,-0.18323007225990295
1761468255810477600,7.8134775390625,-0.13985717296600342,-0.4618236720561981,-0.23875553905963898
1761468255820431400,7.823431396484375,-0.13414336740970612,-0.30805063247680664,-0.3163541853427887
1761468255830386400,7.833386474609375,-0.11636827141046524,-0.1899372935295105,-0.4097467064857483
1761468255840340500,7.843340576171875,-0.09798233956098557,-0.13690043985843658,-0.4958381652832031
1761468255850294300,7.853294189453125,-0.08249925822019577,-0.12996824085712433,-0.5537384748458862
1761468255860249300,7.863249267578125,-0.057664208114147186,-0.12272629886865616,-0.575050950050354
1761468255870203400,7.873203369140625,-0.028744470328092575,-0.12656600773334503,-0.5730804800987244
1761468255880157400,7.883157470703125,0.011839441023766994,-0.15349455177783966,-0.5564391613006592
1761468255890111500,7.893111572265625,0.05430919677019119,-0.19131654500961304,-0.5315327644348145
1761468255900066300,7.90306640625,0.09209039062261581,-0.23262350261211395,-0.5045035481452942
1761468255910020400,7.913020263671875,0.12518736720085144,-0.26583245396614075,-0.4827161133289337
1761468255919974400,7.922974365234375,0.14957579970359802,-0.2848154604434967,-0.460996150970459
1761468255929929500,7.932929443359375,0.1594817191362381,-0.2824558615684509,-0.43837204575538635
1761468255939883500,7.942883544921875,0.16294808685779572,-0.25213444232940674,-0.4170614182949066
1761468255949837600,7.952837646484375,0.15913833677768707,-0.16203346848487854,-0.3978918790817261
1761468255959792400,7.96279248046875,0.153763547539711,-0.029860254377126694,-0.38832366466522217
1761468255969746400,7.972746337890625,0.14695221185684204,0.09264034032821655,-0.3884672522544861
1761468255979700200,7.9827001953125,0.13707001507282257,0.16232621669769287,-0.3909250795841217
1761468255991521300,7.994521240234375,0.12237390130758286,0.20223964750766754,-0.39236414432525635
1761468256001475300,8.004475341796875,0.10578480362892151,0.19160299003124237,-0.3889843225479126
1761468256011429400,8.014429443359376,0.08555777370929718,0.15087440609931946,-0.37992802262306213
1761468256021384400,8.024384521484375,0.07462123781442642,0.11197386682033539,-0.35222768783569336
1761468256031338500,8.03433837890625,0.06639603525400162,0.06964929401874542,-0.31146833300590515
1761468256041292500,8.04429248046875,0.062005024403333664,0.015237981453537941,-0.2650739252567291
1761468256051246300,8.054246337890625,0.058299470692873,-0.04992084205150604,-0.22674842178821564
1761468256061201400,8.064201416015624,0.05757269263267517,-0.10634523630142212,-0.21204671263694763
1761468256071155000,8.074155029296875,0.05553971603512764,-0.12815068662166595,-0.21380841732025146
1761468256081109000,8.08410888671875,0.05781298875808716,-0.12158519774675369,-0.22826911509037018
1761468256091064000,8.09406396484375,0.053213462233543396,-0.11512195318937302,-0.2416757047176361
1761468256101017900,8.104017822265625,0.030703626573085785,-0.11381220817565918,-0.24393832683563232
1761468256110972000,8.113971923828124,-0.0009578369208611548,-0.1059279590845108,-0.2288326472043991
1761468256120927000,8.123927001953126,-0.04144694283604622,-0.11572226881980896,-0.21338285505771637
1761468256130881000,8.133881103515625,-0.0809667706489563,-0.1464393436908722,-0.19510070979595184
1761468256140835000,8.1438349609375,-0.10373733192682266,-0.17187120020389557,-0.15999437868595123
1761468256150790000,8.153789794921876,-0.1205970048904419,-0.18437661230564117,-0.11177679151296616
1761468256160744000,8.163743896484375,-0.1289348304271698,-0.1982807070016861,-0.04536154493689537
1761468256170698000,8.173697998046874,-0.12757426500320435,-0.20507624745368958,0.03695176541805267
1761468256180651800,8.18365185546875,-0.13501618802547455,-0.19114844501018524,0.11054503172636032
1761468256190607000,8.193607177734375,-0.15541067719459534,-0.16734430193901062,0.16950102150440216
1761468256200561200,8.20356103515625,-0.18541806936264038,-0.14277710020542145,0.20085182785987854
1761468256210515000,8.213514892578125,-0.22391240298748016,-0.12552383542060852,0.20503242313861847
1761468256220470000,8.223469970703125,-0.2607404589653015,-0.11975277960300446,0.20708651840686798
1761468256230423800,8.233423828125,-0.3026677072048187,-0.1079791709780693,0.21325629949569702
1761468256240377900,8.2433779296875,-0.3545839190483093,-0.08051132410764694,0.2219909280538559
1761468256250333200,8.253333251953125,-0.4074079692363739,-0.013298320583999157,0.22570140659809113
1761468256260287000,8.263286865234376,-0.455405592918396,0.07977569103240967,0.2308271825313568
1761468256270241000,8.273240966796875,-0.49735644459724426,0.18947497010231018,0.24259190261363983
1761468256280195800,8.28319580078125,-0.5352458357810974,0.25132662057876587,0.25206369161605835
1761468256290150000,8.29314990234375,-0.563913881778717,0.20816445350646973,0.23268836736679077
1761468256300104000,8.30310400390625,-0.5803993344306946,0.07737156003713608,0.16804413497447968
1761468256310059000,8.31305908203125,-0.569969117641449,-0.04826343432068825,0.0366058386862278
1761468256320013000,8.323012939453125,-0.5356122255325317,-0.13192211091518402,-0.14015161991119385
1761468256330590000,8.33358984375,-0.5142020583152771,-0.19353175163269043,-0.3729764223098755
1761468256340544000,8.3435439453125,-0.5206405520439148,-0.25660207867622375,-0.6055029034614563
1761468256350498800,8.353498779296874,-0.5445793867111206,-0.33200323581695557,-0.7668559551239014
1761468256360453000,8.363453125,-0.5867635607719421,-0.37709906697273254,-0.8186017274856567
1761468256370407200,8.3734072265625,-0.6271212697029114,-0.37980571389198303,-0.7470974922180176
1761468256380362000,8.383362060546874,-0.663014829158783,-0.3141007423400879,-0.5714119672775269
1761468256390316000,8.39331591796875,-0.7241255044937134,-0.18058092892169952,-0.35966792702674866
1761468256400270000,8.40327001953125,-0.7132768630981445,0.0003515677817631513,-0.08858956396579742
1761468256410225000,8.413224853515626,-0.6832311749458313,0.22617165744304657,0.1792496144771576
1761468256420179200,8.42317919921875,-0.6461557149887085,0.3805851936340332,0.38151511549949646
1761468256430133000,8.433133056640624,-0.5757440328598022,0.44117823243141174,0.502779483795166
1761468256440087000,8.443087158203125,-0.4936440587043762,0.438213050365448,0.5437812209129333
1761468256450042000,8.4530419921875,-0.4066874086856842,0.38571539521217346,0.5140453577041626
1761468256459996000,8.462995849609374,-0.31248024106025696,0.2881941795349121,0.4367678463459015
1761468256469950000,8.472949951171875,-0.21508008241653442,0.14996518194675446,0.33344680070877075
1761468256479905000,8.482905029296875,-0.12080391496419907,0.016778353601694107,0.2246132344007492
1761468256489859000,8.492859130859374,-0.04210103303194046,-0.08331214636564255,0.14164577424526215
1761468256499813000,8.502813232421875,0.011301472783088684,-0.1675223708152771,0.0965198501944542
1761468256509768000,8.512767822265625,0.025513796135783195,-0.2462555319070816,0.09036768227815628
1761468256519722000,8.522721923828126,0.0006529214442707598,-0.31174397468566895,0.11748479306697845
1761468256529676000,8.532676025390625,-0.054414838552474976,-0.3408432900905609,0.15020227432250977
1761468256539631000,8.542631103515625,-0.12773139774799347,-0.34120973944664,0.16642625629901886
1761468256549585200,8.552585205078126,-0.21048548817634583,-0.32529133558273315,0.1523744910955429
1761468256559539200,8.562539306640625,-0.2947433590888977,-0.2875562012195587,0.11143451929092407
1761468256569494000,8.572493896484374,-0.3732657730579376,-0.21654008328914642,0.05469640716910362
1761468256579448000,8.582447998046876,-0.44346538186073303,-0.11171779036521912,-0.007073482498526573
1761468256589401900,8.59240185546875,-0.49420830607414246,-0.009969491511583328,-0.06998416036367416
1761468256599357200,8.602357177734374,-0.5382846593856812,0.050996389240026474,-0.13043312728405
1761468256609311000,8.61231103515625,-0.588256299495697,0.08837711066007614,-0.1893797516822815
1761468256619265000,8.62226513671875,-0.6491388082504272,0.11891131848096848,-0.2298392951488495
1761468256629220000,8.63222021484375,-0.7241537570953369,0.12320632487535477,-0.24298451840877533
1761468256639174000,8.642173828125,-0.8034826517105103,0.10679806023836136,-0.23909124732017517
1761468256649128000,8.6521279296875,-0.8715933561325073,0.0598398894071579,-0.23335638642311096
1761468256659083000,8.6620830078125,-0.9286994934082031,0.00873569119721651,-0.22481510043144226
1761468256669037000,8.672037109375,-0.9746309518814087,-0.04266022518277168,-0.23213355243206024
1761468256678991000,8.6819912109375,-0.9980822205543518,-0.06853203475475311,-0.26266831159591675
1761468256688945200,8.691945068359376,-0.9887736439704895,-0.05859445035457611,-0.31020626425743103
1761468256698900000,8.70189990234375,-0.9360262751579285,0.0002486262528691441,-0.3474649488925934
1761468256708854000,8.71185400390625,-0.8458755016326904,0.06770123541355133,-0.3669035732746124
1761468256718807800,8.721807861328125,-0.7067400217056274,0.12351469695568085,-0.3674052953720093
1761468256728763100,8.73176318359375,-0.5432540774345398,0.16237902641296387,-0.35495525598526
1761468256738717200,8.74171728515625,-0.3969067633152008,0.17134642601013184,-0.34807178378105164
1761468256748671000,8.7516708984375,-0.28554967045783997,0.15803410112857819,-0.3725491762161255
1761468256758626000,8.7616259765625,-0.21379531919956207,0.12477307766675949,-0.3963029682636261
1761468256768579800,8.771579833984376,-0.1789911836385727,0.07743524760007858,-0.3965228199958801
1761468256778534000,8.781533935546875,-0.16894175112247467,0.015495448373258114,-0.3583301603794098
1761468256788489200,8.7914892578125,-0.17258362472057343,-0.04410996660590172,-0.27679628133773804
1761468256798443000,8.801443115234376,-0.18394945561885834,-0.0858163982629776,-0.1720336526632309
1761468256808397000,8.81139697265625,-0.20424160361289978,-0.10278688371181488,-0.07470019161701202
1761468256818351900,8.821351806640624,-0.22155827283859253,-0.11048075556755066,0.013754301704466343
1761468256828306000,8.831305908203126,-0.2265843152999878,-0.0994957908987999,0.08151892572641373
1761468256838260000,8.841260009765625,-0.21725738048553467,-0.07156562060117722,0.12379634380340576
1761468256848215000,8.851215087890624,-0.19756761193275452,-0.0467161163687706,0.13934102654457092
1761468256858169000,8.861169189453125,-0.16674071550369263,-0.007643282879143953,0.1455826759338379
1761468256868123100,8.871123046875,-0.13400797545909882,0.03970520198345184,0.14358332753181458
1761468256878078000,8.881077880859374,-0.10945043712854385,0.0896216332912445,0.11108290404081345
1761468256888032000,8.891031982421875,-0.08804439753293991,0.15325987339019775,0.06560610979795456
1761468256897986000,8.900986083984375,-0.07403963059186935,0.21352773904800415,0.012345013208687305
1761468256907941000,8.910941162109374,-0.066634401679039,0.24787311255931854,-0.03977365791797638
1761468256917895200,8.920895263671875,-0.06088996306061745,0.26499828696250916,-0.06186537817120552
1761468256927849000,8.930848876953124,-0.058775145560503006,0.2744533121585846,-0.03792861849069595
1761468256937804000,8.940803955078126,-0.05176464095711708,0.2735835313796997,0.018127460032701492
1761468256947758000,8.950758056640625,-0.03838682919740677,0.2508881390094757,0.08027691394090652
1761468256957712000,8.9607119140625,-0.005425148643553257,0.20915426313877106,0.13961666822433472
1761468256967666000,8.970666015625,0.03181353211402893,0.17878487706184387,0.1872246265411377
1761468256977621000,8.98062109375,0.07155108451843262,0.14789539575576782,0.21331721544265747
1761468256987575000,8.990574951171874,0.10260000824928284,0.10716903209686279,0.21940681338310242
1761468256997529000,9.000529052734375,0.1230940967798233,0.07691605389118195,0.22374562919139862
1761468257007484000,9.01048388671875,0.14021773636341095,0.04900151863694191,0.21793267130851746
1761468257017438000,9.02043798828125,0.15120966732501984,0.010608590207993984,0.19308272004127502
1761468257027392000,9.03039208984375,0.15543004870414734,-0.05094574764370918,0.1655726432800293
1761468257037347000,9.04034716796875,0.15477624535560608,-0.10344650596380234,0.1460101157426834
1761468257047301000,9.050301025390626,0.1574901044368744,-0.1198296993970871,0.15318498015403748
1761468257057255000,9.0602548828125,0.17100325226783752,-0.07721912115812302,0.17792494595050812
1761468257067210000,9.0702099609375,0.18934006989002228,-0.0071379574947059155,0.19189944863319397
1761468257077164300,9.080164306640626,0.20715342462062836,0.03212635591626167,0.17708401381969452
1761468257087118000,9.0901181640625,0.2130141407251358,0.013443217612802982,0.13456983864307404
1761468257097073200,9.1000732421875,0.2179092913866043,-0.04605073481798172,0.08229890465736389
1761468257107027000,9.11002685546875,0.21512484550476074,-0.11682682484388351,0.03864312171936035
1761468257116981000,9.11998095703125,0.20133206248283386,-0.18310144543647766,0.006960292812436819
1761468257126936300,9.129936279296874,0.17096754908561707,-0.25334933400154114,-0.005118815694004297
1761468257136890000,9.13989013671875,0.13053783774375916,-0.296997994184494,0.010298489592969418
1761468257146844200,9.14984423828125,0.09541613608598709,-0.2777459919452667,0.05021074414253235
1761468257156799000,9.159799072265624,0.07104848325252533,-0.20123499631881714,0.10999045521020889
1761468257166753000,9.1697529296875,0.057996004819869995,-0.06249145418405533,0.1933855265378952
1761468257176707000,9.17970703125,0.047531645745038986,0.12713147699832916,0.2856781780719757
1761468257186662100,9.189662109375,0.04106071591377258,0.342341810464859,0.3619239330291748
1761468257196616200,9.1996162109375,0.04231586307287216,0.54105544090271,0.4321698844432831
1761468257206570200,9.2095703125,0.04214666411280632,0.6789620518684387,0.480109840631485
1761468257216525000,9.219525146484376,0.04201270639896393,0.7513888478279114,0.49881643056869507
1761468257226479000,9.22947900390625,0.04922713339328766,0.7530735731124878,0.48829057812690735
1761468257236433200,9.23943310546875,0.058895207941532135,0.6788845658302307,0.4439803659915924
1761468257246388200,9.24938818359375,0.06681068241596222,0.5814074277877808,0.38180050253868103
1761468257256342300,9.25934228515625,0.07550723105669022,0.4423781931400299,0.3064679503440857
1761468257266296000,9.269296142578124,0.09889331459999084,0.2764032781124115,0.23081308603286743
1761468257276250000,9.27925,0.1386292725801468,0.10820096731185913,0.1641344577074051
1761468257286205000,9.289204833984375,0.1870315670967102,-0.03913341835141182,0.10276798158884048
1761468257296159000,9.299158935546876,0.23432610929012299,-0.1549343317747116,0.06646483391523361
1761468257306113000,9.309113037109375,0.260337233543396,-0.22275874018669128,0.045014042407274246
1761468257316068000,9.319068115234375,0.2629822790622711,-0.22545918822288513,0.0376456081867218
1761468257326022100,9.329022216796876,0.254940927028656,-0.16474606096744537,0.042130883783102036
1761468257335976200,9.33897607421875,0.19588187336921692,-0.012961061671376228,0.1524299532175064
1761468257345931000,9.348930908203124,0.12837116420269012,-0.024915890768170357,0.1754685342311859
1761468257355885000,9.358885009765626,0.08027739822864532,-0.0028167127165943384,0.18024411797523499
1761468257365839000,9.368839111328125,0.04882906749844551,-0.02738150581717491,0.13453702628612518
1761468257375794200,9.378794189453124,0.04305027425289154,-0.027948493137955666,0.05522941052913666
1761468257385748200,9.388748291015625,0.057305362075567245,-0.04059240221977234,-0.0746881291270256
1761468257395702000,9.398701904296875,0.08874957263469696,-0.03260212019085884,-0.22802816331386566
1761468257405657000,9.408656982421874,0.13405348360538483,-0.01517838891595602,-0.38673868775367737
1761468257415611100,9.418611083984375,0.1937812715768814,-0.045329902321100235,-0.5428188443183899
1761468257425565000,9.42856494140625,0.2779797315597534,-0.05815574526786804,-0.6481854915618896
1761468257435520300,9.438520263671874,0.3425118625164032,-0.0678161010146141,-0.6755934357643127
