time,seconds_elapsed,z,y,x
1761468668036933600,0.06493359375,0.7203238603174686,-0.05210479270331561,0.2918018759641796
1761468668046889500,0.074889404296875,0.522703439155221,-0.10967457281425595,0.1807517039477825
1761468668056845600,0.084845458984375,0.14307868363559245,-0.12767850460372865,-0.02779927655160427
1761468668066801700,0.0948017578125,-0.33535832829177376,-0.0845427619062364,-0.2554415456857532
1761468668076757800,0.1047578125,-0.8612865747123957,0.036637393654137845,-0.39413697273582216
1761468668086713600,0.114713623046875,-1.1786544882833958,0.18616759151667356,-0.37596009553223847
1761468668096669700,0.124669677734375,-0.9716688574045896,0.24363814903683959,-0.14181969655044377
1761468668106625500,0.13462548828125,-0.5220838459521532,0.23217947417236864,0.12033223349414765
1761468668116581600,0.14458154296875,-0.15909984411001205,0.28601247890777887,0.1890436584096402
1761468668126537500,0.154537353515625,0.11071896730065345,0.31556502886749804,0.20032120455354452
1761468668136493600,0.16449365234375,0.27628771516382694,0.31846462276652454,0.17536080468967555
1761468668146449700,0.17444970703125,0.3775865276902914,0.2284392647307366,0.18546806494519114
1761468668156405800,0.18440576171875,0.47406595723628997,0.15268712752349675,0.18538703559823333
1761468668166361600,0.194361572265625,0.5201864878982305,0.0879248786251992,0.13502199923433364
1761468668176317700,0.204317626953125,0.44469607036709785,0.005639613322168589,0.07753624414503574
1761468668186273500,0.2142734375,0.3167927440315485,0.0015698796652257442,0.010860855101794005
1761468668196228900,0.224228759765625,0.15349544823169708,0.016302826960012316,-0.05628580471500754
1761468668206184700,0.234184814453125,0.03328384544253349,0.04877352938875556,-0.07615896444246173
1761468668216140800,0.244140869140625,-0.1845247927457094,0.08930939178615808,-0.07373889768868684
1761468668226096600,0.2540966796875,-0.45171676278412337,0.16010668306499717,-0.10514350525587797
1761468668236052700,0.264052734375,-0.5732511386096477,0.25325397251360116,-0.11197320514544844
1761468668246008600,0.274008544921875,-0.5409890374302864,0.2697868819024414,-0.07026172309741377
1761468668255964700,0.283964599609375,-0.46202948248386383,0.2870863186843693,-0.07027100238241255
1761468668265920500,0.29392041015625,-0.3458154248982668,0.2526345254410058,-0.1635881685052067
1761468668275876900,0.303876953125,-0.20171558152139185,0.16948687115497887,-0.1778521831139922
1761468668285832700,0.313832763671875,-0.07208966917693614,0.10699044829681514,-0.22649456040374932
1761468668295788500,0.32378857421875,-0.05281505986452102,0.04276493662372231,-0.30966099245548245
1761468668305744600,0.33374462890625,-0.027846038302779198,-0.004535597603023052,-0.3704313952386379
1761468668315700500,0.343700439453125,0.03675122929215431,-0.027769612065702675,-0.43535694493986665
1761468668325656600,0.353656494140625,0.09751578685641288,-0.052360886356234544,-0.43796690824255347
1761468668335612400,0.3636123046875,0.1496077931433916,-0.10097995583564043,-0.46322402603067453
1761468668345568800,0.37356884765625,0.153189743283391,-0.11100516383089125,-0.4762378944478929
1761468668355524600,0.383524658203125,0.09125029672086238,-0.10890519587695598,-0.5035956377770752
1761468668365480700,0.393480712890625,-0.00047755438387393946,-0.1225967443600297,-0.5395603198014199
1761468668375436500,0.4034365234375,0.07960252902507782,-0.17264562744684517,-0.5296377684630453
1761468668385392600,0.413392578125,0.22810206866562366,-0.1889958737451583,-0.4850076224893331
1761468668395348500,0.423348388671875,0.3810422211021185,-0.18395963314361868,-0.4425510211624205
1761468668405304600,0.4333046875,0.49290217513144013,-0.20212474684417248,-0.3790590113956481
1761468668415260700,0.4432607421875,0.47744332471489903,-0.22982143980413675,-0.3415286144245416
1761468668425216800,0.453216796875,0.380959218993783,-0.2404510434333235,-0.3414949313506484
1761468668435172600,0.463172607421875,0.22732582359611986,-0.23988646835312247,-0.3156874862033874
1761468668445128700,0.473128662109375,0.13617840272784232,-0.19600743300765752,-0.2924381280411035
1761468668455084500,0.48308447265625,0.04755670094490051,-0.1790760988857597,-0.32146957673616705
1761468668465040600,0.49304052734375,-0.07499883462190628,-0.18104352650120853,-0.3274533273208886
1761468668474996700,0.502996826171875,-0.17812193996608255,-0.17818945224434135,-0.3262138486538082
1761468668484952800,0.512952880859375,-0.19737667553424834,-0.16365721515342593,-0.3434104826483875
1761468668494909000,0.522908935546875,-0.13797931466996669,-0.13962014067955314,-0.32161008118540046
1761468668504864800,0.53286474609375,-0.01049567505121231,-0.1418571059513837,-0.2801525738984346
1761468668514820900,0.54282080078125,0.08673486512303352,-0.1704485557939857,-0.22639723750911653
1761468668524776700,0.552776611328125,0.1320569388836622,-0.18838051832579075,-0.1704855268035084
1761468668534732800,0.56273291015625,0.14155951124429703,-0.1917176999244839,-0.10253821812830864
1761468668544688600,0.572688720703125,0.06645429363846779,-0.19517448931485412,-0.06875862505808472
1761468668554644700,0.582644775390625,-0.05105623349845409,-0.17305910361856222,-0.0842531313098967
1761468668564600800,0.592600830078125,-0.14251169740259648,-0.15827771407216787,-0.08571889301352202
1761468668574557000,0.602556884765625,-0.23660218598544597,-0.20030776055008173,-0.07314911510199308
1761468668584512800,0.6125126953125,-0.27985563677847386,-0.1863078037049621,-0.07664309469759464
1761468668594468900,0.62246875,-0.3044710225969553,-0.20389329088665545,-0.06549012478142976
1761468668604424700,0.6324248046875,-0.22255144880115985,-0.19280352239981294,-0.06824804518744348
1761468668614380800,0.642380859375,-0.10593524015545844,-0.1871926967807114,-0.12465703789070248
1761468668624336600,0.652336669921875,-0.02515197691321373,-0.25532851376533505,-0.05804726142957806
1761468668634292700,0.662292724609375,0.05330021303296089,-0.2728917891152203,-0.08796776791885495
1761468668644248800,0.672248779296875,0.08245324228107928,-0.29868184473626314,-0.09381656701229513
1761468668654205000,0.682204833984375,0.08988017741143703,-0.3308035875968635,-0.06875394888296724
1761468668664160800,0.692160888671875,0.13524550579190253,-0.30560572571530936,-0.05722746947929263
1761468668674116900,0.702116943359375,0.19783494069576263,-0.3190682146828621,-0.012705533120408653
1761468668684072700,0.71207275390625,0.232387198638916,-0.3153412300489843,0.019485987040773034
1761468668694028800,0.72202880859375,0.19625380898416042,-0.2877399602875113,0.03064114891402423
1761468668703984600,0.731984619140625,0.07569032401740551,-0.24490298134088515,0.05379333031214773
1761468668713940700,0.741940673828125,-0.036354338929057116,-0.20972163171395658,0.0414632794406265
1761468668723896800,0.751896728515625,-0.12632219462394714,-0.18166063548624514,0.033172201761603355
1761468668733853000,0.76185302734375,-0.24339959104061126,-0.17192045497745276,0.008197700307145714
1761468668743808800,0.771808837890625,-0.305529007217288,-0.1581957348771393,-0.027658772102370856
1761468668753764900,0.781764892578125,-0.3194815447241068,-0.13558503994457424,-0.07454429578743875
1761468668763720700,0.791720703125,-0.2767641005039215,-0.11563216604441404,-0.08277246429808437
1761468668773676800,0.8016767578125,-0.24165303963422774,-0.13068214339911938,-0.1452716636352241
1761468668783632600,0.811632568359375,-0.2732230668962002,-0.12533128389045595,-0.21119448074549435
1761468668793589000,0.821589111328125,-0.1823299130499363,-0.08916983718499541,-0.27440884261466564
1761468668803544800,0.831544921875,-0.08517243811190128,-0.06031878655813634,-0.2683868789114058
1761468668813501000,0.8415009765625,-0.015576339316368102,-0.03202157042175531,-0.22104053278155625
1761468668823456800,0.851456787109375,0.017629764714837074,0.02974697655327618,-0.21593013096526265
1761468668833412900,0.861412841796875,0.008437573477625847,0.0758645115405321,-0.2080895004674792
1761468668843368700,0.87136865234375,-0.014347089782357216,0.09851919174529611,-0.2572930918365717
1761468668853324800,0.88132470703125,0.024321371307969093,0.14161321419291198,-0.2719911870136857
1761468668863281000,0.891281005859375,0.12289280469715594,0.14364683891236782,-0.24913769630119204
1761468668873237000,0.901237060546875,0.2925339165657759,0.11234247684925794,-0.24347988973520696
1761468668883192800,0.91119287109375,0.3966097925901413,0.06710939654633402,-0.2396429419208318
1761468668893149000,0.92114892578125,0.4152122017294168,0.01882613489255309,-0.237507098935917
1761468668903104800,0.931104736328125,0.33985271710157394,-0.012366583489626645,-0.25270598324202
1761468668913060900,0.941060791015625,0.2843792516827583,-0.035500133252516386,-0.25025223341435193
1761468668923016700,0.9510166015625,0.287755450117588,-0.04768653786964714,-0.19592333492077885
1761468668932972800,0.960972900390625,0.32930209699273105,-0.08040208190493285,-0.15304441652856765
1761468668942929000,0.970928955078125,0.3906657894939184,-0.09411913015544414,-0.12097360013760626
1761468668952885000,0.980885009765625,0.3616331717550754,-0.1324814479060471,-0.09417012969031929
1761468668962840800,0.9908408203125,0.20190788922309874,-0.16634645423740146,-0.1143978750091046
1761468668972797000,1.000796875,0.03731003221869469,-0.15436499760784209,-0.1317456809774041
1761468668982752800,1.010752685546875,-0.10116261892616749,-0.1156447332650423,-0.17223580453693865
1761468668992708900,1.020708984375,-0.1518511881560087,-0.0717930243179202,-0.1623833227600902
1761468669002664700,1.030664794921875,-0.1870487582653761,-0.042429567189514635,-0.10976590435951948
1761468669012620800,1.040620849609375,-0.2346218258231878,0.028751608840376138,-0.0715836924161762
1761468669022577000,1.050576904296875,-0.27129648274779317,0.07857194386832415,-0.023983371525257823
1761468669032532700,1.06053271484375,-0.32310733400583264,0.09732932437360287,0.010999825181066989
1761468669042488800,1.07048876953125,-0.3166846074819565,0.11755224738679826,0.01044336034208536
1761468669052444700,1.080444580078125,-0.2339607315659523,0.12055544779077172,-0.023660423181205988
1761468669062400800,1.09040087890625,-0.22830372871756552,0.08445055357813834,-0.07085961592532694
1761468669072356600,1.100356689453125,-0.22835341307818888,0.08249072474725544,-0.0965465034328401
1761468669082312700,1.110312744140625,-0.1889683281511068,0.10851941142976283,-0.09768851307481527
1761468669092268800,1.120268798828125,-0.11947218259871005,0.11916099775768815,-0.10109802925735711
1761468669102225000,1.130224853515625,-0.02992459814250469,0.12308175139799714,-0.13204327568449079
1761468669112180700,1.1401806640625,0.004129062628746033,0.11811711472794413,-0.14684073958285151
1761468669122136800,1.15013671875,0.007933131086826323,0.11110051396414637,-0.2007579154703766
1761468669132092700,1.1600927734375,0.024940964511036872,0.07234766252599656,-0.2776799732398242
1761468669142048800,1.170048828125,0.03958557593524456,0.03231682704128325,-0.35070414678789674
1761468669152004600,1.180004638671875,0.07231704819202422,-0.02181779098920524,-0.43376857976987954
1761468669161961000,1.1899609375,0.13905249685943125,-0.08034326438978313,-0.4798538199227303
1761468669171916800,1.199916748046875,0.2054518454402685,-0.12908420668318868,-0.49102162208184597
1761468669181873000,1.209872802734375,0.2436941900730133,-0.1468061066608876,-0.49515031938441095
1761468669191828700,1.219828857421875,0.28716274492144583,-0.171465843077749,-0.4765088934089988
1761468669201784800,1.229784912109375,0.2937339400053024,-0.190230603171885,-0.4599348482921719
1761468669211740700,1.23974072265625,0.2785381244391203,-0.17681122269369662,-0.4109831858575344
1761468669221696800,1.24969677734375,0.23324235416352748,-0.15197094207815826,-0.32883089928440745
1761468669231652900,1.25965283203125,0.1850911944568157,-0.10367379802949726,-0.27922121133245525
1761468669241609000,1.26960888671875,0.11721943523585795,-0.07256978084407746,-0.2526619249045849
1761468669251564800,1.279564697265625,-0.028375030612945554,-0.03946056131608784,-0.25188341481275855
1761468669261521000,1.28952099609375,-0.1500952843993902,0.0006773878049105406,-0.24283099737241862
1761468669271476700,1.299476806640625,-0.2448217327982187,0.030621859691664574,-0.20494659933187065
1761468669281432800,1.309432861328125,-0.2814344304025173,0.06622654929719865,-0.18782178846448658
1761468669291388700,1.319388671875,-0.21794249370098112,0.07984875887110829,-0.11865531325787305
1761468669301344800,1.3293447265625,-0.15012743310332297,0.05795161903537809,-0.08625110019408166
1761468669311300900,1.33930078125,-0.05860182657241821,0.0762344408314675,-0.0353415816899389
1761468669321257000,1.349257080078125,-0.05856909334659576,0.08853409656472504,-0.014225801490247249
1761468669331211800,1.359211669921875,-0.13010697385966777,0.11565189365819097,-0.04216054098978638
1761468669341169000,1.3691689453125,-0.14862871897816657,0.12026187167167662,-0.028438597368448972
1761468669351123700,1.379123779296875,-0.10764555120468139,0.10273454441800713,-0.035861513910815115
1761468669361079800,1.389079833984375,-0.0420586880505085,0.11734678794257342,-0.01764730037152767
1761468669371036000,1.399035888671875,0.03910392989814281,0.10370265879780054,-0.04142660069204867
1761468669380991700,1.40899169921875,0.15241174464821813,0.055789837891608476,-0.07551116805821657
1761468669390947800,1.41894775390625,0.19872750562131403,0.02349536881260574,-0.1035525828026235
1761468669400903700,1.428903564453125,0.2049158388674259,-0.03443951828368008,-0.14353293020911514
1761468669410859800,1.43885986328125,0.17148995460569857,-0.062449003519862885,-0.13821728814430534
1761468669420815600,1.448815673828125,0.10790040274858474,-0.07073357839286327,-0.18763627582974732
1761468669430771700,1.458771728515625,0.07215572015047073,-0.06132569857835769,-0.20491218560561536
1761468669440727800,1.468727783203125,0.0661661243468523,-0.09908522813022136,-0.21130597829595207
1761468669450684000,1.478683837890625,0.06682429599463939,-0.13138196223154663,-0.23450061059631405
1761468669460639700,1.4886396484375,0.017516367468237877,-0.14455715869031846,-0.2675053468365222
1761468669470595800,1.498595947265625,-0.011479425391554832,-0.14348353810943662,-0.3020153000079095
1761468669480552000,1.508552001953125,-0.044802433800697324,-0.15347440544366836,-0.302279211641103
1761468669490508000,1.518508056640625,-0.07028466558158397,-0.1575002999588847,-0.2852772234357893
1761468669500463900,1.5284638671875,-0.051990299478173255,-0.1577352777585387,-0.2597856393046677
1761468669510420000,1.538419921875,0.012421674677729606,-0.14511318513788282,-0.23855193181373177
1761468669520376000,1.5483759765625,0.05046528186798095,-0.13476685542948544,-0.22595957674421369
1761468669530332200,1.558332275390625,0.05621580821871757,-0.15433197212107477,-0.24685250797346234
1761468669540288000,1.5682880859375,0.060547699943184846,-0.15069851098954676,-0.26143187214173375
1761468669550244000,1.578244140625,0.058626376491785044,-0.14716018079556523,-0.25677125991955396
1761468669560200000,1.588199951171875,0.05276946715712547,-0.15171967073082923,-0.26397483462281524
1761468669570156000,1.598156005859375,0.04782148936092853,-0.15022366001941262,-0.27673005210384727
1761468669580112000,1.60811181640625,0.07538169645965098,-0.15319281202331184,-0.26829956595413385
1761468669590068200,1.618068115234375,0.08245324228107928,-0.16795432782545686,-0.2556622757643461
1761468669600024000,1.628024169921875,0.1315951665908098,-0.2141111719097942,-0.26870398203656076
1761468669609980200,1.637980224609375,0.2519423784583807,-0.28503026293739675,-0.29686807331256565
1761468669619936000,1.64793603515625,0.3821785316556692,-0.3705279874809086,-0.3157801329229027
1761468669629892000,1.65789208984375,0.45650750419199465,-0.4347418817814439,-0.3440616400334984
1761468669639848000,1.667847900390625,0.4177326601177454,-0.4713998798321932,-0.381140493844822
1761468669649804000,1.677803955078125,0.3191583041191101,-0.47879576223716136,-0.37536607516184445
1761468669659759900,1.687759765625,0.15801964765787124,-0.44968167675994336,-0.35969511636458334
1761468669669716200,1.69771630859375,0.030791444104909894,-0.4132571221388876,-0.3323556393444538
1761468669679672000,1.707672119140625,-0.07439560803174972,-0.366790700648725,-0.32953291007392105
1761468669689628200,1.717628173828125,-0.16589140394628046,-0.35188656150549646,-0.3503953000344336
1761468669699584000,1.727583984375,-0.18810440479815005,-0.36376375404298306,-0.3675925185509026
1761468669709540000,1.7375400390625,-0.1670750607728958,-0.36581593733243645,-0.3979794735081494
1761468669719496000,1.747495849609375,-0.07968728469908237,-0.3749517952725291,-0.3967448171466589
1761468669729452000,1.7574521484375,-0.0023667291313409803,-0.395610187093541,-0.37207762807570394
1761468669739408100,1.767408203125,0.0895762260288,-0.42983956975787874,-0.3678839027129113
1761468669749364200,1.7773642578125,0.11805763962566852,-0.4332231477815658,-0.33155389450751244
1761468669759320000,1.787320068359375,0.16262568014860151,-0.3913637816954404,-0.4311263946980238
1761468669769276200,1.797276123046875,0.19063187744915483,-0.45079234141558405,-0.3985173797771334
1761468669779232000,1.80723193359375,0.1777846708357334,-0.4418383428484201,-0.4505209771282971
1761468669789188000,1.81718798828125,0.1953138977855444,-0.3945169119641185,-0.46088491555862127
1761468669799144000,1.82714404296875,0.16322247699797152,-0.421932961351797,-0.4582868618894368
1761468669809100000,1.83710009765625,0.11770692649185657,-0.4215572599072009,-0.4847386693548411
1761468669819056000,1.84705615234375,0.11538520554602145,-0.38617154681459065,-0.47480406225249167
1761468669829012200,1.85701220703125,0.1318880120575428,-0.38154096440449353,-0.46357240107692776
1761468669838968000,1.866968017578125,0.12307166839540004,-0.3726060358639806,-0.4238109571181237
1761468669848924200,1.876924072265625,0.14540449623465537,-0.3501432980347425,-0.41691272203698754
1761468669858880000,1.8868798828125,0.281856455206871,-0.3364526993997395,-0.4439648334830999
1761468669868836000,1.896836181640625,0.37198037824630736,-0.38897074907906354,-0.35061668770015236
1761468669878792000,1.9067919921875,0.4357739282429218,-0.42131987095475193,-0.4048883761137724
1761468669888748300,1.916748291015625,0.41410745535790916,-0.4665189759228378,-0.42298663512319323
1761468669898704100,1.9267041015625,0.3606248714953661,-0.4671067126829177,-0.4541728506993502
1761468669908660200,1.93666015625,0.3272311359375715,-0.4816767245009541,-0.4501213102862239
1761468669918616000,1.946615966796875,0.30760932062268254,-0.5138000017315149,-0.4249354311034083
1761468669928572200,1.956572265625,0.24002631521522996,-0.5014546802256256,-0.3960165028721094
1761468669938528000,1.966528076171875,0.1598117917716503,-0.5059760301075875,-0.3739773972824216
1761468669948483800,1.97648388671875,0.161280110758543,-0.49369201033487914,-0.3134344465795904
1761468669958440200,1.986440185546875,0.1943283938795328,-0.4777556785997003,-0.2633424550034106
1761468669968396000,1.99639599609375,0.3084393417060375,-0.45405017416775223,-0.19193024669662118
1761468669978352000,2.00635205078125,0.41326048313975333,-0.45177258462458847,-0.08715725525356828
1761468669988308000,2.016307861328125,0.4603361225694418,-0.41903314825706184,-0.017901421263068915
1761468669998264000,2.02626416015625,0.4563163655340671,-0.3608034429326653,0.05196589568927884
1761468670008220000,2.036219970703125,0.3953483943521976,-0.32287907820791006,0.12034852704182267
1761468670018176000,2.046176025390625,0.25434125629365445,-0.29282829640246927,0.13296389766074715
1761468670028131800,2.0561318359375,0.12135025143027305,-0.28686997251994906,0.09178177324905991
1761468670038088200,2.066088134765625,-0.002757774275541305,-0.2663064193755388,0.09499693590328097
1761468670048044000,2.0760439453125,-0.10268412940502167,-0.28717385083734986,0.10859510701447725
1761468670058000100,2.086000244140625,-0.19008242687284946,-0.3182029030904174,0.12222776491716503
1761468670067956000,2.0959560546875,-0.27985505225658414,-0.3545201979447156,0.06586809124834835
1761468670077912000,2.105912109375,-0.2675409296065569,-0.3717650184625759,0.041586248233169316
1761468670087868000,2.115867919921875,-0.24323943204283713,-0.40487968135066327,0.040751112583279604
1761468670097824000,2.125823974609375,-0.23429332452118395,-0.4122024619868025,0.03538067159131169
1761468670107780000,2.135780029296875,-0.35876141571104525,-0.41227841329984366,0.032628304143249985
1761468670117736200,2.145736083984375,-0.5364478868693113,-0.3561182077258825,0.04898417646475136
1761468670127692000,2.155692138671875,-0.7306471014112234,-0.32050745370574296,0.025518983594700693
1761468670137648000,2.165648193359375,-1.0151596240848302,-0.3353839741896838,0.020320684299245474
1761468670147604000,2.17560400390625,-1.2157459093153475,-0.2807743955912068,-0.06533135402314365
1761468670157560000,2.18556005859375,-1.3090472933471202,-0.2677705005787313,-0.11151603596247732
1761468670167516000,2.195515869140625,-1.245492228281498,-0.26485998342689127,-0.10175510492660104
1761468670177472000,2.205471923828125,-0.9307190073788165,-0.29392445760872216,-0.06391038130931556
1761468670187428000,2.215427978515625,-0.46555707208812236,-0.3459376630384475,0.028732027357071636
1761468670197384200,2.22538427734375,-0.011791560080647467,-0.4297669794457033,0.16518325567692518
1761468670207340000,2.235340087890625,0.370649421903491,-0.49015397240184244,0.25342063431739803
1761468670217296100,2.245296142578125,0.6722258921027183,-0.5497436044352129,0.35723910151459276
1761468670227252000,2.255251953125,0.8638152164071797,-0.6130708155617117,0.3929799847204238
1761468670237208000,2.2652080078125,0.9559019639521836,-0.6703540338162333,0.43133769936114547
1761468670247164000,2.275163818359375,1.0054717582851647,-0.7213115561805665,0.4423363554984331
1761468670257120300,2.285120361328125,0.9820353531181811,-0.7970094789825379,0.4379023916389793
1761468670267076000,2.295076171875,0.8827046257942914,-0.8399762948539108,0.41613479646705087
1761468670277032200,2.3050322265625,0.7678197709858418,-0.8393231647074222,0.38919564387612043
1761468670286988000,2.314988037109375,0.5999848317563533,-0.8419391924247145,0.40618148466423154
1761468670296944000,2.324944091796875,0.3996463838070631,-0.8235801635872572,0.4187294160701334
1761468670306900000,2.33489990234375,0.2361696397870779,-0.7791873335007578,0.4459779268711805
1761468670316856000,2.34485595703125,0.018606500792503356,-0.7284426501695066,0.45311990758031606
1761468670326812000,2.35481201171875,-0.21252222221791742,-0.6467296317964791,0.4069140367224812
1761468670336768300,2.364768310546875,-0.33813889892101284,-0.6083600440548732,0.3714400608245283
1761468670346724000,2.37472412109375,-0.4077390893697738,-0.6083310006234794,0.3525931754048913
1761468670356680200,2.38468017578125,-0.4669049795657396,-0.6197642487857491,0.29959705988503993
1761468670366636000,2.394635986328125,-0.47060149599611756,-0.6386432829093188,0.21984569697380066
1761468670376592100,2.404592041015625,-0.4421861333727836,-0.6714343033336102,0.12067571316957473
1761468670386548000,2.4145478515625,-0.3537614154666662,-0.748867598560825,0.00952536871433258
1761468670396504000,2.424504150390625,-0.22354864314496517,-0.8252947124201804,-0.04351750855669379
1761468670406460200,2.434460205078125,-0.09399579603672027,-0.8666147109325975,-0.06782499746978282
1761468670416416300,2.444416259765625,0.027910920232534407,-0.8879555320598185,-0.03713745213076472
1761468670426372000,2.4543720703125,0.12641396456062792,-0.8929577242612838,0.010954451669380067
1761468670436328200,2.464328125,0.23359189825356005,-0.9341310077793895,0.006042714230343699
1761468670446284000,2.474283935546875,0.2596481305301189,-1.005771983340755,-0.018359540294110775
1761468670456240000,2.484240234375,0.257391291514039,-1.0431190596342086,-0.08262925643511115
1761468670466196000,2.494196044921875,0.26549861012399195,-1.1227670352362096,-0.15084975602850317
1761468670476151600,2.504151611328125,0.2397983516782522,-1.2097332979623228,-0.18084983056001364
1761468670486107400,2.514107421875,0.24805413884818553,-1.235847178710252,-0.19312639767862855
1761468670496063500,2.5240634765625,0.23707681775987147,-1.301447924259305,-0.17490429309383035
1761468670506019300,2.534019287109375,0.262173265093565,-1.362339469204098,-0.16354060303643345
1761468670515975400,2.543975341796875,0.3456353921562433,-1.4101267640344797,-0.157118826360628
1761468670525931300,2.55393115234375,0.39466333469748494,-1.4512857267662882,-0.14792846175432203
1761468670535887400,2.563887451171875,0.33042320997714997,-1.4765113534376024,-0.11304375698640942
1761468670545843500,2.573843505859375,0.11040683261156081,-1.4040338539868593,-0.057906245523691176
1761468670555799600,2.583799560546875,-0.1387011992037296,-1.3072308915749191,0.04762121754847467
1761468670565755400,2.59375537109375,-0.3010235124915838,-1.24631844997257,0.1263975979477167
1761468670575711500,2.60371142578125,-0.41240708118081093,-1.1818747655041515,0.1475317905869335
1761468670585667300,2.613667236328125,-0.4870756609350443,-1.1628553730618207,0.17182663921415806
1761468670595623400,2.62362353515625,-0.5139864642143249,-1.1431255673278122,0.19287877959311006
1761468670605579300,2.633579345703125,-0.49812137108445165,-1.1142175258167086,0.176167079571262
1761468670615535600,2.64353564453125,-0.4520429259985685,-1.1014539058335124,0.14234415881596504
1761468670625491500,2.653491455078125,-0.4218132074296474,-1.1251644517667592,0.09548778816014528
1761468670635448600,2.663448486328125,-0.43286593184173106,-1.1286525130782277,0.0007864742025732994
1761468670645404400,2.673404296875,-0.43126784899532794,-1.1060592807371168,-0.09246917099133134
1761468670655360500,2.683360595703125,-0.4324620272159576,-1.1367222030915318,-0.09967873704396188
1761468670665316400,2.69331640625,-0.37369711903631686,-1.2502950985185801,-0.07898571230098604
1761468670675272400,2.7032724609375,-0.2117126594007015,-1.3127078616812824,-0.055552375873923296
1761468670685228300,2.713228271484375,0.006607435441017151,-1.30631553029567,-0.09172083684206009
1761468670695184400,2.723184326171875,0.07003273664712906,-1.211900558998808,-0.1889034462213516
1761468670705140500,2.733140380859375,-0.2998036153078079,-1.0730587092153727,-0.3891689750649035
1761468670715096600,2.7430966796875,-1.147940785589814,-0.8310160857416689,-0.5973619359068573
1761468670725052400,2.753052490234375,-2.105462459698319,-0.5499614849695935,-0.8186930491328239
1761468670735008500,2.763008544921875,-2.87678994654417,-0.21591924424506723,-0.9395952645346521
1761468670744964400,2.77296435546875,-3.3727398188084363,0.14124091028179972,-0.9242220465749502
1761468670754920400,2.78292041015625,-3.470891565480828,0.4881695571189746,-0.7431633225046098
1761468670764876300,2.792876220703125,-3.0744220581442114,0.7463346460171043,-0.4449564748689532
1761468670774832400,2.802832275390625,-2.1907190689623355,0.8842755283728242,-0.14942914864085613
1761468670784788500,2.81278857421875,-1.2027081485658884,0.9919299935363233,0.1141163546539843
1761468670794744600,2.82274462890625,-0.30645430536866186,0.9898992914263158,0.37647505931705233
1761468670804700400,2.832700439453125,0.5499684626996517,0.9637034314833581,0.5425705344680697
1761468670814656500,2.842656494140625,1.2135691497981547,0.8899351615697145,0.5608752758350223
1761468670824612400,2.8526123046875,1.6699492282181978,0.7777746171586215,0.4744532760534435
1761468670834568400,2.862568359375,1.8521686666309833,0.6938209802519529,0.34700120061673223
1761468670844524300,2.872524169921875,1.8598872781842946,0.66573243843019,0.17227767091728746
1761468670854480400,2.88248046875,1.6488357130408287,0.6696878980576991,-0.007251505498215556
1761468670864436500,2.8924365234375,1.3425292917102574,0.641339024799317,-0.16677549330443142
1761468670874392600,2.902392578125,1.029921724408865,0.6503374470300972,-0.27794300809018313
1761468670884348400,2.912348388671875,0.7986275817036628,0.7156069878634065,-0.3586255143716931
1761468670894304500,2.922304443359375,0.6626625294655561,0.7794249416489154,-0.38279783259779215
1761468670904260400,2.93226025390625,0.6286871946275234,0.8372846446171403,-0.3768817404218018
1761468670914216400,2.942216552734375,0.6642752253592014,0.8633672534439712,-0.37637225652970374
1761468670924172300,2.95217236328125,0.6859487125068903,0.8449712535969912,-0.41076355175748464
1761468670934128600,2.962128662109375,0.6889712751984596,0.8653842923548072,-0.475089747326076
1761468670944084500,2.97208447265625,0.6052542965918779,0.861212194301933,-0.5463396046780049
1761468670954040600,2.98204052734375,0.48442602320909495,0.8906487897317856,-0.6385488095588981
1761468670963996400,2.991996337890625,0.3614554771006107,0.9112012369602918,-0.7107045297093689
1761468670973952500,3.001952392578125,0.19883505764901638,0.8785476522453128,-0.7797272125311195
1761468670983908400,3.011908447265625,0.03025660657584667,0.8806344684567302,-0.8525437346778809
1761468670993864400,3.021864501953125,-0.09961480496227741,0.9169892457772045,-0.885143981770426
1761468671003820500,3.031820556640625,-0.25854455320239067,0.8653614229358733,-0.9287827786192298
1761468671013776600,3.041776611328125,-0.3369295231312513,0.8252444435376673,-0.9367255543172359
1761468671023732500,3.051732421875,-0.33787527954876423,0.7683752129115163,-0.8987661182790994
1761468671033688600,3.0616884765625,-0.26097499521970746,0.6955603712651878,-0.7505071093961596
1761468671043644400,3.07164453125,-0.11640402719974517,0.5702960881963371,-0.5499174631647765
1761468671053600500,3.0816005859375,0.01416822608411312,0.46210422822050745,-0.33298509635441004
1761468671063556400,3.091556396484375,0.22399463334679603,0.3730516607396304,-0.1128964574702084
1761468671073512400,3.101512451171875,0.450600325974822,0.2722163740716874,0.07309906541518867
1761468671083468500,3.111468505859375,0.6778600985974073,0.1332741326536983,0.17623861043751238
1761468671093424400,3.12142431640625,0.8380635200351476,-0.019268471832573412,0.24170367384292185
1761468671103380500,3.13138037109375,0.9180290371537208,-0.17388393707014618,0.280375203673169
1761468671113336300,3.14133642578125,0.8961468756914138,-0.3170783560398966,0.2172057769242674
1761468671123292400,3.15129248046875,0.8473848906099796,-0.41483905756808814,0.1662095299847424
1761468671133248300,3.161248291015625,0.8485673783928155,-0.4982940242376178,0.1397035811793059
1761468671143204400,3.171204345703125,0.8520417765051126,-0.5977362491119652,0.12577888152748345
1761468671153160400,3.181160400390625,0.8438502867430449,-0.7008880690939724,0.11639525937139987
1761468671163116500,3.191116455078125,0.7427285843491553,-0.7783375117383897,0.07637392236739396
1761468671173072400,3.201072265625,0.6451444084316492,-0.7955143450539559,-0.013898103905841707
1761468671183028500,3.211028564453125,0.6432955656945705,-0.8138090034183114,-0.03444697093777358
1761468671192984300,3.220984375,0.6724661305993795,-0.8515465403340756,-0.03638539165444672
1761468671202940400,3.2309404296875,0.7065759054720402,-0.8799452440835535,-0.09836736218445002
1761468671212896300,3.240896240234375,0.6876999400883913,-0.9568279927559197,-0.1974485717266798
1761468671222852400,3.250852294921875,0.5885930846482516,-1.0365260911099612,-0.2912939995072782
1761468671232808400,3.260808349609375,0.4489233326733112,-1.0441314515471458,-0.36435850506573914
1761468671242764500,3.2707646484375,0.19959142897427082,-1.0385693604405968,-0.3782402423586696
1761468671252720400,3.280720458984375,-0.09492518584132194,-0.9775067697778344,-0.3689725016672164
1761468671262676500,3.290676513671875,-0.40264498110115526,-0.8845713695142418,-0.34666057048551735
1761468671272632300,3.30063232421875,-0.6700345195382833,-0.8348469691414385,-0.34632702768221496
1761468671282588400,3.31058837890625,-0.9373030619442463,-0.8334252657752483,-0.37920441121570764
1761468671292545300,3.320545166015625,-1.030609706673026,-0.8252453933857381,-0.4330889269426465
1761468671302501400,3.33050146484375,-0.9391483975499868,-0.8185746103849262,-0.41777452649809416
1761468671312457200,3.340457275390625,-0.7202221535086631,-0.8354024110671132,-0.38169337848722934
1761468671322413600,3.35041357421875,-0.47159459868669507,-0.8760666490845381,-0.351648295770213
1761468671332369400,3.360369384765625,-0.2619248432904482,-0.9452663689736276,-0.3008008096516132
1761468671342325500,3.370325439453125,-0.04611760805249214,-1.015688762525469,-0.32029761034734544
1761468671352281300,3.38028125,0.07350830380320549,-1.1076611629758029,-0.35546010914333165
1761468671362237400,3.390237548828125,0.13847089757919312,-1.1898250669214874,-0.40994449045956133
1761468671372193300,3.400193359375,0.197561968973279,-1.2314499666646122,-0.48289969042465086
1761468671382149400,3.4101494140625,0.2421463761091232,-1.2739113902971149,-0.506600372551009
1761468671392105200,3.420105224609375,0.23007950621843337,-1.3134696398340164,-0.496526576173678
1761468671402061600,3.4300615234375,0.15450784014463423,-1.3073651854790747,-0.48358694203644986
1761468671412017400,3.440017333984375,0.04250117112100124,-1.27892322710976,-0.4537028951000422
1761468671421973500,3.449973388671875,-0.17435703447461126,-1.2346296196140347,-0.4288319270852953
1761468671431929300,3.459929443359375,-0.36768005070388315,-1.161676392410323,-0.44664179760739203
1761468671441885400,3.469885498046875,-0.43071372224390503,-1.1135956675913183,-0.4294247053466737
1761468671451841300,3.47984130859375,-0.5195101960718631,-1.0576212669130414,-0.43490664388909933
1761468671461797400,3.48979736328125,-0.58081894351542,-1.0168385901477188,-0.4427056272022426
1761468671471753500,3.49975341796875,-0.6205646784484387,-1.0438991771612316,-0.4971867205828428
1761468671481709800,3.509709716796875,-0.6136977152884007,-1.0917049574963749,-0.5525614018023014
1761468671491666000,3.519666015625,-0.5388759907990693,-1.082485878252238,-0.612612769595906
1761468671501621800,3.529621826171875,-0.4611024307668209,-1.0211473932575434,-0.6681891839325428
1761468671511577900,3.539577880859375,-0.5673895530998706,-0.9281221958186476,-0.6500315228860825
1761468671521533700,3.54953369140625,-0.8983031769424676,-0.7790171645656228,-0.6660885583914816
1761468671531489800,3.55948974609375,-1.375208741518855,-0.6056351856682449,-0.6703751496694982
1761468671541445600,3.569445556640625,-1.8236323079764842,-0.36870603275075553,-0.604443345535174
1761468671551401700,3.579401611328125,-2.319293426427245,-0.11201865172237158,-0.565959739492461
1761468671561357800,3.58935791015625,-2.7318355321645735,0.26011275236718356,-0.5201835652887821
1761468671571314000,3.59931396484375,-2.8862399119347333,0.6181119515340775,-0.4470681332606822
1761468671581269800,3.609269775390625,-2.6188456973224876,0.9884155556745826,-0.3194152014896273
1761468671591225900,3.619225830078125,-1.9272797294557094,1.2188444598525763,-0.16564152083843944
1761468671601181700,3.629181640625,-1.0112070870667695,1.2968359004192054,-0.036359015104174615
1761468671611137800,3.6391376953125,-0.06995031906068325,1.3144504675649105,0.10496902547180652
1761468671621093600,3.64909375,0.8343558976888656,1.2872257760308683,0.21302754139155147
1761468671631050000,3.659050048828125,1.6214415101587771,1.1654102451764046,0.3346219768412411
1761468671641005800,3.669005859375,2.113752733659744,1.072483831936866,0.35740386362224813
1761468671650962000,3.6789619140625,2.341058098989725,0.9899576705500482,0.3439663629654795
1761468671660917800,3.688917724609375,2.4050118079841134,0.9434704985328018,0.28694274549521503
1761468671670873900,3.698873779296875,2.259951010620594,0.907638868303597,0.23202545265443622
1761468671680829700,3.70882958984375,2.0011036750793454,0.8987553046241402,0.20844971208199858
1761468671690785800,3.718785888671875,1.58801562589705,0.9154736535824834,0.13890329764708875
1761468671700742000,3.728741943359375,1.1751520331203937,0.974141092737019,0.10435805396661162
1761468671710698000,3.738697998046875,0.8959890547811985,1.0224274231307209,0.09581592413596808
1761468671720653800,3.74865380859375,0.7083084283530712,1.0441916573017835,0.15898023631833494
1761468671730610000,3.75860986328125,0.5669739580363035,1.0731975331641732,0.1680208902556449
1761468671740565800,3.768565673828125,0.5242933386951685,1.115498943929374,0.14202435227707028
1761468671750521900,3.77852197265625,0.4858282912224531,1.096447914239764,0.15018427785709498
1761468671760477700,3.788477783203125,0.43219957688748833,1.0673787638828158,0.16072254994101823
1761468671770434800,3.798434814453125,0.29893384673595425,1.0848203125491738,0.22895715112499893
1761468671780390700,3.808390625,0.05739361982643604,1.0956589558191596,0.3270648394599557
1761468671790346800,3.8183466796875,-0.2159305693566799,1.1315608748055994,0.4017363418236375
1761468671800302800,3.828302734375,-0.4580284301489591,1.1740981401532888,0.41780967087671156
1761468671810259000,3.838259033203125,-0.6562175911098719,1.1698837373286486,0.389178181284666
1761468671820214800,3.84821484375,-0.7866828768879175,1.1292384232074022,0.35937706339135767
1761468671830171000,3.8581708984375,-0.8661194016963243,1.0422574743688107,0.23631591638997196
1761468671840126700,3.868126708984375,-0.874697260427475,0.9293561945930123,0.03714125152304768
1761468671850082800,3.878082763671875,-0.8168506361365317,0.7846627692371606,-0.1513731953807175
1761468671860038700,3.88803857421875,-0.6573930646300316,0.6343143868595361,-0.30680341106727715
1761468671869994800,3.897994873046875,-0.40839550745189185,0.47070817124098535,-0.4607901499472558
1761468671879950800,3.907950927734375,-0.07549217109680176,0.3266857770144939,-0.5493837946794927
1761468671889907000,3.917906982421875,0.2416460253715515,0.20193331592530012,-0.54980844983235
1761468671899862800,3.92786279296875,0.4994365453362465,0.1501518368922174,-0.4866372695177793
1761468671909819000,3.93781884765625,0.6606663872122764,0.17972645255327224,-0.4018263581946492
1761468671919774700,3.947774658203125,0.748391432416439,0.24719576845318078,-0.2511605804309249
1761468671929730800,3.957730712890625,0.8504980541944503,0.2841360905766487,-0.10384396696463227
1761468671939686700,3.967686767578125,0.9841004689544439,0.3077472677886486,-0.004885433954000473
1761468671949643000,3.97764306640625,1.0563350995600223,0.3054382601939142,0.08057882671132684
1761468671959598800,3.987598876953125,1.168353459021449,0.23157617451697587,0.11153722488097846
1761468671969555000,3.997554931640625,1.242383156350255,0.09684650929272175,0.06163622583225369
1761468671979510800,4.0075107421875,1.25499947681725,-0.09003288375511764,-0.012600684506446122
1761468671990088700,4.018088623046875,1.26255325319767,-0.28997911751642824,-0.12960786523111165
1761468672000044800,4.028044921875,1.230657647243142,-0.48789318786300717,-0.24654694915562866
1761468672010000600,4.038000732421875,1.244199265861511,-0.6907171690177172,-0.3693533907435834
1761468672019956700,4.047956787109375,1.2127519881963729,-0.8189856023386121,-0.45441506195738907
1761468672029912800,4.057912841796875,1.0556816040873527,-0.9009834290023893,-0.49658553981930015
1761468672039869000,4.067868896484375,0.8687111717551946,-1.0088977872110902,-0.46927828456833953
1761468672049824800,4.07782470703125,0.6924041722565889,-1.0072129028640686,-0.4069891477853059
1761468672059780900,4.08778076171875,0.4348422003507614,-1.031489339051768,-0.3171430187739432
1761468672069736700,4.09773681640625,0.16108780305683612,-1.0282312140386551,-0.2692689224429428
1761468672079692800,4.10769287109375,-0.06754968765974044,-1.0332493344616145,-0.26973434799760576
1761468672089648600,4.117648681640625,-0.25246201841831206,-1.0756949760030954,-0.2341964400179684
1761468672099604700,4.127604736328125,-0.4315788146406412,-1.0992032773625104,-0.2219596203878522
1761468672109560800,4.137560791015625,-0.6122147832542657,-1.1151914123501627,-0.17579671188890933
1761468672119517000,4.147516845703125,-0.7272539518415927,-1.1173944022871554,-0.09395794824436307
1761468672129472800,4.15747265625,-0.7324117729961872,-1.1227520568627865,-0.006506313154101371
1761468672139428900,4.167428955078125,-0.6955103215783834,-1.1699094562917947,0.10768486030176282
1761468672149384700,4.177384765625,-0.7097071892350911,-1.2154966837946324,0.24068594816774128
1761468672159341800,4.187341796875,-0.7965303171634673,-1.226745149974525,0.28332228997573256
1761468672169297700,4.197297607421875,-0.890331467410922,-1.1745673651002346,0.2519910399056971
1761468672179253800,4.207253662109375,-0.9203127641767263,-1.1179822851777077,0.23451325088217853
1761468672189209600,4.217209716796875,-0.9886386969059705,-1.0879294575456528,0.231286836181581
1761468672199165700,4.227165771484375,-1.135941720238328,-1.0467130655381829,0.23891966914758084
1761468672209121800,4.237121826171875,-1.4335826045542954,-0.9363995372332632,0.2049826204933226
1761468672219078000,4.247077880859375,-1.6424556566148996,-0.7704549417950213,0.19086305585652588
1761468672229033700,4.25703369140625,-1.6165899784743785,-0.6604525983311236,0.2046647867158055
1761468672238989800,4.26698974609375,-1.521001944810152,-0.6043729106474668,0.2764535732500255
1761468672248945700,4.276945556640625,-1.3418313725739717,-0.5482359398186206,0.3132083096735179
1761468672258901800,4.28690185546875,-1.0989110894829035,-0.5625049959287047,0.3563198677778244
1761468672268857600,4.296857666015625,-0.8759843776285647,-0.6586907032251358,0.38835195959359403
1761468672278814000,4.30681396484375,-0.5626216080456972,-0.7074740964207797,0.325090178386122
1761468672288769800,4.316769775390625,-0.2906938416570425,-0.770688458289951,0.19657076597884296
1761468672298726000,4.326725830078125,-0.1621340972393751,-0.8518791332893073,0.01819485125169158
1761468672308681700,4.336681640625,-0.3171358583807945,-0.8911889610230922,-0.21791472891122102
1761468672318637800,4.346637939453125,-0.6918664121180772,-0.8947320404574275,-0.4652482983998954
1761468672328593700,4.35659375,-1.0980740541368723,-0.8481303021498025,-0.6887228533953428
1761468672339171800,4.367171875,-1.6805267363339662,-0.7341365509621799,-0.8567591604158282
1761468672349128700,4.377128662109375,-2.1865917598992586,-0.5197152171246707,-0.943840354758501
1761468672359084800,4.387084716796875,-2.437444005033374,-0.21777108265683054,-0.8705943551532924
1761468672369040600,4.39704052734375,-2.339269462007284,0.11100640593990684,-0.5858714045993983
1761468672378996700,4.406996826171875,-1.95019941727221,0.4276214553169906,-0.1859274991504848
1761468672388952800,4.416952880859375,-1.3740093026012181,0.7527009661786258,0.15702084587886928
1761468672398909000,4.426908935546875,-0.6285767199903726,0.996787078178674,0.49356648425906896
1761468672408864800,4.43686474609375,0.14985036972761154,1.1568464149706066,0.7019288833837956
1761468672418820900,4.44682080078125,0.8420148880094289,1.1994354105055332,0.754544475153461
1761468672428776700,4.456776611328125,1.4422399582624434,1.1817429558180272,0.7603232777506113
1761468672438732800,4.46673291015625,1.7539292416751384,1.0715993041872978,0.6466316513147204
1761468672448688600,4.476688720703125,1.8234645501941442,0.9527195345237851,0.4148832620359957
1761468672458645000,4.48664501953125,1.7187088752120732,0.9007165216945111,0.14395648938342928
1761468672468600800,4.496600830078125,1.4591273801773785,0.9148045221492648,-0.03463518698625266
1761468672478556200,4.50655615234375,1.1245692623525858,0.9862193608045577,-0.19362338741533458
1761468672488512300,4.51651220703125,0.9184124835133552,1.0592622390531004,-0.27865057183764874
1761468672498468000,4.526468017578125,0.7605196771055459,1.1255417606465519,-0.31117841128110885
1761468672508424200,4.536424072265625,0.7043430318534374,1.18584045426473,-0.29843137710653245
1761468672518380300,4.54638037109375,0.7231856794893741,1.2311673503309488,-0.20844810464680194
1761468672528336400,4.55633642578125,0.7484294263392687,1.2793845610111951,-0.15324892612472177
1761468672538292200,4.566292236328125,0.8008224613994359,1.3068613276101648,-0.17774762676097453
1761468672548248300,4.576248291015625,0.8221382211506366,1.2983765539899468,-0.23906441138051449
1761468672558204200,4.5862041015625,0.7891746937036513,1.238771249463409,-0.3256679782740772
1761468672568160300,4.59616015625,0.7068184820562601,1.169446514955163,-0.42128779531605537
1761468672578116000,4.6061162109375,0.6069464874625206,1.1154242712579667,-0.5125247210986912
1761468672588072200,4.616072265625,0.4754787466436624,1.0400257697939872,-0.5677474996920675
1761468672598028300,4.6260283203125,0.3189391084104776,0.9789178056195378,-0.6444469276867807
1761468672607984400,4.635984375,0.14951543868482112,0.9467081652797757,-0.6384587931878865
1761468672617940200,4.645940185546875,-0.05664250919818878,0.9079840284794568,-0.5749331734124571
1761468672627896300,4.655896240234375,-0.2232809321194887,0.9260251504741609,-0.4746045210923999
1761468672637852200,4.66585205078125,-0.3062900547176599,0.894750599027425,-0.3407546343773603
1761468672647808300,4.675808349609375,-0.2800000136852264,0.8406589433558285,-0.20111147814840077
1761468672657764000,4.68576416015625,-0.1545750601619482,0.7136294772453605,-0.03899732771851122
1761468672667721200,4.69572119140625,-0.003175707426667213,0.525070168286562,0.08670476224571466
1761468672677677000,4.705677001953125,0.18072013976573942,0.3392186569817364,0.12555537496991453
1761468672687633200,4.715633056640625,0.38723932217657564,0.10497267873361706,0.1452338889081031
1761468672697589200,4.72558935546875,0.5787456443727016,-0.10492606311291455,0.18030301033221185
1761468672707545300,4.73554541015625,0.7038304061561822,-0.2613146024376154,0.21658026543706654
1761468672717501200,4.745501220703125,0.7471890708893537,-0.4151531650185585,0.28502668274082243
1761468672727457300,4.755457275390625,0.7720780129522085,-0.48490226241871714,0.3799843826122582
1761468672737413000,4.7654130859375,0.7446434780597686,-0.528367456266284,0.4305871001895517
1761468672747369200,4.775369140625,0.665700874248147,-0.5540843735858798,0.4246902241706848
1761468672757325000,4.785324951171875,0.6329337461560964,-0.6038187108308076,0.35174532640390094
1761468672767281400,4.795281494140625,0.6735293759167194,-0.7146862928219139,0.29444691058024763
1761468672777237200,4.8052373046875,0.743441701054573,-0.8204659040242434,0.13354973472468554
1761468672787193300,4.815193359375,0.7476870835393666,-0.9981696185782551,-0.046636590425297615
1761468672797149200,4.825149169921875,0.6711094552934169,-1.1356018207594751,-0.2238364471103996
1761468672807105300,4.835105224609375,0.5040829098373651,-1.230669337680936,-0.3385862773623317
1761468672817061000,4.84506103515625,0.26712942619621755,-1.2875950477346778,-0.4606432888224721
1761468672827017200,4.855017333984375,-0.05426175154149532,-1.2935660849682986,-0.5726300110366195
1761468672836973300,4.864973388671875,-0.4231692982137203,-1.243833939680457,-0.6609075755570083
1761468672846929400,4.874929443359375,-0.823439366877079,-1.1048225054837764,-0.695146310571581
1761468672856885200,4.88488525390625,-1.1627262667894362,-0.9144847886756062,-0.6452301870189606
1761468672866841300,4.89484130859375,-1.366051621595025,-0.7396151285037398,-0.5991954349443316
1761468672876797200,4.904797119140625,-1.4413327802896498,-0.578409252025187,-0.5582144591279328
1761468672886753300,4.914753173828125,-1.336454355710745,-0.4700893086902797,-0.47663273898437614
1761468672896709000,4.924709228515625,-1.043715271961689,-0.4098310932129621,-0.35656069079637526
1761468672906665200,4.934665283203125,-0.6592857465088368,-0.4413292242825031,-0.28853264503516257
1761468672916621300,4.944621337890625,-0.2247135952711105,-0.4900274964779615,-0.28116394289806484
1761468672926577400,4.954577392578125,0.15326514660716056,-0.5593094147577882,-0.28025676492527124
1761468672936533200,4.964533203125,0.43445583138167854,-0.6398465942844748,-0.2660099937122315
1761468672946489300,4.9744892578125,0.5882125608980655,-0.7057882622256875,-0.2765934931773692
1761468672956446200,4.9844462890625,0.7076683768838644,-0.7905880676329136,-0.33456827389262617
1761468672966402300,4.99440234375,0.7996545866638421,-0.8497644792228937,-0.3732381962876767
1761468672976358100,5.004358154296875,0.8765823435217142,-0.9015889206148684,-0.3741103029470891
1761468672986314200,5.014314208984375,0.9049386694341898,-0.951243470621854,-0.36814174993149934
1761468672996270000,5.02427001953125,0.893283887475729,-1.0328522249028087,-0.38620179582238195
1761468673006226200,5.03422607421875,0.8096218539267778,-1.1122304436527193,-0.3803396257907152
1761468673016182300,5.044182373046875,0.6180868901580572,-1.1714921954385935,-0.37474100206606087
1761468673026138400,5.054138427734375,0.33176351867020126,-1.2423115524187682,-0.3914139775127172
1761468673036094200,5.06409423828125,-0.025479893693327902,-1.2870422361575067,-0.4158965307317674
1761468673046050300,5.07405029296875,-0.48165129779875276,-1.2631614482238889,-0.4132107257138937
1761468673056006100,5.084006103515625,-0.9899427652418613,-1.1900440434344113,-0.39906989909335966
1761468673065962200,5.093962158203125,-1.467809868326783,-1.1001840320281684,-0.3362017933785915
1761468673075918000,5.10391796875,-1.905840051063895,-1.0599028750441968,-0.2771620137803256
1761468673085874400,5.11387451171875,-2.251319375875592,-1.026320485046506,-0.178111345506832
1761468673095830300,5.123830322265625,-2.3219185142338277,-0.941199484860897,-0.10906849667988718
1761468673105786400,5.133786376953125,-2.1514660859823227,-0.8475966336645185,0.011383929127827286
1761468673115742200,5.1437421875,-2.0370628772109747,-0.7669969102956354,0.27116277336552735
1761468673125698300,5.1536982421875,-2.0950036095261573,-0.6260764276072383,0.4402916979283094
1761468673135654100,5.163654052734375,-2.243130224201083,-0.5291447242490946,0.44122035708054896
1761468673145610200,5.1736103515625,-2.371499999004602,-0.41835619884356856,0.33516704350337384
1761468673155566300,5.18356640625,-2.4543062925070522,-0.19553367801606655,0.146534888504073
1761468673165522400,5.1935224609375,-2.481070380792022,0.038567923325300214,-0.020718232249468563
1761468673175478300,5.203478271484375,-2.4078414784520863,0.25714184679761526,-0.13162694996856153
1761468673185434400,5.213434326171875,-2.1718583011478185,0.4498701120041311,-0.18284816477037966
1761468673195390200,5.22339013671875,-1.6751497194707392,0.6454764168649911,-0.24576588178053496
1761468673205346300,5.23334619140625,-0.9870026201367378,0.803926711025089,-0.2551970694053918
1761468673215302100,5.24330224609375,-0.22496143255233764,0.9806186181880533,-0.1409834649220109
1761468673225258200,5.25325830078125,0.5353700285047293,1.1031412743985651,-0.024335034507140516
1761468673235214300,5.26321435546875,1.2267688231110572,1.194659282144904,0.10967263658549636
1761468673245170400,5.27317041015625,1.88401049657166,1.2759110396817326,0.16313078012652693
1761468673255126300,5.283126220703125,2.3929057751268146,1.3185454817935824,0.22981552152000367
1761468673265082400,5.293082275390625,2.7470477143436667,1.3270176881931721,0.2981603416128084
1761468673275039200,5.303039306640625,2.9579110634386536,1.3477499489679932,0.29722569111119956
1761468673284995300,5.312995361328125,3.0419319934278723,1.3669628912210463,0.28552791026122865
1761468673294951200,5.322951171875,2.9593998406916855,1.338107237484306,0.21104659670740364
1761468673304907300,5.3329072265625,2.6926456775486467,1.3433059751711784,0.07691701626814901
1761468673314863000,5.342863037109375,2.337059969264269,1.3896446786284447,-0.038457667883858085
1761468673324819200,5.352819091796875,1.8865654417514799,1.40775769681558,-0.1316828083416447
1761468673334775300,5.362775390625,1.4210118767946958,1.4285723751768469,-0.23284334490858016
1761468673344731400,5.3727314453125,1.046580013743043,1.5188434516020117,-0.3294844678223133
1761468673354687200,5.382687255859375,0.6930313642442226,1.571974299417436,-0.3716189975880086
1761468673364643300,5.392643310546875,0.45876025155484673,1.6297687551297246,-0.34962468098811805
1761468673374599200,5.40259912109375,0.2728174087047577,1.6790987493574618,-0.23319756517373025
1761468673384555300,5.41255517578125,0.12005319735705852,1.6728892271928488,-0.11461078710742294
1761468673394511000,5.422510986328125,-0.036357261538505554,1.652737250524014,-0.05124247678555548
1761468673404467500,5.432467529296875,-0.22944413092434404,1.635220444664359,0.0015147154118865728
1761468673414423300,5.44242333984375,-0.4720470186293125,1.5851787950359284,-0.042594767688587304
1761468673424379400,5.45237939453125,-0.7241758595705032,1.5301630102567374,-0.10166684212125837
1761468673434335200,5.462335205078125,-0.9807219324320554,1.4634613177284597,-0.2405862141203135
1761468673444291300,5.472291259765625,-1.2126041041582822,1.4162623441800475,-0.41813904896154996
1761468673454247200,5.4822470703125,-1.3485089506417511,1.3325444887906313,-0.5854866430655121
1761468673464203300,5.492203369140625,-1.328285077780485,1.2080962713450192,-0.793041963591054
1761468673474159400,5.502159423828125,-1.1642641438812016,1.0643589776702225,-0.9326473450928926
1761468673484115700,5.51211572265625,-0.8334130638808012,0.8930987401671707,-1.0138122280638664
1761468673494071600,5.522071533203125,-0.3470814993113279,0.7125161091759801,-1.0109049623150377
1761468673504027600,5.532027587890625,0.16557167047262192,0.5428654988266527,-0.9223367442850023
1761468673513983500,5.5419833984375,0.7030500694334506,0.4532391500458121,-0.8020354173857718
1761468673523939600,5.551939697265625,1.1173170992672443,0.30744623901546,-0.6270115165002643
1761468673533895400,5.5618955078125,1.3971435099512337,0.1762163986057043,-0.4207553689397871
1761468673543851500,5.5718515625,1.6103806024402378,0.07082520219907164,-0.28345607242323456
1761468673553807600,5.5818076171875,1.7179022350043058,-0.03539455398619175,-0.20772161700315772
1761468673563763700,5.591763671875,1.6975263864517212,-0.18280907486900685,-0.17124379782490431
1761468673573719600,5.601719482421875,1.5380208841502665,-0.3587736906707287,-0.19215134210139512
1761468673583676700,5.6116767578125,1.3800743017286061,-0.5443516457311809,-0.29655330827496945
1761468673593632500,5.621632568359375,1.1682412308186292,-0.7306231360137462,-0.3803086461305618
1761468673603588600,5.631588623046875,0.8662696238219737,-0.8582498373650014,-0.4392013454083353
1761468673613544400,5.64154443359375,0.573942628005147,-1.0060602256976068,-0.47523215147145087
1761468673623500500,5.65150048828125,0.3442208491832018,-1.1403919776454567,-0.4923607617311179
1761468673633456400,5.661456298828125,0.14919453616738318,-1.2287662805385886,-0.5037939368281513
1761468673643412500,5.67141259765625,0.04333119220435619,-1.288138945353031,-0.42267895741350947
1761468673653368600,5.68136865234375,-0.0368213719189167,-1.349218998607248,-0.3356943553131074
1761468673663324700,5.69132470703125,-0.1882721625804901,-1.4108048094265162,-0.26583127614445984
1761468673673280500,5.701280517578125,-0.3800111244887113,-1.4408083180241287,-0.22543832934908567
1761468673683236600,5.711236572265625,-0.5880260984152555,-1.4303956450812518,-0.18335626042298972
1761468673693192400,5.7211923828125,-0.7732189996808767,-1.3751575958535074,-0.11163520536273717
1761468673703148500,5.7311484375,-0.9388643199115991,-1.3170882687225938,-0.023506986185163257
1761468673713104400,5.7411044921875,-1.0186620792478323,-1.2797421422772108,0.08968494710028171
1761468673723060500,5.751060546875,-1.038358713364601,-1.2546699526019394,0.17668993440158665
1761468673733016600,5.7610166015625,-0.9766536600798368,-1.227493045732379,0.24032741705365476
1761468673742972700,5.77097265625,-0.8919570227861404,-1.1964730535686015,0.3141544314172119
1761468673752928500,5.780928466796875,-0.7877052056729793,-1.1381152648851274,0.39676447169519957
1761468673762884600,5.790884521484375,-0.6085416476994753,-1.1147479794315993,0.47885034196861087
1761468673772840400,5.80084033203125,-0.4102168776601553,-1.1047503170304,0.511352900840342
1761468673782796500,5.810796630859375,-0.16165712737739085,-1.120533869356662,0.5255331096231937
1761468673792752400,5.82075244140625,0.05331365703642368,-1.1331896450512111,0.5476959877230226
1761468673802708700,5.830708740234375,0.15568740531802178,-1.1166513288348912,0.5553017865516245
1761468673812664600,5.84066455078125,0.13717092089653013,-1.109758354450762,0.5054442613184452
1761468673822620700,5.85062060546875,0.042325814554095266,-1.0667080250144003,0.4831713469728827
1761468673832576500,5.860576416015625,-0.11343290243446827,-0.9806547124147414,0.5105830855116248
1761468673842532600,5.87053271484375,-0.29436697721183297,-0.8896024224840104,0.4860082508992403
1761468673852488400,5.880488525390625,-0.45627720256745813,-0.7931168554581701,0.4480778948251158
1761468673862445600,5.890445556640625,-0.5474731387525796,-0.6912132089063525,0.4171301641799509
1761468673872401400,5.9004013671875,-0.5589771140635014,-0.5977773848399519,0.3839485370028764
1761468673882357500,5.910357421875,-0.5837853921055793,-0.519561780128628,0.37659634760916233
1761468673892313600,5.920313720703125,-0.638089229223132,-0.4922371353514492,0.3748513305727392
1761468673902269700,5.930269775390625,-0.6680033059716224,-0.5467093147732317,0.3400486049998551
1761468673912225500,5.9402255859375,-0.5603904879927635,-0.6437149601504206,0.2641385738171637
1761468673922181600,5.950181640625,-0.3117687783896923,-0.7409919698148966,0.14498897423632442
1761468673932137500,5.960137451171875,-0.2195686335980892,-0.8446822075225412,-0.006225596516579389
1761468673942093600,5.970093505859375,-0.43784079764485356,-0.9128888977862895,-0.23386925389021634
1761468673952049400,5.98004931640625,-1.0128910946309566,-0.9313079131826758,-0.49795259038880463
1761468673962005500,5.990005615234375,-1.6655945401400327,-0.8028137813471258,-0.5963882685691118
1761468673971961600,5.999961669921875,-2.1895681453615428,-0.5215813032574952,-0.5976417757615446
1761468673981917700,6.009917724609375,-2.6607752060353755,-0.1991882550008595,-0.518041730954498
1761468673991873500,6.01987353515625,-2.8601912784427403,0.14278949143067002,-0.3549218375481665
1761468674001829600,6.02982958984375,-2.4909306805491447,0.5005110426999628,-0.17409487640708685
1761468674011785500,6.039785400390625,-1.8032634736865758,0.6807550893865525,0.19306611885875463
1761468674021741600,6.049741455078125,-0.9621236149460076,0.8241722111962735,0.4495286781553179
1761468674031697400,6.059697509765625,-0.123931500095129,0.8830114997863769,0.6054100716754793
1761468674041653800,6.06965380859375,0.5642991858690977,0.801341955228895,0.7262127722255886
1761468674051609600,6.079609619140625,1.028489061257243,0.7670042168192565,0.7073444056265056
1761468674061565700,6.089565673828125,1.2661895638734102,0.7632673683784902,0.5382189151298254
1761468674071521500,6.099521484375,1.236084932988882,0.8047844968982041,0.37008397004045546
1761468674081477600,6.1094775390625,0.9690390934228896,0.9120153298221528,0.12764328715987502
1761468674091433500,6.11943359375,0.5909124675065278,1.0311880910828708,-0.10153086771667003
1761468674101389600,6.1293896484375,0.34605274078547954,1.10858273480013,-0.3077100775834173
1761468674111345400,6.139345458984375,0.25654724190533157,1.154479831969738,-0.44110608305111526
1761468674121301800,6.1493017578125,0.36835166635513306,1.2275905147574842,-0.500818501213938
1761468674131258400,6.15925830078125,0.6876479176402092,1.2660679833203554,-0.4522720585793257
1761468674141214700,6.169214599609375,1.0303893419206143,1.2614355012141167,-0.3887188932098448
1761468674151170600,6.179170654296875,1.2662860099852085,1.2210241419792174,-0.37655835368633267
1761468674161126700,6.189126708984375,1.3101064470112322,1.1986869302257894,-0.3660379825852811
1761468674171082500,6.19908251953125,1.1641413942843675,1.1581886233597993,-0.388964684664458
1761468674181038600,6.20903857421875,0.8424071021974087,1.1537246296882628,-0.46545039684325457
1761468674190994400,6.218994384765625,0.5375882890760898,1.2057714816592633,-0.5214002476021647
1761468674200950500,6.228950439453125,0.331402284142375,1.2562779723204671,-0.5338407731108367
1761468674210906600,6.23890673828125,0.20477964526712894,1.3082264784835278,-0.5525445967979729
1761468674220862700,6.24886279296875,0.11785597957372665,1.3131624735809861,-0.5627424579463899
1761468674230818600,6.258818603515625,0.013294365859031676,1.286482264187187,-0.5003958918876946
1761468674240774700,6.268774658203125,-0.06157762751281261,1.2415678944446147,-0.4739588436000049
1761468674250730500,6.27873046875,-0.09414484911859035,1.1660045578077436,-0.4241419426381588
1761468674260686600,6.2886865234375,-0.1123643964201212,1.0887236035980283,-0.37031492925211784
1761468674270642400,6.298642333984375,-0.20053075565099715,0.9915437706977128,-0.36997678333893413
1761468674280598500,6.3085986328125,-0.2569195823490619,0.8708471608705818,-0.45215588485375047
1761468674290554600,6.3185546875,-0.2702384981274605,0.722057552242279,-0.49619259497895835
1761468674300510700,6.3285107421875,-0.25279344232976436,0.5648696792334318,-0.49883887170404195
1761468674310466600,6.338466552734375,-0.10203531010746955,0.38050475322455163,-0.4850615446336567
1761468674320422700,6.348422607421875,0.1957055274516344,0.1289629183910787,-0.4429337368696928
1761468674330378500,6.35837841796875,0.5362357054233551,-0.130307026476413,-0.44560704773217436
1761468674340334600,6.36833447265625,0.8143331003576517,-0.32271643499210473,-0.4397966078877449
1761468674350290400,6.37829052734375,1.0818144087314605,-0.4333225895680487,-0.37771366120129823
1761468674360246800,6.388246826171875,1.2557020721286534,-0.5891572944022715,-0.2562703246600926
1761468674370202600,6.39820263671875,1.3524451210469006,-0.6860531957946717,-0.17697949193269014
1761468674380158700,6.40815869140625,1.3222884677141904,-0.7431761819861828,-0.12304383054040371
1761468674390114600,6.418114501953125,1.1682885770916938,-0.7640582264952361,-0.04869074647612869
1761468674400070700,6.428070556640625,0.9863602305799722,-0.7603916668117046,0.0024245967984199523
1761468674410026500,6.438026611328125,0.7556225527137518,-0.7359323483377694,0.062274085344374175
1761468674419983600,6.447983642578125,0.5345563740342855,-0.7379511408142745,0.08465762045755981
1761468674429939500,6.457939453125,0.4232008623957634,-0.7524186421059071,0.10604220766127109
1761468674439895600,6.4678955078125,0.3588210369437933,-0.8240117599375546,0.1005842345163226
1761468674449851400,6.477851318359375,0.30804128229916095,-0.9127344378769398,0.03823065419495106
1761468674459807700,6.487807861328125,0.23526012372672556,-1.0211581338472664,-0.007584902171045542
1761468674469763600,6.497763671875,0.12754501441717148,-1.1090187881298363,-0.005524462509900331
1761468674479719200,6.50771923828125,-0.012159808871150016,-1.1602898334227503,0.009890987156331538
1761468674489675000,6.517675048828125,-0.230186473724246,-1.1670695566907525,0.04639730177670717
1761468674499631000,6.527631103515625,-0.4619850588202476,-1.1324741902582347,0.09811462953239679
1761468674509587000,6.5375869140625,-0.6509346822708845,-1.0913995448090135,0.16783830023035406
1761468674519543300,6.547543212890625,-0.780906047052145,-1.0616638933673501,0.1850249973528087
1761468674529499100,6.5574990234375,-0.7481985401928425,-1.0229464785687625,0.26345117607489227
1761468674539455200,6.567455322265625,-0.6680231797158718,-1.0009193556778133,0.3470394137352705
1761468674549411000,6.5774111328125,-0.5274304676771163,-0.9795596106544137,0.45115620629191394
1761468674559367000,6.587366943359375,-0.39282033717930315,-0.9828058990992605,0.4929341777049005
1761468674569323000,6.597322998046875,-0.2762368617594242,-0.9997862599946558,0.47747050498276944
1761468674579278800,6.60727880859375,-0.15972235992252826,-1.085253297138959,0.40968277078345416
1761468674589235000,6.61723486328125,-0.06704582979083061,-1.1680749343410133,0.3571371755100787
1761468674599191000,6.62719091796875,-0.0016904373049736023,-1.227785891199112,0.27924839160032566
1761468674609147100,6.637147216796875,0.05113455943167209,-1.2609870267942547,0.21230916398912666
1761468674619103000,6.64710302734375,0.10671733044385909,-1.2653776629686355,0.1703329665903002
1761468674629059000,6.65705908203125,0.11764262908399105,-1.234449440741539,0.11802139926850795
1761468674639015000,6.667014892578125,-0.00014203881919384003,-1.1717829950787126,0.07087649399489164
1761468674648971000,6.676970947265625,-0.21410335392951965,-1.0510954453408718,0.05024133691899478
1761468674658926800,6.6869267578125,-0.4511240575879812,-0.851180337370187,0.008450432959198952
1761468674668883200,6.69688330078125,-0.6617571050584315,-0.6664684976197779,-0.0007449731484055519
1761468674678839000,6.706839111328125,-0.7279834351599216,-0.48185778015628455,-0.0042112610194832084
1761468674688795100,6.716795166015625,-0.7588584658950567,-0.35705665761977434,0.045774493703246114
1761468674698752300,6.726752197265625,-0.6973311072647571,-0.34083836713805793,0.08810885688997805
1761468674708708000,6.7367080078125,-0.5552630619764327,-0.4336404233455658,0.0954055167041719
1761468674718664200,6.746664306640625,-0.3741010236620903,-0.519100153966248,0.028933468213304874
1761468674728620000,6.7566201171875,-0.18352642935812472,-0.5266143289886415,0.030479163285344838
1761468674738576100,6.766576171875,-0.24431144518852232,-0.6425144983194768,0.05312105707377195
1761468674748532000,6.776531982421875,-0.6892115136951208,-0.6449896562613546,-0.00514971091337502
1761468674758488000,6.786488037109375,-1.276611589166522,-0.4572410791635513,-0.11152860318310558
1761468674768444200,6.796444091796875,-1.8049609252542256,-0.2149555868446827,-0.14321297753974793
1761468674778400000,6.80639990234375,-2.4105957455962894,0.04314999041855335,-0.23987945409044623
1761468674788356000,6.816356201171875,-2.915323383077979,0.4199721096076071,-0.4495572466626763
1761468674798312000,6.82631201171875,-3.2698300639539957,0.7540035732097923,-0.5132726168565451
1761468674808268000,6.83626806640625,-3.2108751861602065,1.075819990622252,-0.5596608585439622
1761468674818223900,6.846223876953125,-2.6647926249831912,1.2323095061033964,-0.5095827493626625
1761468674828180000,6.856179931640625,-1.7342027969419955,1.2887174758933484,-0.3644936757527292
1761468674838136000,6.866135986328125,-0.6488035154610872,1.2713732501216233,-0.24731252670064566
1761468674848092200,6.876092041015625,0.3921843773633241,1.212845219437778,-0.09493461125679313
1761468674858048000,6.886048095703125,1.222429332602024,1.1195469041459263,0.035410263011977076
1761468674868004000,6.896004150390625,1.8609879329025745,1.0273131493456662,0.10014971555657684
1761468674877960000,6.9059599609375,2.314834108930826,0.9752660051137209,0.1643152406707406
1761468674887916000,6.915916015625,2.5352023684740064,0.9607612405516207,0.1784584053788334
1761468674897872000,6.925871826171875,2.5276117672145366,0.918956527262181,0.12106748896613716
1761468674907828000,6.935827880859375,2.237417691773176,0.8726664852522313,0.003324029856175184
1761468674917784000,6.9457841796875,1.7393699704468248,0.9375745723620057,-0.18115889650918543
1761468674927740200,6.955740234375,1.274837565231323,1.0595344801232218,-0.32305260814391074
1761468674937696000,6.965696044921875,0.8656962078481912,1.140947273440659,-0.3793432351645082
1761468674947652000,6.975652099609375,0.5534580583810806,1.252371320270747,-0.4165547754447907
1761468674957608000,6.98560791015625,0.36983284482359885,1.2913272200003265,-0.44873935440853235
1761468674967565000,6.99556494140625,0.22089432924389837,1.3163542553596197,-0.4261491177421063
1761468674977521000,7.00552099609375,0.20078443815112113,1.3405042156234384,-0.42351445838958024
1761468674987477000,7.01547705078125,0.24008359836041926,1.311825964280218,-0.3430160034380853
1761468674997432800,7.025432861328125,0.21763094353377818,1.265876552401483,-0.18413002127446232
1761468675007389200,7.03538916015625,0.19676117398440837,1.2561053922325371,0.00991597546711564
1761468675017345000,7.045344970703125,0.14241115963757037,1.2613795332431792,0.1661893639795482
1761468675027301000,7.055301025390625,0.04089958114326,1.2947221231356263,0.25194683543778956
1761468675037257000,7.065257080078125,-0.1232908641040325,1.2996427745334804,0.2637269242763519
1761468675047213000,7.075213134765625,-0.3076525752425194,1.2708986183471978,0.2452881082009524
1761468675057169000,7.0851689453125,-0.4369464791536331,1.196235153159499,0.17915668984130023
1761468675067125000,7.095125,-0.5260001426130533,1.0475900675684213,0.029846126078814265
1761468675077081000,7.1050810546875,-0.5846089834481477,0.9564654430538415,-0.0985407459899783
1761468675087037200,7.115037109375,-0.5950520515292883,0.7925652129247784,-0.21155381557717917
1761468675096993000,7.124992919921875,-0.522380783072114,0.5528593618355692,-0.3371184698320925
1761468675106949000,7.13494921875,-0.3792062378466129,0.3197200296550989,-0.5077686126127838
1761468675116905000,7.144905029296875,-0.14535305830836295,0.13639803682789206,-0.6131500182777643
1761468675126861000,7.154861083984375,0.1412549753397703,0.02060147400200367,-0.608728037117049
1761468675136817000,7.16481689453125,0.4163350682795047,-0.06387099914699793,-0.5468713734671473
1761468675146773000,7.17477294921875,0.6818570592790841,-0.08986994827836751,-0.43470330333672463
1761468675156729000,7.18472900390625,0.8723784620910883,-0.12022037061750888,-0.3064354545377195
1761468675166685200,7.194685302734375,0.9516589195549487,-0.1328393214330077,-0.18023907825052737
1761468675176641000,7.20464111328125,1.0154793575584888,-0.120859837564826,-0.15273907690644264
1761468675186597000,7.21459716796875,1.0675134961783885,-0.16555764194726943,-0.18181779880933463
1761468675196553000,7.224552978515625,1.10721656101346,-0.2597939687415957,-0.24009368136301634
1761468675206509000,7.234509033203125,1.1074953779548407,-0.3623623628124594,-0.33179946676641703
1761468675216465000,7.24446484375,1.0631710830599068,-0.4777550210125744,-0.4224132191494107
1761468675226421000,7.2544208984375,0.9692354927778244,-0.5372114185877144,-0.5185041608344764
1761468675236377000,7.264377197265625,0.8640349966377019,-0.5807365259289741,-0.5674192906510085
1761468675246334000,7.274333984375,0.7279559626311063,-0.6346173153288662,-0.6340108008030801
1761468675256290000,7.2842900390625,0.5536299078166484,-0.6880046221233904,-0.6886483268544078
1761468675266246100,7.29424609375,0.4140612781286239,-0.709492961962521,-0.6976813089419156
1761468675276202000,7.304201904296875,0.3431143492460251,-0.7051037870928645,-0.6370671196337789
1761468675286158000,7.314157958984375,0.2752460971564054,-0.7162951893232763,-0.545523100663349
1761468675296114000,7.324114013671875,0.24251345585584638,-0.7174538578391074,-0.44747064964696764
1761468675306070000,7.334070068359375,0.24164777893722056,-0.7141992399573326,-0.34888825647234917
1761468675316025900,7.34402587890625,0.29720950716137884,-0.7531503173813223,-0.2802041579551995
1761468675325982200,7.353982177734375,0.40050095480978487,-0.8285612399354576,-0.24380035386122761
1761468675335938000,7.36393798828125,0.5032768541514874,-0.9329697089150547,-0.2234212173730135
1761468675345894100,7.37389404296875,0.5370312397152185,-1.0366676915377377,-0.21827822846136985
1761468675355850000,7.38385009765625,0.42302842843830585,-1.1527886640124023,-0.25394042040780185
1761468675365806000,7.39380615234375,0.2035053875476122,-1.2113497201830148,-0.295298558973521
1761468675375762000,7.403761962890625,0.07970832748711108,-1.2122402392819522,-0.2881503677193075
1761468675385718000,7.413718017578125,-0.02546001994907856,-1.234422844995558,-0.250456743010506
1761468675395674000,7.423674072265625,-0.13178513620495796,-1.2292236689172684,-0.23820677163787185
1761468675405630200,7.433630126953125,-0.1985807906270027,-1.2214226397775112,-0.2221135688405484
1761468675415586000,7.4435859375,-0.29322891309261323,-1.2001005964159965,-0.14795608041360975
1761468675425542100,7.453542236328125,-0.4280693452149629,-1.1824712700925766,-0.10259228640310465
1761468675435498000,7.463498046875,-0.5448182403296232,-1.1404473610945045,-0.04801715806350112
1761468675445454000,7.4734541015625,-0.6605547435313462,-1.1121791518568993,0.009340952058136462
1761468675455410000,7.483409912109375,-0.7819640316724776,-1.0586492217212915,0.029691666169464587
1761468675465366000,7.493365966796875,-0.8693605755746364,-1.0011574022173881,0.04793707856461406
1761468675475322000,7.503322021484375,-1.0001602078735827,-0.968076093609631,0.06453479681797325
1761468675485278700,7.51327880859375,-1.1681962226331233,-0.8945033462680876,0.0930279008526355
1761468675495235800,7.52323583984375,-1.2936211761564016,-0.8243469832412899,0.17455314156860113
1761468675505191700,7.533191650390625,-1.223124913650751,-0.7391545252546667,0.19921156281121075
1761468675515148000,7.54314794921875,-1.1043225931376217,-0.6681589349247515,0.17039682560674846
1761468675525103900,7.553103759765625,-1.1599380973756312,-0.6336785731740295,0.09796236158013344
1761468675535060000,7.56306005859375,-1.4247756132423877,-0.5406462153419852,-0.0668992609269917
1761468675545015800,7.573015869140625,-1.7163602662593125,-0.4302651016935706,-0.16918956870883703
1761468675554972000,7.582971923828125,-1.8802946909189222,-0.30896146588400003,-0.2785888317130506
1761468675564927700,7.592927734375,-1.978997057211399,-0.0949661023736,-0.3362598071761429
1761468675574883800,7.6028837890625,-1.917289665839076,0.17703604442551732,-0.2796751656450331
1761468675584840000,7.61283984375,-1.7397019788801669,0.3689543084233999,-0.11044424201250076
1761468675594796000,7.622796142578125,-1.5015361968398093,0.564027237059921,0.04553995429500937
1761468675604752000,7.632751953125,-1.2314940980672835,0.7313197399757803,0.17920966213755307
1761468675614708000,7.6427080078125,-0.9420184000283479,0.8551343356929719,0.2606397719159722
1761468675624663800,7.652663818359375,-0.5380664279818534,0.8733451151661574,0.3535825517684221
1761468675634620000,7.662619873046875,-0.10948679515719413,0.8175022319130599,0.314014803750813
1761468675644575700,7.67257568359375,0.3408364674419164,0.7388122876882552,0.2439493338778615
1761468675654531800,7.68253173828125,0.8171843981355428,0.6393852603830397,0.15034860157333313
1761468675664488000,7.692488037109375,1.2229881355285643,0.5711849998600781,0.07157514378353953
1761468675674444000,7.702444091796875,1.5463631805598734,0.5448312459416688,0.03293517813533545
1761468675684399900,7.71239990234375,1.6892852123290298,0.5084148015618324,0.007250555650144815
1761468675694356000,7.72235595703125,1.6030851847350596,0.5109950273133814,0.028978257203102112
1761468675704311800,7.732311767578125,1.3530734820783137,0.6242566648341715,0.004479045110195875
1761468675714268000,7.742267822265625,1.0694845039904117,0.7758664454497396,-0.07621566306576133
1761468675724223700,7.7522236328125,0.7977817785292863,0.8519500065684318,-0.16975531283281742
1761468675734180000,7.76218017578125,0.602215951809287,0.921801541429758,-0.26347324177622794
1761468675744136700,7.77213671875,0.4310205962359905,0.9378643490888178,-0.34121458003930744
1761468675754093000,7.782093017578125,0.31019290737509725,0.9791755797728896,-0.4831663785368204
1761468675764049000,7.792048828125,0.20177754084169863,1.0139734830401836,-0.662239335617423
1761468675774005000,7.8020048828125,0.09646247841119766,1.0426001503266393,-0.8032045342303812
1761468675783960800,7.8119609375,0.007294248661398888,1.0480226137667894,-0.8769079222142696
1761468675793917000,7.8219169921875,-0.033897008904814716,1.0598222110234201,-0.980374872560054
1761468675803872800,7.831872802734375,-0.09547054476439952,1.1084209683671593,-1.0343390293944625
1761468675813828900,7.841828857421875,-0.09864391410350799,1.1925317685969172,-1.0329883454378694
1761468675823784700,7.85178466796875,-0.09494739767313003,1.31513231234923,-0.9849734523966908
1761468675833741000,7.861740966796875,-0.1005558852046728,1.3761566898934543,-0.9123970956813543
1761468675843697000,7.87169677734375,-0.11932137595117091,1.436775409246236,-0.8350877190947532
1761468675853653000,7.881653076171875,-0.06875555631816387,1.486504924185574,-0.7181591565642506
1761468675863608800,7.89160888671875,0.049859717190265655,1.486235021203011,-0.6165910986423492
1761468675873565000,7.90156494140625,0.18097265322208403,1.414109988451749,-0.6084484164580702
1761468675883520800,7.911520751953125,0.3172644531965256,1.2926285118572414,-0.5967361321587115
1761468675893476900,7.921476806640625,0.5065402398616076,1.1354014758817852,-0.6132817548986524
1761468675903433000,7.931432861328125,0.6501584372013807,0.9578170037932694,-0.6733435710210353
1761468675913389000,7.94138916015625,0.7959668380618095,0.7276233696758747,-0.7499161577656864
1761468675923345000,7.951344970703125,0.9587263737231493,0.49675446664541956,-0.7213310645986348
1761468675933301000,7.961301025390625,1.1408820992499589,0.278977831030637,-0.7061300614006817
1761468675943256800,7.9712568359375,1.300267190042138,0.0918343802191317,-0.6275058028232305
1761468675953213000,7.981212890625,1.3466969327837228,-0.06184212366789579,-0.42899486256204544
1761468675963168800,7.991168701171875,1.296681148248911,-0.1427529588125646,-0.2473929715257138
1761468675973124900,8.001124755859376,1.1717734965980051,-0.2261136713273823,-0.13430574072375892
1761468675983702800,8.011702880859374,0.8804407725155353,-0.3491489532351494,-0.06252981367111206
1761468675993659000,8.021658935546874,0.596551934698224,-0.4403219469361007,-0.06134023856036365
1761468676003615700,8.03161572265625,0.3243517811089754,-0.5179860552445054,-0.07914397160261868
1761468676013572000,8.041572021484376,0.12392857748568058,-0.6167132637172937,-0.0987823727261275
1761468676023528000,8.05152783203125,-0.08125204979777335,-0.7078012094832956,-0.12941015070192516
1761468676033484000,8.061484130859375,-0.16180618045926093,-0.7938022073738277,-0.23372239276543258
1761468676043439900,8.07143994140625,-0.22847616267502308,-0.9078162706971168,-0.351063627750054
1761468676053396000,8.08139599609375,-0.2981003185212612,-1.0036736228220164,-0.4802406272832304
1761468676063351800,8.091351806640626,-0.36484804214835165,-1.1018244927115737,-0.573543399554491
1761468676073308000,8.101307861328126,-0.423727516618371,-1.178093201138824,-0.5953624326527118
1761468676083264000,8.111263916015625,-0.5931453411251306,-1.1917793427944183,-0.6159382607568055
1761468676093220000,8.12122021484375,-0.791383601924777,-1.1591891787044704,-0.6297228943508119
1761468676103176000,8.131176025390625,-0.8799825073540211,-1.0817207390986383,-0.5922306374330073
1761468676113132000,8.141132080078124,-0.8475169925570487,-1.0446939077354966,-0.5085240340899676
1761468676123088000,8.151087890625,-0.768369221562147,-0.9848827053733169,-0.4493230725806206
1761468676133044000,8.1610439453125,-0.7054051081269979,-0.9460824345968664,-0.44791707824021576
1761468676142999800,8.170999755859375,-0.5616437029242515,-0.9173239576242863,-0.4510006504040211
1761468676152956000,8.180955810546875,-0.3836854290872812,-0.9406129171445965,-0.5178769688468426
1761468676162912000,8.190912109375,-0.20986440118551253,-0.99545626796633,-0.5646113205581903
1761468676172867800,8.200867919921874,-0.09288052827119826,-1.0162209697060287,-0.5710724793963134
1761468676182824000,8.210823974609376,0.023723989936709402,-1.0377568019486962,-0.598477130607143
1761468676192779800,8.22077978515625,0.1531844825863838,-1.0604885659776628,-0.6149793525967746
1761468676202735900,8.23073583984375,0.3175631438821554,-1.0697435933180153,-0.6101182493664324
1761468676212691700,8.240691650390625,0.4479992035657167,-1.0810127369597553,-0.5931166264872998
1761468676222647800,8.250647705078125,0.515888498443365,-1.0910478087618947,-0.6068651658546179
1761468676232604000,8.26060400390625,0.47549978943169113,-1.101027497114986,-0.6143600516546517
1761468676242560800,8.270560791015624,0.35994624158143995,-1.060257825961709,-0.5574267428163439
1761468676252516900,8.280516845703126,0.20124036522507666,-0.9660840430095792,-0.524104976516217
1761468676262473000,8.290472900390625,-0.0005494505763053894,-0.8686765388332307,-0.47975576637573536
1761468676272429000,8.300428955078125,-0.11990998949408531,-0.7847454790845513,-0.46531413017772133
1761468676282385000,8.310385009765625,-0.28642040212154385,-0.6993957847096025,-0.4446516467034817
1761468676292341000,8.320341064453125,-0.46285132026076314,-0.6861731689125299,-0.43182029524631793
1761468676302296800,8.330296875,-0.5956757363855838,-0.7213865211129188,-0.40525260631628335
1761468676312253000,8.3402529296875,-0.56216860358119,-0.7437672797471284,-0.34572212059162555
1761468676322833000,8.3508330078125,-0.4124783928513527,-0.7486237798675894,-0.29710210126414893
1761468676332789000,8.3607890625,-0.30252924087941646,-0.7358962541110813,-0.25763021483644843
1761468676342744800,8.370744873046876,-0.4964940621435642,-0.7270379710033535,-0.2644521698109805
1761468676352701000,8.380700927734376,-1.0050380430430172,-0.7076413427464664,-0.35821956391930576
1761468676362656800,8.39065673828125,-1.608205596488714,-0.5476290599666536,-0.5138540700063109
1761468676372612900,8.40061279296875,-2.2227713267832994,-0.3512305818147957,-0.6503098283708095
1761468676382569000,8.41056884765625,-2.7498481587171555,-0.07872428488582373,-0.737468544929102
1761468676392525000,8.420525146484374,-3.0584535046398638,0.20622721372693775,-0.7708787932302802
1761468676402481000,8.43048095703125,-3.121844319054484,0.48408846181780096,-0.8357306931734084
1761468676412437000,8.44043701171875,-2.783607220456004,0.6686670305773615,-0.8493340519163757
1761468676422392800,8.450392822265625,-1.9801468117684125,0.7656834896095097,-0.7805700930960476
1761468676432349000,8.460348876953125,-0.9398954165250062,0.678724314211309,-0.6164481830403208
1761468676442305800,8.470305908203125,0.08213818498253822,0.6717210113205015,-0.4488063552301377
1761468676452262000,8.480261962890625,0.9557470656514168,0.6251430922798812,-0.24811565977707503
1761468676462217700,8.4902177734375,1.5934616163432598,0.6254582957088947,-0.03373308704737574
1761468676472173800,8.500173828125,2.051616303220391,0.6997583344116807,0.08693473507668822
1761468676482129400,8.51012939453125,2.269838782906532,0.7168526770755648,0.1478578807361424
1761468676492085500,8.52008544921875,2.295325690862536,0.747819916138798,0.08694996917843818
1761468676502041300,8.530041259765625,2.148436509028077,0.791543030270189,-0.0204342642089352
1761468676511997400,8.53999755859375,1.8792407979518173,0.8541958857990801,-0.17528357473500072
1761468676521953300,8.549953369140624,1.5450070897758006,0.929404271518439,-0.274781548384577
1761468676531909400,8.559909423828126,1.2609049014687537,1.0193611674278973,-0.3073118720460683
1761468676541865500,8.569865478515625,0.999432478120923,1.0662029981017112,-0.3105680973630398
1761468676551821600,8.579821533203125,0.7617290528953075,1.136908957835287,-0.31035028989389535
1761468676561777400,8.58977734375,0.6172551155090331,1.1985850772865116,-0.32911088526956733
1761468676571733500,8.5997333984375,0.5097720613896847,1.19245227361992,-0.295425765549764
1761468676581689300,8.609689453125,0.42426761484444137,1.2205334358528255,-0.1903770259052515
1761468676591645400,8.6196455078125,0.35260815377831456,1.2327138491205871,-0.016062442332878707
1761468676601601300,8.629601318359375,0.31941783183813094,1.2401317241616547,0.1489482332561165
1761468676611557400,8.639557373046875,0.3179378224134445,1.265702511008829,0.2894146885666996
1761468676621513500,8.649513427734375,0.2611649648338556,1.259525283678621,0.5082645063709468
1761468676631469600,8.659469482421875,0.1934656395703554,1.218052140431106,0.6573695376239717
1761468676641425400,8.66942529296875,0.11118015507161616,1.206278408268094,0.7856895550016313
1761468676651382500,8.679382568359374,-0.0029226094484329224,1.1554643129624427,0.7897215139314532
1761468676661338400,8.68933837890625,-0.18048925361931323,1.087798159316182,0.5883819261156022
1761468676671294500,8.69929443359375,-0.3766571378856897,0.9899420345894991,0.34867907070107756
1761468676681250300,8.709250244140625,-0.5678992561876773,0.8678688757121562,0.18858648922666907
1761468676691206400,8.719206298828125,-0.7223761166721582,0.7633939173676073,0.03054068421423435
1761468676701162200,8.729162353515624,-0.7585211967647075,0.7177062251649796,-0.08321933128274976
1761468676711118300,8.739118408203124,-0.704323158109188,0.6334292745880782,-0.1283418638832867
1761468676721074400,8.749074462890626,-0.6121218442738056,0.5925713406294584,-0.11363390489928424
1761468676731030500,8.759030517578125,-0.5014923088222741,0.6243094179347157,-0.04221628976501524
1761468676740986400,8.768986328125,-0.31538229271173474,0.5827724156707524,0.05029240951910615
1761468676750942500,8.7789423828125,-0.0940641850978136,0.5087045782886446,0.09271656988114119
1761468676760898300,8.788898193359374,0.17914134614169597,0.4781871288195252,0.09916625747717916
1761468676770854400,8.7988544921875,0.4874515085101127,0.37407369726374745,0.1485998582098633
1761468676780810200,8.808810302734376,0.7171329553216695,0.2612358381129801,0.16552410500384865
1761468676790766600,8.8187666015625,0.8280120816200971,0.14302666118741034,0.13882635995335876
1761468676800722400,8.828722412109375,0.82517188975811,0.007478080795705318,0.10128946017622947
1761468676810678500,8.838678466796875,0.7332131525069475,-0.11969546996057033,-0.05282514286711812
1761468676820634400,8.84863427734375,0.6498989094823598,-0.20640958455651998,-0.16093224716894328
1761468676830590500,8.858590576171874,0.5658376474827528,-0.2690864054828882,-0.1606380865279585
1761468676840547300,8.86854736328125,0.3190893305361271,-0.28261268040165305,-0.18692630092948673
1761468676850503400,8.87850341796875,0.11341536677777767,-0.30651494951471686,-0.25770086891986427
1761468676860459300,8.888459228515625,0.06545651477277278,-0.40220980455428357,-0.32170250870920714
1761468676870415400,8.898415283203125,0.09746142632067203,-0.4501300781145692,-0.36662272367067633
1761468676880371500,8.908371337890625,0.18644144002199173,-0.46692134617865083,-0.38516689981669183
1761468676890327600,8.91832763671875,0.20581892518699169,-0.4970366445876658,-0.3182827633935958
1761468676900283400,8.928283447265626,0.1836971097499132,-0.4999956405237317,-0.2510981827192008
1761468676910239500,8.938239501953126,0.1423924549371004,-0.4828558512829244,-0.20050532894879577
1761468676920195300,8.9481953125,0.13255553605556486,-0.5132661871157587,-0.1728678918953985
1761468676930151400,8.9581513671875,0.11325345421433448,-0.5597708947896957,-0.17491057670414448
1761468676940107300,8.968107177734375,0.04879121117591858,-0.6286321034394204,-0.18798034002706407
1761468676950063400,8.9780634765625,0.015033903002738951,-0.678742726650834,-0.2455914019964635
1761468676960019500,8.98801953125,-0.05525953040719032,-0.7358269882671534,-0.2596007111918181
1761468676969975600,8.9979755859375,-0.13157763093411923,-0.7420275964729487,-0.2907732635688037
1761468676979931400,9.007931396484375,-0.1111918455094099,-0.7136172022856772,-0.2554157536573708
1761468676989887500,9.017887451171875,-0.004811784195899963,-0.6770213096857071,-0.23594795986041425
1761468676999843300,9.02784326171875,0.034409050080180165,-0.6963124317415058,-0.19587080101594329
1761468677009799400,9.03779931640625,0.1095014082044363,-0.6968855554543435,-0.2139207639042288
1761468677019755300,9.04775537109375,0.13305179513990878,-0.758663089453429,-0.24739187554717063
1761468677029712400,9.05771240234375,0.09647592241466045,-0.8031345377340913,-0.3820817932829261
1761468677039668200,9.067668212890625,-0.029832828205823895,-0.7672809879340231,-0.49884617822766303
1761468677049624300,9.077624267578125,-0.13898469232022762,-0.7734799887046218,-0.5013653945069759
1761468677059580400,9.087580322265625,-0.2697095058172941,-0.7854032123409211,-0.4457226369358599
1761468677069536500,9.09753662109375,-0.3896849617630243,-0.7275859602749347,-0.37610045385099944
1761468677079492400,9.107492431640624,-0.3474783896744251,-0.6694523357361555,-0.23635018398575483
1761468677089448400,9.117448486328126,-0.18535949000418184,-0.6292981661327183,-0.09149864545874298
1761468677099404300,9.127404296875,-0.14169395127892492,-0.5878440198466182,-0.04198861848898232
1761468677109360400,9.1373603515625,-0.32477088330388065,-0.6126501059316098,-0.05599237472638487
1761468677119316200,9.147316162109375,-0.6025444531112909,-0.6148107910968363,-0.12848996711708605
1761468677129272600,9.1572724609375,-0.7922031016141176,-0.5579052470482886,-0.18950952235572038
1761468677139228400,9.167228515625,-0.849489753934741,-0.5828565868228673,-0.12347360025979577
1761468677149184500,9.1771845703125,-0.5732663361787795,-0.716389735738933,-0.0031563451390713452
1761468677159140400,9.187140380859375,-0.1882674864053726,-0.7883269908331334,0.08388780512884259
1761468677169096400,9.197096435546875,0.12266542568206787,-0.7646389489926397,-0.07465579333789646
1761468677179052300,9.20705224609375,0.24525720160603523,-0.8856514929011463,-0.10004260192029178
1761468677189008400,9.21700830078125,0.23662147520780563,-0.9881222718164324,-0.25720380611792204
1761468677198964500,9.226964599609374,0.07162322070896625,-1.0913048522628843,-0.44525173148848113
1761468677208920600,9.236920654296876,-0.24546353783309457,-1.1455158965304493,-0.6192152366008609
1761468677218877400,9.24687744140625,-0.5871873095035552,-1.0955049343012273,-0.6946474211387336
1761468677228833500,9.25683349609375,-1.1263637445539236,-0.9237143893137574,-0.6898905820004642
