time,seconds_elapsed,z,y,x
1761468668036933600,0.06493359375,0.018980350345373154,-0.24332715570926666,-0.21530696749687195
1761468668046889500,0.074889404296875,0.019646495580673218,-0.23253586888313293,-0.2616698741912842
1761468668056845600,0.084845458984375,0.00414529861882329,-0.21127638220787048,-0.2560617923736572
1761468668066801700,0.0948017578125,-0.011947577819228172,-0.17942754924297333,-0.15862007439136505
1761468668076757800,0.1047578125,-0.03665372356772423,-0.12350942939519882,0.019376015290617943
1761468668086713600,0.114713623046875,-0.06389087438583374,-0.10101956874132156,0.17688456177711487
1761468668096669700,0.124669677734375,-0.06695670634508133,-0.12283565104007721,0.25767210125923157
1761468668106625500,0.13462548828125,-0.05108356103301048,-0.11152656376361847,0.2614932954311371
1761468668116581600,0.14458154296875,-0.026421356946229935,-0.05223048850893974,0.21996024250984192
1761468668126537500,0.154537353515625,0.0016548442654311657,0.010068870149552822,0.15018051862716675
1761468668136493600,0.16449365234375,0.03100980445742607,0.0636383518576622,0.08106323331594467
1761468668146449700,0.17444970703125,0.049305401742458344,0.07690901309251785,0.02561829797923565
1761468668156405800,0.18440576171875,0.056956928223371506,0.04144183546304703,-0.021163586527109146
1761468668166361600,0.194361572265625,0.055145811289548874,-0.024373244494199753,-0.05405549332499504
1761468668176317700,0.204317626953125,0.04289926588535309,-0.08963374048471451,-0.06475767493247986
1761468668186273500,0.2142734375,0.030131200328469276,-0.14344379305839539,-0.07137813419103622
1761468668196228900,0.224228759765625,0.02708693966269493,-0.18045561015605927,-0.08116871118545532
1761468668206184700,0.234184814453125,0.026925818994641304,-0.1833914816379547,-0.0858209878206253
1761468668216140800,0.244140869140625,0.033665478229522705,-0.13609719276428223,-0.06690029054880142
1761468668226096600,0.2540966796875,0.048522815108299255,-0.07618030160665512,-0.03933241590857506
1761468668236052700,0.264052734375,0.07437625527381897,-0.01728103496134281,-0.021810945123434067
1761468668246008600,0.274008544921875,0.10394187271595001,0.03479175642132759,-0.007548121735453606
1761468668255964700,0.283964599609375,0.12478669732809067,0.06735263019800186,0.0012938396539539099
1761468668265920500,0.29392041015625,0.13942044973373413,0.07410639524459839,0.008871383965015411
1761468668275876900,0.303876953125,0.13678684830665588,0.03871351107954979,0.017272325232625008
1761468668285832700,0.313832763671875,0.12344364821910858,-0.006466415710747242,0.03566533699631691
1761468668295788500,0.32378857421875,0.10751686990261078,-0.029092365875840187,0.05367496609687805
1761468668305744600,0.33374462890625,0.09176255017518997,-0.03920647129416466,0.06194845214486122
1761468668315700500,0.343700439453125,0.07892584800720215,-0.052683133631944656,0.06207814812660217
1761468668325656600,0.353656494140625,0.06328769773244858,-0.06576347351074219,0.053176529705524445
1761468668335612400,0.3636123046875,0.04260692372918129,-0.07043732702732086,0.040230900049209595
1761468668345568800,0.37356884765625,0.027585484087467194,-0.060156092047691345,0.03650306537747383
1761468668355524600,0.383524658203125,0.01029038242995739,-0.027854345738887787,0.04535488039255142
1761468668365480700,0.393480712890625,-0.007820790633559227,0.012835085391998291,0.05593167990446091
1761468668375436500,0.4034365234375,-0.02065163291990757,0.03450016677379608,0.05010628327727318
1761468668385392600,0.413392578125,-0.026260145008563995,0.024863528087735176,0.029401103034615517
1761468668395348500,0.423348388671875,-0.021270180121064186,0.006630728952586651,-0.00008009001612663269
1761468668405304600,0.4333046875,-0.02431856095790863,-0.018646353855729103,-0.025747526437044144
1761468668415260700,0.4432607421875,-0.03925516456365585,-0.059753045439720154,-0.04535957798361778
1761468668425216800,0.453216796875,-0.054429106414318085,-0.08417318016290665,-0.04960779845714569
1761468668435172600,0.463172607421875,-0.05799374729394913,-0.09115865081548691,-0.05163020268082619
1761468668445128700,0.473128662109375,-0.05836297199130058,-0.09565990418195724,-0.051805123686790466
1761468668455084500,0.48308447265625,-0.06469783186912537,-0.08629836142063141,-0.04773341864347458
1761468668465040600,0.49304052734375,-0.07538743317127228,-0.04811772331595421,-0.0383918434381485
1761468668474996700,0.502996826171875,-0.07940854132175446,0.01496111135929823,-0.026529060676693916
1761468668484952800,0.512952880859375,-0.0767696350812912,0.058126889169216156,-0.02363303117454052
1761468668494909000,0.522908935546875,-0.06668025255203247,0.06187395751476288,-0.022686010226607323
1761468668504864800,0.53286474609375,-0.06353776156902313,0.031844526529312134,-0.021582508459687233
1761468668514820900,0.54282080078125,-0.06952614337205887,-0.02281658723950386,-0.02119714766740799
1761468668524776700,0.552776611328125,-0.07575183361768723,-0.07967156171798706,-0.029743824154138565
1761468668534732800,0.56273291015625,-0.07581042498350143,-0.10847178101539612,-0.040807392448186874
1761468668544688600,0.572688720703125,-0.07201258093118668,-0.10532612353563309,-0.04509592428803444
1761468668554644700,0.582644775390625,-0.06606707721948624,-0.09973721206188202,-0.04622883349657059
1761468668564600800,0.592600830078125,-0.06350439786911011,-0.086356982588768,-0.034278858453035355
1761468668574557000,0.602556884765625,-0.06529857218265533,-0.05925852432847023,-0.01505722664296627
1761468668584512800,0.6125126953125,-0.06324279308319092,-0.02801135927438736,0.011318882927298546
1761468668594468900,0.62246875,-0.053166188299655914,-0.0011573744704946876,0.03017885610461235
1761468668604424700,0.6324248046875,-0.055862851440906525,0.026985717937350273,0.04292293265461922
1761468668614380800,0.642380859375,-0.05299995467066765,0.0360572449862957,0.051215749233961105
1761468668624336600,0.652336669921875,-0.056349895894527435,0.02923104353249073,0.05545145645737648
1761468668634292700,0.662292724609375,-0.06640279293060303,0.026079991832375526,0.05336114019155502
1761468668644248800,0.672248779296875,-0.0713324323296547,0.03736264258623123,0.05223989486694336
1761468668654205000,0.682204833984375,-0.07380570471286774,0.040093448013067245,0.04527626186609268
1761468668664160800,0.692160888671875,-0.08100368827581406,0.033830348402261734,0.029591675847768784
1761468668674116900,0.702116943359375,-0.08257628232240677,0.009226466529071331,0.007698094472289085
1761468668684072700,0.71207275390625,-0.07670565694570541,-0.014426413923501968,-0.014150160364806652
1761468668694028800,0.72202880859375,-0.07090289145708084,-0.025977343320846558,-0.016837023198604584
1761468668703984600,0.731984619140625,-0.061559371650218964,-0.022871799767017365,-0.014768651686608791
1761468668713940700,0.741940673828125,-0.050971973687410355,-0.021870717406272888,-0.009604781866073608
1761468668723896800,0.751896728515625,-0.04272390529513359,-0.017703792080283165,0.002685338957235217
1761468668733853000,0.76185302734375,-0.031096279621124268,0.006333101540803909,0.023967191576957703
1761468668743808800,0.771808837890625,-0.02504108101129532,0.02462855912744999,0.04221917316317558
1761468668753764900,0.781764892578125,-0.01527873333543539,0.03390328213572502,0.05227047577500343
1761468668763720700,0.791720703125,-0.011329240165650845,0.030699068680405617,0.06013110280036926
1761468668773676800,0.8016767578125,-0.014770577661693096,0.03371110558509827,0.07484426349401474
1761468668783632600,0.811632568359375,-0.02479892037808895,0.03773154690861702,0.08218638598918915
1761468668793589000,0.821589111328125,-0.03791685029864311,0.02130437269806862,0.07983002066612244
1761468668803544800,0.831544921875,-0.04681391641497612,0.000850002805236727,0.07414178550243378
1761468668813501000,0.8415009765625,-0.048232849687337875,-0.020334910601377487,0.07109139859676361
1761468668823456800,0.851456787109375,-0.04633273184299469,-0.03404541313648224,0.07024989277124405
1761468668833412900,0.861412841796875,-0.04095367714762688,-0.021384211257100105,0.0754486471414566
1761468668843368700,0.87136865234375,-0.03484724089503288,0.014123000204563141,0.0851714238524437
1761468668853324800,0.88132470703125,-0.023366088047623634,0.03952955827116966,0.09092065691947937
1761468668863281000,0.891281005859375,-0.012412228621542454,0.04657933488488197,0.08074242621660233
1761468668873237000,0.901237060546875,-0.005000119097530842,0.0400087833404541,0.06487903743982315
1761468668883192800,0.91119287109375,-0.007398351561278105,0.011721879243850708,0.050404973328113556
1761468668893149000,0.92114892578125,-0.014211783185601234,-0.01002469565719366,0.046307168900966644
1761468668903104800,0.931104736328125,-0.02034793421626091,-0.0174627136439085,0.048156194388866425
1761468668913060900,0.941060791015625,-0.021480044350028038,-0.014052802696824074,0.04317688196897507
1761468668923016700,0.9510166015625,-0.014956283383071423,-0.010045102797448635,0.022837582975625992
1761468668932972800,0.960972900390625,-0.009386016055941582,-0.012112781405448914,-0.011699887923896313
1761468668942929000,0.970928955078125,-0.0014256861759349704,-0.022832995280623436,-0.048641666769981384
1761468668952885000,0.980885009765625,0.000015882891602814198,-0.025275645777583122,-0.07487674057483673
1761468668962840800,0.9908408203125,-0.004139215685427189,-0.012223983183503151,-0.08375532180070877
1761468668972797000,1.000796875,-0.00874461978673935,0.010359089821577072,-0.07984260469675064
1761468668982752800,1.010752685546875,-0.012661970220506191,0.018273087218403816,-0.07042205333709717
1761468668992708900,1.020708984375,-0.009176158346235752,0.017426202073693275,-0.06485897302627563
1761468669002664700,1.030664794921875,-0.004468121100217104,0.01680850237607956,-0.059042640030384064
1761468669012620800,1.040620849609375,0.007877761498093605,0.017938748002052307,-0.047483719885349274
1761468669022577000,1.050576904296875,0.023362476378679276,0.019509248435497284,-0.026299860328435898
1761468669032532700,1.06053271484375,0.03952493146061897,0.026968495920300484,-0.006090463139116764
1761468669042488800,1.07048876953125,0.0552174411714077,0.030581524595618248,0.010058823972940445
1761468669052444700,1.080444580078125,0.05956185609102249,0.02674204669892788,0.02092478796839714
1761468669062400800,1.09040087890625,0.05853009223937988,0.028201056644320488,0.0354088731110096
1761468669072356600,1.100356689453125,0.06236850470304489,0.025165852159261703,0.051247488707304
1761468669082312700,1.110312744140625,0.06904413551092148,0.012338370084762573,0.06067395955324173
1761468669092268800,1.120268798828125,0.07596489042043686,-0.00825558789074421,0.06698218733072281
1761468669102225000,1.130224853515625,0.08229120820760727,-0.0316426157951355,0.07262749969959259
1761468669112180700,1.1401806640625,0.08354582637548447,-0.04729215055704117,0.07956770062446594
1761468669122136800,1.15013671875,0.08581317961215973,-0.04748282581567764,0.08443766832351685
1761468669132092700,1.1600927734375,0.08197875320911407,-0.03169320896267891,0.0873759388923645
1761468669142048800,1.170048828125,0.0741938054561615,-0.010800710879266262,0.08640600740909576
1761468669152004600,1.180004638671875,0.05813148245215416,0.017209352925419807,0.08164854347705841
1761468669161961000,1.1899609375,0.038368288427591324,0.027908291667699814,0.06549769639968872
1761468669171916800,1.199916748046875,0.0165743138641119,0.030371714383363724,0.04598071426153183
1761468669181873000,1.209872802734375,-0.004304978530853987,0.032640453428030014,0.020919207483530045
1761468669191828700,1.219828857421875,-0.023427274078130722,0.027519991621375084,-0.007128673605620861
1761468669201784800,1.229784912109375,-0.03487522155046463,0.012671364471316338,-0.033200815320014954
1761468669211740700,1.23974072265625,-0.0437784381210804,-0.006024026311933994,-0.05081602558493614
1761468669221696800,1.24969677734375,-0.04361354187130928,-0.023637093603610992,-0.064638152718544
1761468669231652900,1.25965283203125,-0.0437094122171402,-0.036228518933057785,-0.07621943950653076
1761468669241609000,1.26960888671875,-0.04648474231362343,-0.029815109446644783,-0.07652272284030914
1761468669251564800,1.279564697265625,-0.05045684427022934,-0.01186247356235981,-0.06901846826076508
1761468669261521000,1.28952099609375,-0.05091473087668419,0.014495333656668663,-0.05271901935338974
1761468669271476700,1.299476806640625,-0.045840077102184296,0.03145434334874153,-0.03579782322049141
1761468669281432800,1.309432861328125,-0.04227476939558983,0.030732406303286552,-0.022912543267011642
1761468669291388700,1.319388671875,-0.03468422591686249,0.023893674835562706,-0.01453477144241333
1761468669301344800,1.3293447265625,-0.03014017641544342,0.008076475001871586,-0.013655126094818115
1761468669311300900,1.33930078125,-0.019987141713500023,-0.010489219799637794,-0.009999139234423637
1761468669321257000,1.349257080078125,-0.012473485432565212,-0.018442904576659203,0.0024303540121763945
1761468669331211800,1.359211669921875,-0.0023793058935552835,-0.013962402008473873,0.019000541418790817
1761468669341169000,1.3691689453125,0.008848767727613449,-0.012216545641422272,0.029183151200413704
1761468669351123700,1.379123779296875,0.0195781122893095,-0.005756515543907881,0.03396432101726532
1761468669361079800,1.389079833984375,0.030946513637900352,0.0017899612430483103,0.029080502688884735
1761468669371036000,1.399035888671875,0.04189477115869522,-0.0003453613317105919,0.014473596587777138
1761468669380991700,1.40899169921875,0.04878663644194603,-0.004499047063291073,0.00116935302503407
1761468669390947800,1.41894775390625,0.04873230680823326,-0.01763136126101017,-0.010621792636811733
1761468669400903700,1.428903564453125,0.04669696092605591,-0.030716558918356895,-0.015595028176903725
1761468669410859800,1.43885986328125,0.04465058818459511,-0.04278973489999771,-0.014746278524398804
1761468669420815600,1.448815673828125,0.044086210429668427,-0.04081620275974274,-0.012292224913835526
1761468669430771700,1.458771728515625,0.0460209958255291,-0.039898212999105453,-0.016868600621819496
1761468669440727800,1.468727783203125,0.04365338012576103,-0.03171081468462944,-0.02521228790283203
1761468669450684000,1.478683837890625,0.04121951758861542,-0.01672014780342579,-0.03178070858120918
1761468669460639700,1.4886396484375,0.03612019866704941,-0.008544891141355038,-0.028724199160933495
1761468669470595800,1.498595947265625,0.028781592845916748,-0.008633574470877647,-0.02050595171749592
1761468669480552000,1.508552001953125,0.021289264783263206,-0.012304346077144146,-0.010244842618703842
1761468669490508000,1.518508056640625,0.013009763322770596,-0.005653101485222578,-0.004567516036331654
1761468669500463900,1.5284638671875,0.016243696212768555,0.0036617079749703407,-0.009210688062012196
1761468669510420000,1.538419921875,0.021673882380127907,0.008948348462581635,-0.019628707319498062
1761468669520376000,1.5483759765625,0.0236833356320858,0.010327658616006374,-0.02643224038183689
1761468669530332200,1.558332275390625,0.024084674194455147,0.005396549589931965,-0.02792574279010296
1761468669540288000,1.5682880859375,0.020801397040486336,0.0010734873358160257,-0.02494448982179165
1761468669550244000,1.578244140625,0.01938938908278942,-0.0017561212880536914,-0.017396824434399605
1761468669560200000,1.588199951171875,0.020433228462934494,0.0015618118923157454,-0.012833818793296814
1761468669570156000,1.598156005859375,0.02366657182574272,0.011447199620306492,-0.007006821688264608
1761468669580112000,1.60811181640625,0.03372560068964958,0.024389723315835,0.0022995483595877886
1761468669590068200,1.618068115234375,0.03889346495270729,0.030239088460803032,0.010861877351999283
1761468669600024000,1.628024169921875,0.0406283363699913,0.032275281846523285,0.005482500419020653
1761468669609980200,1.637980224609375,0.03410439193248749,0.027931666001677513,-0.014330619014799595
1761468669619936000,1.64793603515625,0.01977568306028843,0.007719452027231455,-0.04876262694597244
1761468669629892000,1.65789208984375,0.00531764654442668,-0.0068443105556070805,-0.08620481193065643
1761468669639848000,1.667847900390625,-0.010950567200779915,-0.018449101597070694,-0.10808363556861877
1761468669649804000,1.677803955078125,-0.019074274227023125,-0.029148617759346962,-0.12051527202129364
1761468669659759900,1.687759765625,-0.014454827643930912,-0.025391781702637672,-0.11555603891611099
1761468669669716200,1.69771630859375,-0.008508788421750069,-0.018792733550071716,-0.09906547516584396
1761468669679672000,1.707672119140625,0.0003109776880592108,-0.008079401217401028,-0.07661492377519608
1761468669689628200,1.717628173828125,0.006137974560260773,0.012241050601005554,-0.055141326040029526
1761468669699584000,1.727583984375,0.009788432158529758,0.02794194594025612,-0.03854529932141304
1761468669709540000,1.7375400390625,0.014096361584961414,0.03511889651417732,-0.02752460539340973
1761468669719496000,1.747495849609375,0.023033658042550087,0.029183950275182724,-0.021909818053245544
1761468669729452000,1.7574521484375,0.02690349705517292,0.009348461404442787,-0.018356095999479294
1761468669739408100,1.767408203125,0.03463726118206978,-0.024951858446002007,-0.012548589147627354
1761468669749364200,1.7773642578125,0.031170090660452843,-0.041431766003370285,-0.013563520275056362
1761468669759320000,1.787320068359375,0.028864236548542976,-0.05025830864906311,-0.022678883746266365
1761468669769276200,1.797276123046875,0.027606956660747528,-0.05019119754433632,-0.032679587602615356
1761468669779232000,1.80723193359375,0.028325188905000687,-0.04087916389107704,-0.03989003598690033
1761468669789188000,1.81718798828125,0.0223341416567564,-0.03340926393866539,-0.047021448612213135
1761468669799144000,1.82714404296875,0.01621599867939949,-0.03296954184770584,-0.04389117285609245
1761468669809100000,1.83710009765625,0.012711811810731888,-0.0203741192817688,-0.044021666049957275
1761468669819056000,1.84705615234375,0.014819272793829441,-0.014390910044312477,-0.041070617735385895
1761468669829012200,1.85701220703125,0.022515542805194855,-0.013716330751776695,-0.02888638898730278
1761468669838968000,1.866968017578125,0.02844308689236641,-0.01983504369854927,-0.01484838966280222
1761468669848924200,1.876924072265625,0.031178953126072884,-0.02555125206708908,-0.014216155745089054
1761468669858880000,1.8868798828125,0.040520165115594864,-0.05136743560433388,-0.027344902977347374
1761468669868836000,1.896836181640625,0.0366537868976593,-0.06064242497086525,-0.055029258131980896
1761468669878792000,1.9067919921875,0.03007795475423336,-0.052394866943359375,-0.08912043273448944
1761468669888748300,1.916748291015625,0.024402493610978127,-0.0344102717936039,-0.11588600277900696
1761468669898704100,1.9267041015625,0.017982009798288345,-0.022852998226881027,-0.13244831562042236
1761468669908660200,1.93666015625,0.008058273233473301,-0.02413211390376091,-0.1424655318260193
1761468669918616000,1.946615966796875,-0.002549363300204277,-0.024597635492682457,-0.1432785987854004
1761468669928572200,1.956572265625,-0.013791631907224655,-0.02509431540966034,-0.13228346407413483
1761468669938528000,1.966528076171875,-0.024309983476996422,-0.0122626181691885,-0.12309293448925018
1761468669948483800,1.97648388671875,-0.02658672071993351,0.004958446603268385,-0.1231379508972168
1761468669958440200,1.986440185546875,-0.02213994599878788,0.029020166024565697,-0.140266552567482
1761468669968396000,1.99639599609375,-0.010229489766061306,0.04614482820034027,-0.16475990414619446
1761468669978352000,2.00635205078125,0.0008179083233699203,0.04687434807419777,-0.18843583762645721
1761468669988308000,2.016307861328125,0.013106266036629677,0.025742432102560997,-0.20667849481105804
1761468669998264000,2.02626416015625,0.0297617819160223,-0.008539397269487381,-0.22463305294513702
1761468670008220000,2.036219970703125,0.04713411256670952,-0.02380676567554474,-0.23580527305603027
1761468670018176000,2.046176025390625,0.062079280614852905,-0.008394960314035416,-0.24157923460006714
1761468670028131800,2.0561318359375,0.08134325593709946,0.017917603254318237,-0.24643443524837494
1761468670038088200,2.066088134765625,0.09641317278146744,0.03916057199239731,-0.24351172149181366
1761468670048044000,2.0760439453125,0.10697633028030396,0.05038126930594444,-0.23248916864395142
1761468670058000100,2.086000244140625,0.11103109270334244,0.05976796895265579,-0.21677613258361816
1761468670067956000,2.0959560546875,0.11342873424291611,0.07440443336963654,-0.2111739069223404
1761468670077912000,2.105912109375,0.11288610100746155,0.07169743627309799,-0.22511284053325653
1761468670087868000,2.115867919921875,0.10936859995126724,0.06233828142285347,-0.25700870156288147
1761468670097824000,2.125823974609375,0.10708580911159515,0.05431923270225525,-0.29406431317329407
1761468670107780000,2.135780029296875,0.1097622811794281,0.03204188868403435,-0.31563618779182434
1761468670117736200,2.145736083984375,0.11546056717634201,-0.008388536982238293,-0.3167142868041992
1761468670127692000,2.155692138671875,0.10868308693170547,-0.02459440380334854,-0.280938982963562
1761468670137648000,2.165648193359375,0.09379859268665314,-0.021337028592824936,-0.21933123469352722
1761468670147604000,2.17560400390625,0.07801377028226852,0.009759105741977692,-0.13908618688583374
1761468670157560000,2.18556005859375,0.06293144822120667,0.07245922833681107,-0.04841109365224838
1761468670167516000,2.195515869140625,0.05473557114601135,0.1313347965478897,0.028224559500813484
1761468670177472000,2.205471923828125,0.05065976828336716,0.17011745274066925,0.07482215762138367
1761468670187428000,2.215427978515625,0.053345032036304474,0.18966132402420044,0.09130819141864777
1761468670197384200,2.22538427734375,0.05934997275471687,0.1763620525598526,0.08853445202112198
1761468670207340000,2.235340087890625,0.06458122283220291,0.14556366205215454,0.07389825582504272
1761468670217296100,2.245296142578125,0.07140520960092545,0.09391454607248306,0.05377711355686188
1761468670227252000,2.255251953125,0.07852917164564133,0.042953360825777054,0.025576366111636162
1761468670237208000,2.2652080078125,0.08731244504451752,0.007885769940912724,-0.016950851306319237
1761468670247164000,2.275163818359375,0.09873660653829575,-0.0019396968418732285,-0.06358786672353745
1761468670257120300,2.285120361328125,0.1086021363735199,-0.0003707293653860688,-0.11225654184818268
1761468670267076000,2.295076171875,0.12070167809724808,0.012664112262427807,-0.16119933128356934
1761468670277032200,2.3050322265625,0.13293689489364624,0.028579700738191605,-0.19780251383781433
1761468670286988000,2.314988037109375,0.14421990513801575,0.031340066343545914,-0.21965907514095306
1761468670296944000,2.324944091796875,0.15462133288383484,0.02004716731607914,-0.22379937767982483
1761468670306900000,2.33489990234375,0.17254891991615295,0.00020741557818837464,-0.21405087411403656
1761468670316856000,2.34485595703125,0.1887790560722351,-0.002567967865616083,-0.19169752299785614
1761468670326812000,2.35481201171875,0.2071000039577484,0.0012813652865588665,-0.15908126533031464
1761468670336768300,2.364768310546875,0.2227005809545517,-0.0017399752978235483,-0.12395687401294708
1761468670346724000,2.37472412109375,0.23322245478630066,0.0021242713555693626,-0.08961807936429977
1761468670356680200,2.38468017578125,0.24251289665699005,0.011419648304581642,-0.04927688091993332
1761468670366636000,2.394635986328125,0.23669707775115967,0.014095060527324677,-0.009212288074195385
1761468670376592100,2.404592041015625,0.22058571875095367,0.017036626115441322,0.018459441140294075
1761468670386548000,2.4145478515625,0.19131065905094147,0.02370358444750309,0.03347833827137947
1761468670396504000,2.424504150390625,0.16708648204803467,0.028261886909604073,0.03851357474923134
1761468670406460200,2.434460205078125,0.14647042751312256,0.015466728247702122,0.04087579995393753
1761468670416416300,2.444416259765625,0.13150525093078613,-0.005086714401841164,0.03775110840797424
1761468670426372000,2.4543720703125,0.1210387721657753,-0.028682855889201164,0.0281623974442482
1761468670436328200,2.464328125,0.11092419177293777,-0.038775283843278885,0.01450197584927082
1761468670446284000,2.474283935546875,0.10113121569156647,-0.040946558117866516,0.004320711828768253
1761468670456240000,2.484240234375,0.08738827705383301,-0.048246439546346664,0.006031160242855549
1761468670466196000,2.494196044921875,0.0659671425819397,-0.05910255014896393,0.01527019776403904
1761468670476151600,2.504151611328125,0.04545339196920395,-0.06966632604598999,0.027614209800958633
1761468670486107400,2.514107421875,0.029384944587945938,-0.08004892617464066,0.04233616590499878
1761468670496063500,2.5240634765625,0.01544453576207161,-0.0789007693529129,0.046069975942373276
1761468670506019300,2.534019287109375,-0.0008673258125782013,-0.08022356033325195,0.03166547045111656
1761468670515975400,2.543975341796875,-0.020261410623788834,-0.08677590638399124,-0.004641085397452116
1761468670525931300,2.55393115234375,-0.041640203446149826,-0.10371813923120499,-0.041118402034044266
1761468670535887400,2.563887451171875,-0.06051412969827652,-0.12357029318809509,-0.05629362538456917
1761468670545843500,2.573843505859375,-0.0631948709487915,-0.12801723182201385,-0.044594358652830124
1761468670555799600,2.583799560546875,-0.054938726127147675,-0.12307947874069214,-0.01825687289237976
1761468670565755400,2.59375537109375,-0.04011530429124832,-0.1133648008108139,0.013186270371079445
1761468670575711500,2.60371142578125,-0.018995119258761406,-0.09378519654273987,0.05283482372760773
1761468670585667300,2.613667236328125,0.0005407652352005243,-0.0838414803147316,0.09983934462070465
1761468670595623400,2.62362353515625,0.019450701773166656,-0.09126359224319458,0.1473349630832672
1761468670605579300,2.633579345703125,0.031712427735328674,-0.11308233439922333,0.1878107488155365
1761468670615535600,2.64353564453125,0.03989848122000694,-0.1423196941614151,0.22290199995040894
1761468670625491500,2.653491455078125,0.03968010097742081,-0.1555449515581131,0.257418692111969
1761468670635448600,2.663448486328125,0.032057587057352066,-0.1595476269721985,0.2917177677154541
1761468670645404400,2.673404296875,0.01933273673057556,-0.1497408002614975,0.3207603394985199
1761468670655360500,2.683360595703125,-0.00013848947128280997,-0.12404286116361618,0.332743763923645
1761468670665316400,2.69331640625,-0.0142409922555089,-0.09741710871458054,0.2966845631599426
1761468670675272400,2.7032724609375,-0.024802884086966515,-0.0923234149813652,0.1992460936307907
1761468670685228300,2.713228271484375,-0.039544280618429184,-0.1359984576702118,0.03258441761136055
1761468670695184400,2.723184326171875,-0.06595221906900406,-0.22336219251155853,-0.1532772183418274
1761468670705140500,2.733140380859375,-0.10054747760295868,-0.2760102450847626,-0.2921845018863678
1761468670715096600,2.7430966796875,-0.15240861475467682,-0.2546080946922302,-0.35015445947647095
1761468670725052400,2.753052490234375,-0.21022877097129822,-0.14731118083000183,-0.3078850209712982
1761468670735008500,2.763008544921875,-0.2564113736152649,0.018743019551038742,-0.16718792915344238
1761468670744964400,2.77296435546875,-0.26904594898223877,0.20894384384155273,0.043954141438007355
1761468670754920400,2.78292041015625,-0.2466309815645218,0.38514071702957153,0.2796495854854584
1761468670764876300,2.792876220703125,-0.19184044003486633,0.5230128765106201,0.4599652886390686
1761468670774832400,2.802832275390625,-0.11968940496444702,0.583579957485199,0.5882590413093567
1761468670784788500,2.81278857421875,-0.03970535844564438,0.5464826822280884,0.6681869029998779
1761468670794744600,2.82274462890625,0.0411444716155529,0.44145455956459045,0.6889195442199707
1761468670804700400,2.832700439453125,0.10720951110124588,0.29106852412223816,0.6522930860519409
1761468670814656500,2.842656494140625,0.14618641138076782,0.1295352578163147,0.5687572956085205
1761468670824612400,2.8526123046875,0.17668920755386353,-0.0007636217633262277,0.4625120162963867
1761468670834568400,2.862568359375,0.20378868281841278,-0.09223390370607376,0.3499903380870819
1761468670844524300,2.872524169921875,0.21028999984264374,-0.14705480635166168,0.25600364804267883
1761468670854480400,2.88248046875,0.19827032089233398,-0.17061026394367218,0.19685254991054535
1761468670864436500,2.8924365234375,0.1655041128396988,-0.1604796051979065,0.17958275973796844
1761468670874392600,2.902392578125,0.12830626964569092,-0.16517123579978943,0.1961231678724289
1761468670884348400,2.912348388671875,0.09306545555591583,-0.17393463850021362,0.2329767793416977
1761468670894304500,2.922304443359375,0.06745383143424988,-0.19304299354553223,0.2691139578819275
1761468670904260400,2.93226025390625,0.04162249341607094,-0.23091952502727509,0.28125718235969543
1761468670914216400,2.942216552734375,0.002595073077827692,-0.2750290036201477,0.2709013819694519
1761468670924172300,2.95217236328125,-0.03394509479403496,-0.31563952565193176,0.23751892149448395
1761468670934128600,2.962128662109375,-0.075618676841259,-0.337502121925354,0.18984584510326385
1761468670944084500,2.97208447265625,-0.1159871369600296,-0.34499093890190125,0.13560257852077484
1761468670954040600,2.98204052734375,-0.16704536974430084,-0.33773595094680786,0.07815290987491608
1761468670963996400,2.991996337890625,-0.2173580825328827,-0.29965806007385254,0.010707293637096882
1761468670973952500,3.001952392578125,-0.2663756012916565,-0.23115088045597076,-0.052841756492853165
1761468670983908400,3.011908447265625,-0.30002039670944214,-0.1464485079050064,-0.11505346745252609
1761468670993864400,3.021864501953125,-0.3248564302921295,-0.026591474190354347,-0.17459310591220856
1761468671003820500,3.031820556640625,-0.34669968485832214,0.1149081289768219,-0.21799863874912262
1761468671013776600,3.041776611328125,-0.36291971802711487,0.2511901557445526,-0.24951589107513428
1761468671023732500,3.051732421875,-0.36999091506004333,0.35345926880836487,-0.256451278924942
1761468671033688600,3.0616884765625,-0.37026962637901306,0.4034101665019989,-0.23854473233222961
1761468671043644400,3.07164453125,-0.36340051889419556,0.4132079482078552,-0.20590955018997192
1761468671053600500,3.0816005859375,-0.340382844209671,0.40658169984817505,-0.17254434525966644
1761468671063556400,3.091556396484375,-0.29859891533851624,0.400195449590683,-0.15843863785266876
1761468671073512400,3.101512451171875,-0.24850301444530487,0.3754962086677551,-0.1562497913837433
1761468671083468500,3.111468505859375,-0.19841720163822174,0.32664692401885986,-0.16490985453128815
1761468671093424400,3.12142431640625,-0.14850620925426483,0.27286219596862793,-0.17148950695991516
1761468671103380500,3.13138037109375,-0.10772736370563507,0.22558709979057312,-0.16309548914432526
1761468671113336300,3.14133642578125,-0.0681670755147934,0.18122518062591553,-0.13996493816375732
1761468671123292400,3.15129248046875,-0.03576572611927986,0.14486050605773926,-0.11085285246372223
1761468671133248300,3.161248291015625,-0.008197586052119732,0.10989437997341156,-0.08008694648742676
1761468671143204400,3.171204345703125,0.01634451001882553,0.05886555090546608,-0.05197196081280708
1761468671153160400,3.181160400390625,0.031778376549482346,0.02370774932205677,-0.008320357650518417
1761468671163116500,3.191116455078125,0.0402887724339962,-0.011593781411647797,0.04593648761510849
1761468671173072400,3.201072265625,0.042182259261608124,-0.05479175224900246,0.08556341379880905
1761468671183028500,3.211028564453125,0.04719246178865433,-0.09566807746887207,0.09919054061174393
1761468671192984300,3.220984375,0.04916684702038765,-0.13432171940803528,0.07995757460594177
1761468671202940400,3.2309404296875,0.04183835908770561,-0.14936885237693787,0.03204730525612831
1761468671212896300,3.240896240234375,0.021146472543478012,-0.15111179649829865,-0.03726641461253166
1761468671222852400,3.250852294921875,-0.004585522226989269,-0.13380764424800873,-0.12131684273481369
1761468671232808400,3.260808349609375,-0.02874079719185829,-0.0857173427939415,-0.19436831772327423
1761468671242764500,3.2707646484375,-0.04180200770497322,-0.0415530763566494,-0.23024775087833405
1761468671252720400,3.280720458984375,-0.04559684544801712,-0.008965409360826015,-0.21802277863025665
1761468671262676500,3.290676513671875,-0.04371399059891701,0.012645609676837921,-0.16516143083572388
1761468671272632300,3.30063232421875,-0.04138973355293274,0.03714998438954353,-0.07346314191818237
1761468671282588400,3.31058837890625,-0.043651822954416275,0.0719124898314476,0.026203535497188568
1761468671292545300,3.320545166015625,-0.04011527821421623,0.10961108654737473,0.11403874307870865
1761468671302501400,3.33050146484375,-0.028308948501944542,0.1288929134607315,0.1778419464826584
1761468671312457200,3.340457275390625,-0.017645131796598434,0.1341782659292221,0.21089331805706024
1761468671322413600,3.35041357421875,-0.005771960131824017,0.13554419577121735,0.2296731323003769
1761468671332369400,3.360369384765625,0.003145602997392416,0.11823464930057526,0.2221362441778183
1761468671342325500,3.370325439453125,0.006889208685606718,0.09665079414844513,0.20492742955684662
1761468671352281300,3.38028125,0.007357094902545214,0.09661238640546799,0.17829272150993347
1761468671362237400,3.390237548828125,0.006985051557421684,0.10350651293992996,0.15166696906089783
1761468671372193300,3.400193359375,0.0016294223023578525,0.10191532224416733,0.1218259260058403
1761468671382149400,3.4101494140625,-0.005140332970768213,0.08892761915922165,0.10093875229358673
1761468671392105200,3.420105224609375,-0.010165780782699585,0.05463794991374016,0.09095078706741333
1761468671402061600,3.4300615234375,-0.010600408539175987,0.006329807452857494,0.09302139282226562
1761468671412017400,3.440017333984375,-0.0013918038457632065,-0.027829311788082123,0.11484269797801971
1761468671421973500,3.449973388671875,0.008245909586548805,-0.045525215566158295,0.15188060700893402
1761468671431929300,3.459929443359375,0.026287630200386047,-0.06285152584314346,0.19120873510837555
1761468671441885400,3.469885498046875,0.04825551435351372,-0.06994858384132385,0.22019191086292267
1761468671451841300,3.47984130859375,0.07153470814228058,-0.0823078528046608,0.2550314962863922
1761468671461797400,3.48979736328125,0.08855070918798447,-0.08727278560400009,0.280452698469162
1761468671471753500,3.49975341796875,0.09223821014165878,-0.06283904612064362,0.2804233133792877
1761468671481709800,3.509709716796875,0.09045202285051346,-0.01887318305671215,0.22934040427207947
1761468671491666000,3.519666015625,0.08858335018157959,0.03603094443678856,0.11818384379148483
1761468671501621800,3.529621826171875,0.09634885936975479,0.07501110434532166,-0.017900491133332253
1761468671511577900,3.539577880859375,0.09656831622123718,0.07641027122735977,-0.12567058205604553
1761468671521533700,3.54953369140625,0.08413268625736237,0.01694881170988083,-0.16590534150600433
1761468671531489800,3.55948974609375,0.05698014423251152,-0.08391090482473373,-0.14707152545452118
1761468671541445600,3.569445556640625,0.027300816029310226,-0.18496082723140717,-0.06533351540565491
1761468671551401700,3.579401611328125,0.008207791484892368,-0.20062650740146637,0.08198630809783936
1761468671561357800,3.58935791015625,0.024239754304289818,-0.11084255576133728,0.27454590797424316
1761468671571314000,3.59931396484375,0.08234240859746933,0.04967321828007698,0.4767405092716217
1761468671581269800,3.609269775390625,0.160346120595932,0.22951915860176086,0.6428860425949097
1761468671591225900,3.619225830078125,0.24256034195423126,0.3860888183116913,0.7462598085403442
1761468671601181700,3.629181640625,0.3200404942035675,0.4738676846027374,0.800004780292511
1761468671611137800,3.6391376953125,0.3866831660270691,0.4746631979942322,0.7979538440704346
1761468671621093600,3.64909375,0.44797876477241516,0.40107420086860657,0.7303681373596191
1761468671631050000,3.659050048828125,0.49433958530426025,0.2941085994243622,0.6227599382400513
1761468671641005800,3.669005859375,0.5189903378486633,0.16437482833862305,0.49052783846855164
1761468671650962000,3.6789619140625,0.5228348970413208,0.04089565947651863,0.3523158133029938
1761468671660917800,3.688917724609375,0.5125494599342346,-0.0668097659945488,0.22917205095291138
1761468671670873900,3.698873779296875,0.4906999468803406,-0.17140403389930725,0.12991714477539062
1761468671680829700,3.70882958984375,0.4638022780418396,-0.26747143268585205,0.0745588093996048
1761468671690785800,3.718785888671875,0.4301275312900543,-0.34003251791000366,0.06108001992106438
1761468671700742000,3.728741943359375,0.39350852370262146,-0.3975863754749298,0.06477196514606476
1761468671710698000,3.738697998046875,0.36141496896743774,-0.43034881353378296,0.0648377388715744
1761468671720653800,3.74865380859375,0.3343498110771179,-0.41651153564453125,0.057643476873636246
1761468671730610000,3.75860986328125,0.30984294414520264,-0.3567628860473633,0.02222748100757599
1761468671740565800,3.768565673828125,0.28970250487327576,-0.28296908736228943,-0.035673100501298904
1761468671750521900,3.77852197265625,0.26396507024765015,-0.21816648542881012,-0.10901761800050735
1761468671760477700,3.788477783203125,0.23763012886047363,-0.1836303472518921,-0.18007446825504303
1761468671770434800,3.798434814453125,0.22030462324619293,-0.1702878773212433,-0.22658579051494598
1761468671780390700,3.808390625,0.22086867690086365,-0.16993235051631927,-0.24359087646007538
1761468671790346800,3.8183466796875,0.23205432295799255,-0.180718794465065,-0.24002277851104736
1761468671800302800,3.828302734375,0.25168555974960327,-0.1994706392288208,-0.21662822365760803
1761468671810259000,3.838259033203125,0.27542179822921753,-0.2248302549123764,-0.18315240740776062
1761468671820214800,3.84821484375,0.2955595552921295,-0.22185364365577698,-0.14483004808425903
1761468671830171000,3.8581708984375,0.30205801129341125,-0.18936043977737427,-0.10576148331165314
1761468671840126700,3.868126708984375,0.2920152246952057,-0.1251327246427536,-0.07857087254524231
1761468671850082800,3.878082763671875,0.26469704508781433,-0.026548730209469795,-0.06111140549182892
1761468671860038700,3.88803857421875,0.2274191826581955,0.08137906342744827,-0.06790699064731598
1761468671869994800,3.897994873046875,0.179531067609787,0.18230435252189636,-0.09856908768415451
1761468671879950800,3.907950927734375,0.12224221974611282,0.25868114829063416,-0.1462191492319107
1761468671889907000,3.917906982421875,0.06411431729793549,0.30546554923057556,-0.1946534961462021
1761468671899862800,3.92786279296875,0.01410361472517252,0.3082043528556824,-0.2288828343153
1761468671909819000,3.93781884765625,-0.013662534765899181,0.27790921926498413,-0.23677019774913788
1761468671919774700,3.947774658203125,-0.020688753575086594,0.23580330610275269,-0.22365546226501465
1761468671929730800,3.957730712890625,-0.007279371842741966,0.18325673043727875,-0.20674525201320648
1761468671939686700,3.967686767578125,0.020871039479970932,0.12834739685058594,-0.1863049566745758
1761468671949643000,3.97764306640625,0.055755581706762314,0.0699782446026802,-0.17916657030582428
1761468671959598800,3.987598876953125,0.09050371497869492,0.014864389784634113,-0.1778711974620819
1761468671969555000,3.997554931640625,0.11795229464769363,-0.024586379528045654,-0.18241018056869507
1761468671979510800,4.0075107421875,0.12485653907060623,-0.05536799505352974,-0.19150620698928833
1761468671990088700,4.018088623046875,0.11407237499952316,-0.07903788238763809,-0.20580583810806274
1761468672000044800,4.028044921875,0.08105237782001495,-0.09407329559326172,-0.2396482229232788
1761468672010000600,4.038000732421875,0.028673022985458374,-0.11362149566411972,-0.2879487872123718
1761468672019956700,4.047956787109375,-0.02581498585641384,-0.13189637660980225,-0.33236950635910034
1761468672029912800,4.057912841796875,-0.07637135684490204,-0.1542702168226242,-0.3592069447040558
1761468672039869000,4.067868896484375,-0.12762922048568726,-0.20646418631076813,-0.36857274174690247
1761468672049824800,4.07782470703125,-0.16899730265140533,-0.26726868748664856,-0.3639637231826782
1761468672059780900,4.08778076171875,-0.20710979402065277,-0.2992934584617615,-0.34734585881233215
1761468672069736700,4.09773681640625,-0.23349574208259583,-0.30254197120666504,-0.32298529148101807
1761468672079692800,4.10769287109375,-0.25199005007743835,-0.2761833369731903,-0.30322569608688354
1761468672089648600,4.117648681640625,-0.2686501443386078,-0.22811664640903473,-0.28596675395965576
1761468672099604700,4.127604736328125,-0.28476279973983765,-0.15418383479118347,-0.26718056201934814
1761468672109560800,4.137560791015625,-0.2857029139995575,-0.06684345752000809,-0.24145853519439697
1761468672119517000,4.147516845703125,-0.2795661985874176,-0.003998446743935347,-0.21351905167102814
1761468672129472800,4.15747265625,-0.27906733751296997,-0.0004430107946973294,-0.18374107778072357
1761468672139428900,4.167428955078125,-0.28053343296051025,-0.038627948611974716,-0.14464347064495087
1761468672149384700,4.177384765625,-0.28160029649734497,-0.07883145660161972,-0.09670662134885788
1761468672159341800,4.187341796875,-0.27893874049186707,-0.1091451495885849,-0.03924652934074402
1761468672169297700,4.197297607421875,-0.27186107635498047,-0.1291237473487854,0.015646012499928474
1761468672179253800,4.207253662109375,-0.26834091544151306,-0.14244461059570312,0.06160924211144447
1761468672189209600,4.217209716796875,-0.2635854184627533,-0.1215192973613739,0.10086940228939056
1761468672199165700,4.227165771484375,-0.25808972120285034,-0.07855398952960968,0.1562463790178299
1761468672209121800,4.237121826171875,-0.2417958527803421,-0.006954955402761698,0.2414565086364746
1761468672219078000,4.247077880859375,-0.21562762558460236,0.055420804768800735,0.3220674693584442
1761468672229033700,4.25703369140625,-0.1816703975200653,0.1035650297999382,0.3937195837497711
1761468672238989800,4.26698974609375,-0.14495685696601868,0.1435966044664383,0.4505216181278229
1761468672248945700,4.276945556640625,-0.10915481299161911,0.1675059050321579,0.4807963967323303
1761468672258901800,4.28690185546875,-0.06473302096128464,0.18703433871269226,0.4927403926849365
1761468672268857600,4.296857666015625,-0.03257390856742859,0.16065876185894012,0.47427383065223694
1761468672278814000,4.30681396484375,-0.012326693162322044,0.05496029555797577,0.4124072790145874
1761468672288769800,4.316769775390625,-0.018097124993801117,-0.09402637183666229,0.29304012656211853
1761468672298726000,4.326725830078125,-0.04447413608431816,-0.19282378256320953,0.1437225490808487
1761468672308681700,4.336681640625,-0.09175783395767212,-0.22530756890773773,-0.001405998831614852
1761468672318637800,4.346637939453125,-0.15841755270957947,-0.21434332430362701,-0.1288560926914215
1761468672328593700,4.35659375,-0.2502916753292084,-0.15073086321353912,-0.20446808636188507
1761468672339171800,4.367171875,-0.34879985451698303,-0.0051014781929552555,-0.19293072819709778
1761468672349128700,4.377128662109375,-0.42430394887924194,0.15191103518009186,-0.09431388974189758
1761468672359084800,4.387084716796875,-0.46378636360168457,0.28183919191360474,0.04773459956049919
1761468672369040600,4.39704052734375,-0.456257164478302,0.3959251940250397,0.1998843550682068
1761468672378996700,4.406996826171875,-0.4011925756931305,0.49495458602905273,0.3412521481513977
1761468672388952800,4.416952880859375,-0.3043600916862488,0.5632969737052917,0.44472572207450867
1761468672398909000,4.426908935546875,-0.18052497506141663,0.586067259311676,0.5049344897270203
1761468672408864800,4.43686474609375,-0.056069985032081604,0.5568182468414307,0.5243563652038574
1761468672418820900,4.44682080078125,0.05894927680492401,0.4433009624481201,0.4936660826206207
1761468672428776700,4.456776611328125,0.14272993803024292,0.28024518489837646,0.43118059635162354
1761468672438732800,4.46673291015625,0.17990154027938843,0.11791089922189713,0.35422560572624207
1761468672448688600,4.476688720703125,0.17596633732318878,-0.0060266456566751,0.2811679244041443
1761468672458645000,4.48664501953125,0.15498913824558258,-0.06662021577358246,0.21877962350845337
1761468672468600800,4.496600830078125,0.13123995065689087,-0.07310200482606888,0.19168128073215485
1761468672478556200,4.50655615234375,0.10996822267770767,-0.05576162785291672,0.18227419257164001
1761468672488512300,4.51651220703125,0.0846431627869606,-0.028194662183523178,0.1975223869085312
1761468672498468000,4.526468017578125,0.05801820382475853,-0.028044993057847023,0.20435605943202972
1761468672508424200,4.536424072265625,0.03650413081049919,-0.041852518916130066,0.20570847392082214
1761468672518380300,4.54638037109375,0.025158269330859184,-0.055440500378608704,0.19150955975055695
1761468672528336400,4.55633642578125,0.023248419165611267,-0.05608705058693886,0.15971200168132782
1761468672538292200,4.566292236328125,0.02163720689713955,-0.06438492238521576,0.10709299892187119
1761468672548248300,4.576248291015625,0.006675497628748417,-0.08766641467809677,0.04645111411809921
1761468672558204200,4.5862041015625,-0.013269448652863503,-0.11143858730792999,-0.01338132843375206
1761468672568160300,4.59616015625,-0.04463833197951317,-0.1420132964849472,-0.07561775296926498
1761468672578116000,4.6061162109375,-0.08649656921625137,-0.16539984941482544,-0.13779136538505554
1761468672588072200,4.616072265625,-0.13589957356452942,-0.17238382995128632,-0.20240935683250427
1761468672598028300,4.6260283203125,-0.1901462972164154,-0.1486971378326416,-0.26570257544517517
1761468672607984400,4.635984375,-0.22675536572933197,-0.09333979338407516,-0.31183508038520813
1761468672617940200,4.645940185546875,-0.24154070019721985,-0.017452755942940712,-0.33505597710609436
1761468672627896300,4.655896240234375,-0.22601115703582764,0.06981199234724045,-0.33470097184181213
1761468672637852200,4.66585205078125,-0.18681368231773376,0.15542170405387878,-0.3122744858264923
1761468672647808300,4.675808349609375,-0.1354297399520874,0.21691067516803741,-0.28900501132011414
1761468672657764000,4.68576416015625,-0.07426225394010544,0.2583734393119812,-0.26536867022514343
1761468672667721200,4.69572119140625,-0.02247725985944271,0.2870441973209381,-0.24624063074588776
1761468672677677000,4.705677001953125,0.030695678666234016,0.30182766914367676,-0.23556028306484222
1761468672687633200,4.715633056640625,0.07623474299907684,0.30668190121650696,-0.2329220473766327
1761468672697589200,4.72558935546875,0.12055321037769318,0.29345691204071045,-0.23115664720535278
1761468672707545300,4.73554541015625,0.1628016084432602,0.25292304158210754,-0.20743127167224884
1761468672717501200,4.745501220703125,0.21316970884799957,0.1877104640007019,-0.16609396040439606
1761468672727457300,4.755457275390625,0.2788313925266266,0.11643655598163605,-0.10778814554214478
1761468672737413000,4.7654130859375,0.35403934121131897,0.04909240081906319,-0.0353376530110836
1761468672747369200,4.775369140625,0.4249633848667145,-0.007919402793049812,0.028995905071496964
1761468672757325000,4.785324951171875,0.49619415402412415,-0.055714353919029236,0.07519056648015976
1761468672767281400,4.795281494140625,0.5494449734687805,-0.09814687073230743,0.08957558125257492
1761468672777237200,4.8052373046875,0.5777029991149902,-0.14491623640060425,0.07696817815303802
1761468672787193300,4.815193359375,0.5630117654800415,-0.20951330661773682,0.04694065824151039
1761468672797149200,4.825149169921875,0.5181177854537964,-0.2867913246154785,0.009706471115350723
1761468672807105300,4.835105224609375,0.45582643151283264,-0.3585432171821594,-0.02926809713244438
1761468672817061000,4.84506103515625,0.3801194131374359,-0.4109624922275543,-0.06361168622970581
1761468672827017200,4.855017333984375,0.2993157207965851,-0.4153704047203064,-0.09759388864040375
1761468672836973300,4.864973388671875,0.2248295247554779,-0.371433824300766,-0.1111331358551979
1761468672846929400,4.874929443359375,0.17667116224765778,-0.28345808386802673,-0.10001251846551895
1761468672856885200,4.88488525390625,0.15278953313827515,-0.15523061156272888,-0.06649716943502426
1761468672866841300,4.89484130859375,0.14915142953395844,-0.013908136636018753,-0.014386562630534172
1761468672876797200,4.904797119140625,0.16508299112319946,0.1162453442811966,0.04794099181890488
1761468672886753300,4.914753173828125,0.18516984581947327,0.2112133800983429,0.11251284927129745
1761468672896709000,4.924709228515625,0.20607219636440277,0.27238354086875916,0.15909527242183685
1761468672906665200,4.934665283203125,0.21961133182048798,0.29350581765174866,0.18525086343288422
1761468672916621300,4.944621337890625,0.22601649165153503,0.2769281566143036,0.1924206167459488
1761468672926577400,4.954577392578125,0.22504234313964844,0.23360659182071686,0.18976189196109772
1761468672936533200,4.964533203125,0.21961934864521027,0.1885533630847931,0.18766118586063385
1761468672946489300,4.9744892578125,0.20827174186706543,0.14237813651561737,0.1791277676820755
1761468672956446200,4.9844462890625,0.1956678032875061,0.10580894351005554,0.16299353539943695
1761468672966402300,4.99440234375,0.18265090882778168,0.0854010283946991,0.1389651745557785
1761468672976358100,5.004358154296875,0.17171144485473633,0.0741259977221489,0.10827304422855377
1761468672986314200,5.014314208984375,0.16502581536769867,0.05312424525618553,0.06601783633232117
1761468672996270000,5.02427001953125,0.1519736647605896,0.01960117183625698,0.025981739163398743
1761468673006226200,5.03422607421875,0.13374663889408112,-0.02429916150867939,-0.008786310441792011
1761468673016182300,5.044182373046875,0.10869986563920975,-0.059997234493494034,-0.04507933557033539
1761468673026138400,5.054138427734375,0.07925523072481155,-0.06788937747478485,-0.09367525577545166
1761468673036094200,5.06409423828125,0.06031589210033417,-0.03480546176433563,-0.13189801573753357
1761468673046050300,5.07405029296875,0.056549374014139175,0.02543502487242222,-0.14388921856880188
1761468673056006100,5.084006103515625,0.06431568413972855,0.1003556028008461,-0.12199483811855316
1761468673065962200,5.093962158203125,0.07962692528963089,0.19256508350372314,-0.06394894421100616
1761468673075918000,5.10391796875,0.10484306514263153,0.31446966528892517,0.02139524556696415
1761468673085874400,5.11387451171875,0.12999793887138367,0.40734800696372986,0.10824833065271378
1761468673095830300,5.123830322265625,0.1466892957687378,0.4080335199832916,0.16262954473495483
1761468673105786400,5.133786376953125,0.1760910451412201,0.32155635952949524,0.19566243886947632
1761468673115742200,5.1437421875,0.21260963380336761,0.1816626489162445,0.23303458094596863
1761468673125698300,5.1536982421875,0.2354537844657898,0.03938143327832222,0.27355340123176575
1761468673135654100,5.163654052734375,0.2454797923564911,-0.037371404469013214,0.3145596981048584
1761468673145610200,5.1736103515625,0.25799641013145447,-0.043460700660943985,0.347262978553772
1761468673155566300,5.18356640625,0.28540167212486267,0.03333767503499985,0.3782981336116791
1761468673165522400,5.1935224609375,0.31460827589035034,0.1852135807275772,0.4288751780986786
1761468673175478300,5.203478271484375,0.34419333934783936,0.38611099123954773,0.4960204064846039
1761468673185434400,5.213434326171875,0.36646831035614014,0.5995800495147705,0.5635103583335876
1761468673195390200,5.22339013671875,0.38265979290008545,0.7813160419464111,0.62123703956604
1761468673205346300,5.23334619140625,0.4050372242927551,0.9055221676826477,0.6613330245018005
1761468673215302100,5.24330224609375,0.44307300448417664,0.9569739103317261,0.6810830235481262
1761468673225258200,5.25325830078125,0.4883158504962921,0.9511812925338745,0.6840494871139526
1761468673235214300,5.26321435546875,0.5317773222923279,0.8779670000076294,0.6686558723449707
1761468673245170400,5.27317041015625,0.5728605389595032,0.7348433136940002,0.6318575143814087
1761468673255126300,5.283126220703125,0.6059224009513855,0.5550642609596252,0.5791519284248352
1761468673265082400,5.293082275390625,0.6290739178657532,0.34240585565567017,0.514903724193573
1761468673275039200,5.303039306640625,0.6375513076782227,0.11254335939884186,0.43091246485710144
1761468673284995300,5.312995361328125,0.6326282620429993,-0.10316988825798035,0.33253613114356995
1761468673294951200,5.322951171875,0.613974392414093,-0.27674010396003723,0.22515934705734253
1761468673304907300,5.3329072265625,0.5885583162307739,-0.4093349874019623,0.12854544818401337
1761468673314863000,5.342863037109375,0.5538421869277954,-0.49102452397346497,0.04877099394798279
1761468673324819200,5.352819091796875,0.5117278099060059,-0.495076984167099,-0.009610718116164207
1761468673334775300,5.362775390625,0.46233418583869934,-0.4504227042198181,-0.06479966640472412
1761468673344731400,5.3727314453125,0.4156419634819031,-0.3618204891681671,-0.11109643429517746
1761468673354687200,5.382687255859375,0.37916383147239685,-0.25580376386642456,-0.16166427731513977
1761468673364643300,5.392643310546875,0.35489964485168457,-0.1851869523525238,-0.2126682698726654
1761468673374599200,5.40259912109375,0.34056225419044495,-0.15581335127353668,-0.25908875465393066
1761468673384555300,5.41255517578125,0.3357428312301636,-0.1752864569425583,-0.29757335782051086
1761468673394511000,5.422510986328125,0.34030482172966003,-0.2366504818201065,-0.32633310556411743
1761468673404467500,5.432467529296875,0.34198933839797974,-0.3155558705329895,-0.34280094504356384
1761468673414423300,5.44242333984375,0.34200024604797363,-0.37571775913238525,-0.3530309200286865
1761468673424379400,5.45237939453125,0.3435867130756378,-0.3936247229576111,-0.35158872604370117
1761468673434335200,5.462335205078125,0.3432961702346802,-0.3647978603839874,-0.33657383918762207
1761468673444291300,5.472291259765625,0.33927008509635925,-0.2840448021888733,-0.3060428202152252
1761468673454247200,5.4822470703125,0.3207475543022156,-0.13777334988117218,-0.2744217813014984
1761468673464203300,5.492203369140625,0.29431819915771484,0.04442068561911583,-0.24730929732322693
1761468673474159400,5.502159423828125,0.26135945320129395,0.22809410095214844,-0.22950899600982666
1761468673484115700,5.51211572265625,0.22419890761375427,0.3816533386707306,-0.2243432104587555
1761468673494071600,5.522071533203125,0.19157038629055023,0.4946134388446808,-0.22796112298965454
1761468673504027600,5.532027587890625,0.16288451850414276,0.5380908250808716,-0.2474389374256134
1761468673513983500,5.5419833984375,0.14404956996440887,0.5134131908416748,-0.2660083472728729
1761468673523939600,5.551939697265625,0.1281910240650177,0.43391597270965576,-0.2778150141239166
1761468673533895400,5.5618955078125,0.13307978212833405,0.3118686378002167,-0.2876996099948883
1761468673543851500,5.5718515625,0.15009258687496185,0.16833361983299255,-0.2839067876338959
1761468673553807600,5.5818076171875,0.1669650375843048,0.012829517014324665,-0.2776336967945099
1761468673563763700,5.591763671875,0.1748005598783493,-0.13185951113700867,-0.26540547609329224
1761468673573719600,5.601719482421875,0.1653822958469391,-0.23066703975200653,-0.27302345633506775
1761468673583676700,5.6116767578125,0.14659984409809113,-0.26647716760635376,-0.30465924739837646
1761468673593632500,5.621632568359375,0.12710870802402496,-0.2511720061302185,-0.3362613916397095
1761468673603588600,5.631588623046875,0.1057831421494484,-0.21974942088127136,-0.3502918779850006
1761468673613544400,5.64154443359375,0.07069092988967896,-0.19078753888607025,-0.34981223940849304
1761468673623500500,5.65150048828125,0.02828316204249859,-0.1750563085079193,-0.32985275983810425
1761468673633456400,5.661456298828125,-0.011645078659057617,-0.18533051013946533,-0.30044612288475037
1761468673643412500,5.67141259765625,-0.04896862432360649,-0.2266635149717331,-0.27465569972991943
1761468673653368600,5.68136865234375,-0.09682216495275497,-0.27788037061691284,-0.25047925114631653
1761468673663324700,5.69132470703125,-0.14270105957984924,-0.3078436255455017,-0.23234593868255615
1761468673673280500,5.701280517578125,-0.18206550180912018,-0.30508217215538025,-0.21874278783798218
1761468673683236600,5.711236572265625,-0.2153979390859604,-0.268066942691803,-0.19859007000923157
1761468673693192400,5.7211923828125,-0.23862522840499878,-0.22064509987831116,-0.17023965716362
1761468673703148500,5.7311484375,-0.25649306178092957,-0.17193087935447693,-0.13400068879127502
1761468673713104400,5.7411044921875,-0.27224966883659363,-0.1281847208738327,-0.0899038016796112
1761468673723060500,5.751060546875,-0.2853762209415436,-0.08735617250204086,-0.049991853535175323
1761468673733016600,5.7610166015625,-0.2882399260997772,-0.040186528116464615,-0.007399652153253555
1761468673742972700,5.77097265625,-0.28220152854919434,0.0013498630141839385,0.041039466857910156
1761468673752928500,5.780928466796875,-0.2687499225139618,0.026645898818969727,0.08680189400911331
1761468673762884600,5.790884521484375,-0.25788748264312744,0.03728732466697693,0.12890364229679108
1761468673772840400,5.80084033203125,-0.2513241469860077,0.021605566143989563,0.15208673477172852
1761468673782796500,5.810796630859375,-0.24550692737102509,-0.01407298631966114,0.15222664177417755
1761468673792752400,5.82075244140625,-0.23101107776165009,-0.028592273592948914,0.11774031817913055
1761468673802708700,5.830708740234375,-0.22661539912223816,-0.026248743757605553,0.08246637135744095
1761468673812664600,5.84066455078125,-0.22581112384796143,-0.042924925684928894,0.05865797773003578
1761468673822620700,5.85062060546875,-0.2169400155544281,-0.07529554516077042,0.0649590715765953
1761468673832576500,5.860576416015625,-0.2033163458108902,-0.1090812087059021,0.09312812983989716
1761468673842532600,5.87053271484375,-0.18699555099010468,-0.13887861371040344,0.14230121672153473
1761468673852488400,5.880488525390625,-0.16381406784057617,-0.14906759560108185,0.18160681426525116
1761468673862445600,5.890445556640625,-0.1347973644733429,-0.14053960144519806,0.2053302377462387
1761468673872401400,5.9004013671875,-0.09425286948680878,-0.11148851364850998,0.21857121586799622
1761468673882357500,5.910357421875,-0.051421478390693665,-0.07175759226083755,0.22874470055103302
1761468673892313600,5.920313720703125,-0.0039429087191820145,0.0081532197073102,0.23323692381381989
1761468673902269700,5.930269775390625,0.03434313088655472,0.0554177425801754,0.2250448316335678
1761468673912225500,5.9402255859375,0.0526459701359272,0.019686641171574593,0.17222954332828522
1761468673922181600,5.950181640625,0.04558306559920311,-0.07441495358943939,0.07030004262924194
1761468673932137500,5.960137451171875,0.010651979595422745,-0.20003440976142883,-0.05391645058989525
1761468673942093600,5.970093505859375,-0.07301188260316849,-0.28260788321495056,-0.15972208976745605
1761468673952049400,5.98004931640625,-0.17326179146766663,-0.30403807759284973,-0.2018333226442337
1761468673962005500,5.990005615234375,-0.25576338171958923,-0.2950916290283203,-0.18747489154338837
1761468673971961600,5.999961669921875,-0.31508129835128784,-0.19380895793437958,-0.11257614195346832
1761468673981917700,6.009917724609375,-0.32684576511383057,0.02941960282623768,0.020888863131403923
1761468673991873500,6.01987353515625,-0.29001903533935547,0.2804928421974182,0.16339194774627686
1761468674001829600,6.02982958984375,-0.2058081030845642,0.46087053418159485,0.2903439700603485
1761468674011785500,6.039785400390625,-0.09991442412137985,0.5434532761573792,0.3870324492454529
1761468674021741600,6.049741455078125,-0.002058662474155426,0.5091997385025024,0.44138193130493164
1761468674031697400,6.059697509765625,0.09006860107183456,0.3790512979030609,0.4522513747215271
1761468674041653800,6.06965380859375,0.16383780539035797,0.1981649547815323,0.43360257148742676
1761468674051609600,6.079609619140625,0.21038319170475006,0.002765628043562174,0.38737380504608154
1761468674061565700,6.089565673828125,0.23452597856521606,-0.1905401647090912,0.34387969970703125
1761468674071521500,6.099521484375,0.24204781651496887,-0.3180001378059387,0.31784704327583313
1761468674081477600,6.1094775390625,0.23550568521022797,-0.3533354699611664,0.3310023248195648
1761468674091433500,6.11943359375,0.2149127870798111,-0.32487133145332336,0.36035382747650146
1761468674101389600,6.1293896484375,0.18274423480033875,-0.24235938489437103,0.39945295453071594
1761468674111345400,6.139345458984375,0.14784298837184906,-0.12510786950588226,0.41647109389305115
1761468674121301800,6.1493017578125,0.12432923167943954,-0.02559017762541771,0.3928198218345642
1761468674131258400,6.15925830078125,0.10838941484689713,0.038753923028707504,0.32980915904045105
1761468674141214700,6.169214599609375,0.0836995542049408,0.047414541244506836,0.23748423159122467
1761468674151170600,6.179170654296875,0.046693071722984314,-0.008799197152256966,0.14694315195083618
1761468674161126700,6.189126708984375,0.0009002267615869641,-0.10068802535533905,0.07644741982221603
1761468674171082500,6.19908251953125,-0.056938305497169495,-0.18384788930416107,0.03786034509539604
1761468674181038600,6.20903857421875,-0.11140039563179016,-0.22623637318611145,0.019498536363244057
1761468674190994400,6.218994384765625,-0.14879515767097473,-0.2522730231285095,0.0014127444010227919
1761468674200950500,6.228950439453125,-0.17523011565208435,-0.24273382127285004,-0.016656430438160896
1761468674210906600,6.23890673828125,-0.1933279037475586,-0.2112046480178833,-0.04184594005346298
1761468674220862700,6.24886279296875,-0.20098288357257843,-0.17563365399837494,-0.07030894607305527
1761468674230818600,6.258818603515625,-0.2068202644586563,-0.14390155673027039,-0.10125327855348587
1761468674240774700,6.268774658203125,-0.2128985971212387,-0.12030848115682602,-0.13083989918231964
1761468674250730500,6.27873046875,-0.2011396735906601,-0.11371848732233047,-0.15459369122982025
1761468674260686600,6.2886865234375,-0.1760554015636444,-0.10457369685173035,-0.16700880229473114
1761468674270642400,6.298642333984375,-0.1539120078086853,-0.06655573844909668,-0.16309715807437897
1761468674280598500,6.3085986328125,-0.1304311454296112,-0.00028402305906638503,-0.14812545478343964
1761468674290554600,6.3185546875,-0.10119150578975677,0.09304645657539368,-0.12420334666967392
1761468674300510700,6.3285107421875,-0.07404877990484238,0.19624072313308716,-0.09727451950311661
1761468674310466600,6.338466552734375,-0.053734190762043,0.2701184153556824,-0.0801171064376831
1761468674320422700,6.348422607421875,-0.05084570124745369,0.32591256499290466,-0.08420015871524811
1761468674330378500,6.35837841796875,-0.06374499201774597,0.3475494086742401,-0.09662061184644699
1761468674340334600,6.36833447265625,-0.07786467671394348,0.3154738247394562,-0.11550630629062653
1761468674350290400,6.37829052734375,-0.0887487530708313,0.245781809091568,-0.129534512758255
1761468674360246800,6.388246826171875,-0.10447929799556732,0.13914620876312256,-0.1483878195285797
1761468674370202600,6.39820263671875,-0.11751121282577515,0.03594551980495453,-0.1664179563522339
1761468674380158700,6.40815869140625,-0.11860480159521103,-0.04864412918686867,-0.17567852139472961
1761468674390114600,6.418114501953125,-0.11252586543560028,-0.1240408793091774,-0.1775062382221222
1761468674400070700,6.428070556640625,-0.09595348685979843,-0.17147590219974518,-0.1693422794342041
1761468674410026500,6.438026611328125,-0.07488655298948288,-0.18250912427902222,-0.15312708914279938
1761468674419983600,6.447983642578125,-0.04936691373586655,-0.1825726479291916,-0.1421213150024414
1761468674429939500,6.457939453125,-0.03157220780849457,-0.17705325782299042,-0.14440284669399261
1761468674439895600,6.4678955078125,-0.020228106528520584,-0.15537065267562866,-0.1586689054965973
1761468674449851400,6.477851318359375,-0.018182530999183655,-0.13155560195446014,-0.18061122298240662
1761468674459807700,6.487807861328125,-0.03286392241716385,-0.11064975708723068,-0.20124763250350952
1761468674469763600,6.497763671875,-0.048124637454748154,-0.09557946771383286,-0.21715310215950012
1761468674479719200,6.50771923828125,-0.0629015564918518,-0.07563973218202591,-0.21919120848178864
1761468674489675000,6.517675048828125,-0.0716274082660675,-0.04914313927292824,-0.19877088069915771
1761468674499631000,6.527631103515625,-0.06784426420927048,-0.011036934331059456,-0.15568116307258606
1761468674509587000,6.5375869140625,-0.061937909573316574,0.03845285624265671,-0.09900403022766113
1761468674519543300,6.547543212890625,-0.04569198563694954,0.08575021475553513,-0.029243063181638718
1761468674529499100,6.5574990234375,-0.022923292592167854,0.11360634863376617,0.028477758169174194
1761468674539455200,6.567455322265625,0.014357543550431728,0.13893169164657593,0.07527796924114227
1761468674549411000,6.5774111328125,0.07486402988433838,0.16035096347332,0.10664387792348862
1761468674559367000,6.587366943359375,0.1271456927061081,0.17613475024700165,0.1359768956899643
1761468674569323000,6.597322998046875,0.17252089083194733,0.17833638191223145,0.1597277671098709
1761468674579278800,6.60727880859375,0.19871880114078522,0.17706722021102905,0.1756601184606552
1761468674589235000,6.61723486328125,0.21338269114494324,0.17105700075626373,0.19047528505325317
1761468674599191000,6.62719091796875,0.2175670564174652,0.15913504362106323,0.2003525346517563
1761468674609147100,6.637147216796875,0.2151086926460266,0.13304325938224792,0.20604664087295532
1761468674619103000,6.64710302734375,0.20315515995025635,0.08400590717792511,0.20486973226070404
1761468674629059000,6.65705908203125,0.18675248324871063,0.027965273708105087,0.204648956656456
1761468674639015000,6.667014892578125,0.17345783114433289,-0.0012724051484838128,0.21484623849391937
1761468674648971000,6.676970947265625,0.17030838131904602,0.0032328644301742315,0.22967925667762756
1761468674658926800,6.6869267578125,0.1829899251461029,0.04365074262022972,0.2418760061264038
1761468674668883200,6.69688330078125,0.21121090650558472,0.10134013742208481,0.24702203273773193
1761468674678839000,6.706839111328125,0.25467416644096375,0.1828191578388214,0.24679294228553772
1761468674688795100,6.716795166015625,0.3077523112297058,0.2801952362060547,0.2312787026166916
1761468674698752300,6.726752197265625,0.35393160581588745,0.363615483045578,0.20062965154647827
1761468674708708000,6.7367080078125,0.37129542231559753,0.39639341831207275,0.16166573762893677
1761468674718664200,6.746664306640625,0.36967578530311584,0.31408846378326416,0.09347695112228394
1761468674728620000,6.7566201171875,0.3467875123023987,0.12491828948259354,0.004993151873350143
1761468674738576100,6.766576171875,0.30192726850509644,-0.10219650715589523,-0.05970488488674164
1761468674748532000,6.776531982421875,0.2459380328655243,-0.30979791283607483,-0.09031419456005096
1761468674758488000,6.786488037109375,0.20694641768932343,-0.47954264283180237,-0.09849127382040024
1761468674768444200,6.796444091796875,0.17578397691249847,-0.5488476753234863,-0.08345053344964981
1761468674778400000,6.80639990234375,0.15231812000274658,-0.4412594735622406,-0.031842201948165894
1761468674788356000,6.816356201171875,0.17155864834785461,-0.18619254231452942,0.06922369450330734
1761468674798312000,6.82631201171875,0.22145502269268036,0.14960424602031708,0.2042698860168457
1761468674808268000,6.83626806640625,0.2899661958217621,0.5042984485626221,0.3392900228500366
1761468674818223900,6.846223876953125,0.36626535654067993,0.7793813347816467,0.43450695276260376
1761468674828180000,6.856179931640625,0.43006056547164917,0.9590376615524292,0.4820321500301361
1761468674838136000,6.866135986328125,0.477227121591568,1.0205941200256348,0.48726895451545715
1761468674848092200,6.876092041015625,0.5124199986457825,0.956896185874939,0.4638834595680237
1761468674858048000,6.886048095703125,0.5338857769966125,0.8046736121177673,0.4185463786125183
1761468674868004000,6.896004150390625,0.546335756778717,0.591066837310791,0.36282798647880554
1761468674877960000,6.9059599609375,0.5533004999160767,0.3276163935661316,0.30239376425743103
1761468674887916000,6.915916015625,0.5426111221313477,0.05226043984293938,0.2359899878501892
1761468674897872000,6.925871826171875,0.5177689790725708,-0.17882513999938965,0.17364251613616943
1761468674907828000,6.935827880859375,0.47887593507766724,-0.31639978289604187,0.13147589564323425
1761468674917784000,6.9457841796875,0.4401126503944397,-0.4001554250717163,0.1086629256606102
1761468674927740200,6.955740234375,0.40773606300354004,-0.42617690563201904,0.0933966189622879
1761468674937696000,6.965696044921875,0.3749687671661377,-0.386902779340744,0.07932565361261368
1761468674947652000,6.975652099609375,0.34814274311065674,-0.29304125905036926,0.04776613041758537
1761468674957608000,6.98560791015625,0.32299819588661194,-0.15965460240840912,0.007170123979449272
1761468674967565000,6.99556494140625,0.30555447936058044,-0.012977802194654942,-0.04706648364663124
1761468674977521000,7.00552099609375,0.29250216484069824,0.09710636734962463,-0.10738105326890945
1761468674987477000,7.01547705078125,0.28210651874542236,0.1471138596534729,-0.1570170670747757
1761468674997432800,7.025432861328125,0.27229008078575134,0.12848636507987976,-0.18281130492687225
1761468675007389200,7.03538916015625,0.2754877507686615,0.03990989923477173,-0.1809265911579132
1761468675017345000,7.045344970703125,0.2913341522216797,-0.08081590384244919,-0.16813798248767853
1761468675027301000,7.055301025390625,0.31482750177383423,-0.19848313927650452,-0.149662047624588
1761468675037257000,7.065257080078125,0.34452345967292786,-0.2843073010444641,-0.12831048667430878
1761468675047213000,7.075213134765625,0.37287601828575134,-0.3243362009525299,-0.11527403444051743
1761468675057169000,7.0851689453125,0.4007812738418579,-0.30546313524246216,-0.11263052374124527
1761468675067125000,7.095125,0.42498674988746643,-0.2281009554862976,-0.11254610121250153
1761468675077081000,7.1050810546875,0.4429139196872711,-0.12045270949602127,-0.1024203896522522
1761468675087037200,7.115037109375,0.4419194757938385,-0.002472277032211423,-0.09697582572698593
1761468675096993000,7.124992919921875,0.4046439230442047,0.11988268792629242,-0.09093113243579865
1761468675106949000,7.13494921875,0.3487159311771393,0.21736209094524384,-0.09786414355039597
1761468675116905000,7.144905029296875,0.289753794670105,0.2824607789516449,-0.10852781683206558
1761468675126861000,7.154861083984375,0.23604264855384827,0.3104404807090759,-0.1192971020936966
1761468675136817000,7.16481689453125,0.1844414323568344,0.29817119240760803,-0.13653399050235748
1761468675146773000,7.17477294921875,0.15012021362781525,0.2507301867008209,-0.15284745395183563
1761468675156729000,7.18472900390625,0.13675956428050995,0.19271457195281982,-0.15860222280025482
1761468675166685200,7.194685302734375,0.14090824127197266,0.14099784195423126,-0.15532280504703522
1761468675176641000,7.20464111328125,0.15634818375110626,0.09566680341959,-0.15304814279079437
1761468675186597000,7.21459716796875,0.16476377844810486,0.04372477903962135,-0.15716086328029633
1761468675196553000,7.224552978515625,0.15583506226539612,-0.010496516712009907,-0.16620437800884247
1761468675206509000,7.234509033203125,0.13084395229816437,-0.06204945594072342,-0.1839679330587387
1761468675216465000,7.24446484375,0.10070259124040604,-0.09109935909509659,-0.20407143235206604
1761468675226421000,7.2544208984375,0.06636166572570801,-0.10655660927295685,-0.2236643135547638
1761468675236377000,7.264377197265625,0.029176313430070877,-0.10429246723651886,-0.24805839359760284
1761468675246334000,7.274333984375,-0.014417237602174282,-0.062259260565042496,-0.26234865188598633
1761468675256290000,7.2842900390625,-0.05459975078701973,-0.011969814077019691,-0.2658086121082306
1761468675266246100,7.29424609375,-0.08936464786529541,0.01228865422308445,-0.2565256357192993
1761468675276202000,7.304201904296875,-0.11788322776556015,0.01477567944675684,-0.23297803103923798
1761468675286158000,7.314157958984375,-0.14060692489147186,0.012652873992919922,-0.2019769698381424
1761468675296114000,7.324114013671875,-0.15089024603366852,0.014198442921042442,-0.16567841172218323
1761468675306070000,7.334070068359375,-0.15281598269939423,0.01493267621845007,-0.13268131017684937
1761468675316025900,7.34402587890625,-0.15162208676338196,0.011415439657866955,-0.1141321212053299
1761468675325982200,7.353982177734375,-0.15950638055801392,-0.006962236016988754,-0.11074031889438629
1761468675335938000,7.36393798828125,-0.17712771892547607,-0.05694439262151718,-0.11900842189788818
1761468675345894100,7.37389404296875,-0.20654606819152832,-0.12128370255231857,-0.11581156402826309
1761468675355850000,7.38385009765625,-0.24446286261081696,-0.15997710824012756,-0.09364064037799835
1761468675365806000,7.39380615234375,-0.27939870953559875,-0.18503879010677338,-0.07173507660627365
1761468675375762000,7.403761962890625,-0.3074450194835663,-0.18847323954105377,-0.0570458248257637
1761468675385718000,7.413718017578125,-0.32896068692207336,-0.17389990389347076,-0.057250089943408966
1761468675395674000,7.423674072265625,-0.3491842746734619,-0.13544920086860657,-0.07912971824407578
1761468675405630200,7.433630126953125,-0.36330729722976685,-0.09372971951961517,-0.11339927464723587
1761468675415586000,7.4435859375,-0.37300944328308105,-0.0464121513068676,-0.13978305459022522
1761468675425542100,7.453542236328125,-0.38083887100219727,-0.01699061319231987,-0.154632568359375
1761468675435498000,7.463498046875,-0.389461487531662,-0.013938730582594872,-0.1523529440164566
1761468675445454000,7.4734541015625,-0.40118658542633057,-0.025996459648013115,-0.14041373133659363
1761468675455410000,7.483409912109375,-0.4170745313167572,-0.04549343138933182,-0.12324008345603943
1761468675465366000,7.493365966796875,-0.4363081455230713,-0.06780672073364258,-0.10398729145526886
1761468675475322000,7.503322021484375,-0.4489651620388031,-0.05888108164072037,-0.07588455080986023
1761468675485278700,7.51327880859375,-0.4432894289493561,-0.0354338139295578,-0.040726833045482635
1761468675495235800,7.52323583984375,-0.43334922194480896,-0.04262450709939003,-0.018350468948483467
1761468675505191700,7.533191650390625,-0.4219631552696228,-0.11050768196582794,-0.02854078821837902
1761468675515148000,7.54314794921875,-0.4215012192726135,-0.2028440535068512,-0.06706831604242325
1761468675525103900,7.553103759765625,-0.4416400194168091,-0.24569697678089142,-0.10596884042024612
1761468675535060000,7.56306005859375,-0.4742971360683441,-0.24664047360420227,-0.11969684809446335
1761468675545015800,7.573015869140625,-0.5079488754272461,-0.20554496347904205,-0.1288866251707077
1761468675554972000,7.582971923828125,-0.5351272821426392,-0.10680780559778214,-0.12199904769659042
1761468675564927700,7.592927734375,-0.5421795845031738,0.004373845644295216,-0.10843370109796524
1761468675574883800,7.6028837890625,-0.5198249816894531,0.09988795220851898,-0.08769737184047699
1761468675584840000,7.61283984375,-0.48348429799079895,0.17952072620391846,-0.05504621937870979
1761468675594796000,7.622796142578125,-0.42402610182762146,0.24930845201015472,-0.005755154881626368
1761468675604752000,7.632751953125,-0.3581722378730774,0.2935555577278137,0.06298662722110748
1761468675614708000,7.6427080078125,-0.2842852771282196,0.3202038109302521,0.13694623112678528
1761468675624663800,7.652663818359375,-0.22591222822666168,0.33031079173088074,0.2043473869562149
1761468675634620000,7.662619873046875,-0.1854608654975891,0.3408244848251343,0.2537916898727417
1761468675644575700,7.67257568359375,-0.1660996824502945,0.33763137459754944,0.2766682505607605
1761468675654531800,7.68253173828125,-0.15877823531627655,0.3094903826713562,0.2667359709739685
1761468675664488000,7.692488037109375,-0.1620456725358963,0.2457636147737503,0.22822000086307526
1761468675674444000,7.702444091796875,-0.17701442539691925,0.14143617451190948,0.1758757382631302
1761468675684399900,7.71239990234375,-0.19510874152183533,0.025420086458325386,0.13035379350185394
1761468675694356000,7.72235595703125,-0.2034514844417572,-0.06989844888448715,0.1119551733136177
1761468675704311800,7.732311767578125,-0.20061734318733215,-0.14676474034786224,0.11388623714447021
1761468675714268000,7.742267822265625,-0.19173845648765564,-0.19952428340911865,0.1324991136789322
1761468675724223700,7.7522236328125,-0.1878177523612976,-0.24697807431221008,0.14968636631965637
1761468675734180000,7.76218017578125,-0.1903114765882492,-0.2833336591720581,0.16484789550304413
1761468675744136700,7.77213671875,-0.19947673380374908,-0.2936520576477051,0.1670204997062683
1761468675754093000,7.782093017578125,-0.22107289731502533,-0.28731977939605713,0.1551116406917572
1761468675764049000,7.792048828125,-0.25580212473869324,-0.2557147145271301,0.13339143991470337
1761468675774005000,7.8020048828125,-0.2954525649547577,-0.21634404361248016,0.10844092816114426
1761468675783960800,7.8119609375,-0.3499964773654938,-0.16126374900341034,0.07080753147602081
1761468675793917000,7.8219169921875,-0.40891534090042114,-0.09478799253702164,0.022416401654481888
1761468675803872800,7.831872802734375,-0.4529648423194885,-0.01881572976708412,-0.034882836043834686
1761468675813828900,7.841828857421875,-0.47787874937057495,0.04791737720370293,-0.0883411094546318
1761468675823784700,7.85178466796875,-0.4886544346809387,0.09712673723697662,-0.12938041985034943
1761468675833741000,7.861740966796875,-0.4880208969116211,0.13336874544620514,-0.1507984846830368
1761468675843697000,7.87169677734375,-0.4642958641052246,0.14624886214733124,-0.15502065420150757
1761468675853653000,7.881653076171875,-0.42443791031837463,0.13677527010440826,-0.1463143527507782
1761468675863608800,7.89160888671875,-0.37918707728385925,0.11784924566745758,-0.13850222527980804
1761468675873565000,7.90156494140625,-0.33943408727645874,0.0952979251742363,-0.13457033038139343
1761468675883520800,7.911520751953125,-0.3068590760231018,0.08531027287244797,-0.13389068841934204
1761468675893476900,7.921476806640625,-0.28981655836105347,0.08766026049852371,-0.14335952699184418
1761468675903433000,7.931432861328125,-0.2834678590297699,0.11956892907619476,-0.1683812439441681
1761468675913389000,7.94138916015625,-0.2888428568840027,0.16209536790847778,-0.2049987018108368
1761468675923345000,7.951344970703125,-0.30520692467689514,0.20079348981380463,-0.2613655626773834
1761468675933301000,7.961301025390625,-0.3295013904571533,0.21782347559928894,-0.33030980825424194
1761468675943256800,7.9712568359375,-0.35018032789230347,0.19940532743930817,-0.39950406551361084
1761468675953213000,7.981212890625,-0.34360432624816895,0.1659112274646759,-0.451514333486557
1761468675963168800,7.991168701171875,-0.3167330324649811,0.10675150156021118,-0.4794439971446991
1761468675973124900,8.001124755859376,-0.2801084816455841,0.041451722383499146,-0.47712230682373047
1761468675983702800,8.011702880859374,-0.23981218039989471,-0.02934708259999752,-0.436586856842041
1761468675993659000,8.021658935546874,-0.19911204278469086,-0.10676407068967819,-0.3741822838783264
1761468676003615700,8.03161572265625,-0.16650430858135223,-0.19152210652828217,-0.30182501673698425
1761468676013572000,8.041572021484376,-0.13656996190547943,-0.23945340514183044,-0.23191100358963013
1761468676023528000,8.05152783203125,-0.11580370366573334,-0.24860428273677826,-0.18631315231323242
1761468676033484000,8.061484130859375,-0.10139327496290207,-0.22439254820346832,-0.16579265892505646
1761468676043439900,8.07143994140625,-0.10160073637962341,-0.1834605634212494,-0.16916421055793762
1761468676053396000,8.08139599609375,-0.1170734390616417,-0.12496446818113327,-0.18129204213619232
1761468676063351800,8.091351806640626,-0.14143045246601105,-0.07883425056934357,-0.19535699486732483
1761468676073308000,8.101307861328126,-0.16822859644889832,-0.04624081403017044,-0.1928519755601883
1761468676083264000,8.111263916015625,-0.19382211565971375,-0.009063085541129112,-0.15845590829849243
1761468676093220000,8.12122021484375,-0.21092580258846283,0.011730744503438473,-0.09562293440103531
1761468676103176000,8.131176025390625,-0.21778929233551025,0.005418520420789719,-0.030301455408334732
1761468676113132000,8.141132080078124,-0.21248416602611542,-0.005756487604230642,0.02807397022843361
1761468676123088000,8.151087890625,-0.19660747051239014,-0.0008693204144947231,0.07947004586458206
1761468676133044000,8.1610439453125,-0.1741216629743576,0.023950571194291115,0.12148434668779373
1761468676142999800,8.170999755859375,-0.15379028022289276,0.06132643669843674,0.1408625692129135
1761468676152956000,8.180955810546875,-0.14268167316913605,0.11195404082536697,0.14557833969593048
1761468676162912000,8.190912109375,-0.13228096067905426,0.15529805421829224,0.146364226937294
1761468676172867800,8.200867919921874,-0.13079990446567535,0.18950875103473663,0.1611039787530899
1761468676182824000,8.210823974609376,-0.1295655220746994,0.20628292858600616,0.18149447441101074
1761468676192779800,8.22077978515625,-0.13083970546722412,0.1964002102613449,0.1964019387960434
1761468676202735900,8.23073583984375,-0.13228739798069,0.15843285620212555,0.20084355771541595
1761468676212691700,8.240691650390625,-0.13921773433685303,0.10654082894325256,0.19507461786270142
1761468676222647800,8.250647705078125,-0.1560441106557846,0.05706596001982689,0.18307361006736755
1761468676232604000,8.26060400390625,-0.1634487360715866,0.016163334250450134,0.1752997487783432
1761468676242560800,8.270560791015624,-0.1644761860370636,-0.013640101999044418,0.17095133662223816
1761468676252516900,8.280516845703126,-0.15604358911514282,-0.028152575716376305,0.17501972615718842
1761468676262473000,8.290472900390625,-0.13670557737350464,-0.029851140454411507,0.17641842365264893
1761468676272429000,8.300428955078125,-0.11442141234874725,-0.0331413596868515,0.17392171919345856
1761468676282385000,8.310385009765625,-0.09391959756612778,-0.023059962317347527,0.17578060925006866
1761468676292341000,8.320341064453125,-0.07759509235620499,0.025770733132958412,0.18194347620010376
1761468676302296800,8.330296875,-0.05839396268129349,0.09112977236509323,0.1808158904314041
1761468676312253000,8.3402529296875,-0.04135478660464287,0.10913796722888947,0.15176890790462494
1761468676322833000,8.3508330078125,-0.03577599674463272,0.028559504076838493,0.09508325904607773
1761468676332789000,8.3607890625,-0.04677705466747284,-0.1418149769306183,0.02688784897327423
1761468676342744800,8.370744873046876,-0.080809585750103,-0.3579787015914917,-0.021961184218525887
1761468676352701000,8.380700927734376,-0.1341656595468521,-0.5437489151954651,-0.04344234988093376
1761468676362656800,8.39065673828125,-0.18530528247356415,-0.638581395149231,-0.039195671677589417
1761468676372612900,8.40061279296875,-0.22744859755039215,-0.5988251566886902,0.0008020263630896807
1761468676382569000,8.41056884765625,-0.2398914247751236,-0.4344834089279175,0.07943425327539444
1761468676392525000,8.420525146484374,-0.2207147628068924,-0.16137726604938507,0.19456133246421814
1761468676402481000,8.43048095703125,-0.17941153049468994,0.18062400817871094,0.3265337347984314
1761468676412437000,8.44043701171875,-0.12906058132648468,0.49060624837875366,0.42843928933143616
1761468676422392800,8.450392822265625,-0.09733541309833527,0.6962882876396179,0.48743736743927
1761468676432349000,8.460348876953125,-0.08283984661102295,0.7668334245681763,0.49819156527519226
1761468676442305800,8.470305908203125,-0.06965240836143494,0.7238819599151611,0.47619518637657166
1761468676452262000,8.480261962890625,-0.04987296462059021,0.6066319942474365,0.4416086971759796
1761468676462217700,8.4902177734375,-0.02419183775782585,0.4261000156402588,0.4014841914176941
1761468676472173800,8.500173828125,-0.00010389433009549975,0.20577214658260345,0.3584790527820587
1761468676482129400,8.51012939453125,0.021980369463562965,0.0006805212469771504,0.3096763491630554
1761468676492085500,8.52008544921875,0.025387410074472427,-0.16243121027946472,0.25866422057151794
1761468676502041300,8.530041259765625,0.01860274001955986,-0.2856205403804779,0.20408542454242706
1761468676511997400,8.53999755859375,0.005528714042156935,-0.33542969822883606,0.15717527270317078
1761468676521953300,8.549953369140624,-0.01112616341561079,-0.3485300540924072,0.11179474741220474
1761468676531909400,8.559909423828126,-0.022551273927092552,-0.3133637011051178,0.0641109049320221
1761468676541865500,8.569865478515625,-0.03296050429344177,-0.25308918952941895,0.018737029284238815
1761468676551821600,8.579821533203125,-0.046990957111120224,-0.16766540706157684,-0.030650602653622627
1761468676561777400,8.58977734375,-0.05934269726276398,-0.0776742622256279,-0.07829561829566956
1761468676571733500,8.5997333984375,-0.07523796707391739,-0.015096023678779602,-0.12190476804971695
1761468676581689300,8.609689453125,-0.08917135745286942,0.021971983835101128,-0.1574563831090927
1761468676591645400,8.6196455078125,-0.08789223432540894,0.060597311705350876,-0.19605985283851624
1761468676601601300,8.629601318359375,-0.0675496757030487,0.10483081638813019,-0.24224066734313965
1761468676611557400,8.639557373046875,-0.0328981988132,0.11078638583421707,-0.28181150555610657
1761468676621513500,8.649513427734375,0.008643385022878647,0.07278014719486237,-0.29864081740379333
1761468676631469600,8.659469482421875,0.05201716348528862,-0.006318402476608753,-0.2889156639575958
1761468676641425400,8.66942529296875,0.09491270780563354,-0.123343825340271,-0.2670838534832001
1761468676651382500,8.679382568359374,0.13497954607009888,-0.23694826662540436,-0.23688387870788574
1761468676661338400,8.68933837890625,0.15754130482673645,-0.31340789794921875,-0.2102557271718979
1761468676671294500,8.69929443359375,0.16029684245586395,-0.36632785201072693,-0.18862521648406982
1761468676681250300,8.709250244140625,0.1448851227760315,-0.3468489646911621,-0.16515690088272095
1761468676691206400,8.719206298828125,0.11388637870550156,-0.26117029786109924,-0.15113525092601776
1761468676701162200,8.729162353515624,0.0845189020037651,-0.14066307246685028,-0.15522000193595886
1761468676711118300,8.739118408203124,0.0613233856856823,-0.01422333437949419,-0.17317354679107666
1761468676721074400,8.749074462890626,0.04005831107497215,0.08129014074802399,-0.17496292293071747
1761468676731030500,8.759030517578125,0.026003478094935417,0.14000378549098969,-0.1737125813961029
1761468676740986400,8.768986328125,0.022020455449819565,0.1801259070634842,-0.17048242688179016
1761468676750942500,8.7789423828125,0.02326688915491104,0.20504999160766602,-0.16892357170581818
1761468676760898300,8.788898193359374,0.028333552181720734,0.19844427704811096,-0.18540188670158386
1761468676770854400,8.7988544921875,0.041202984750270844,0.16014523804187775,-0.209455668926239
1761468676780810200,8.808810302734376,0.05173152685165405,0.10347796976566315,-0.22864986956119537
1761468676790766600,8.8187666015625,0.05405546724796295,0.042222730815410614,-0.2393631637096405
1761468676800722400,8.828722412109375,0.04267897456884384,-0.008922476321458817,-0.2367498129606247
1761468676810678500,8.838678466796875,0.016638588160276413,-0.047483719885349274,-0.2255360335111618
1761468676820634400,8.84863427734375,-0.007140510715544224,-0.07834549248218536,-0.21750234067440033
1761468676830590500,8.858590576171874,-0.02638189308345318,-0.1205190122127533,-0.19026459753513336
1761468676840547300,8.86854736328125,-0.05065474286675453,-0.14089646935462952,-0.14575812220573425
1761468676850503400,8.87850341796875,-0.0830639973282814,-0.12510335445404053,-0.11182822287082672
1761468676860459300,8.888459228515625,-0.10995367169380188,-0.09008996933698654,-0.10078436136245728
1761468676870415400,8.898415283203125,-0.1347203105688095,-0.054419342428445816,-0.11650121957063675
1761468676880371500,8.908371337890625,-0.15591534972190857,-0.029136089608073235,-0.1411634087562561
1761468676890327600,8.91832763671875,-0.17615936696529388,-0.009292876347899437,-0.17030371725559235
1761468676900283400,8.928283447265626,-0.18530279397964478,0.01126459613442421,-0.1949550062417984
1761468676910239500,8.938239501953126,-0.1821245402097702,0.024893872439861298,-0.2107745110988617
1761468676920195300,8.9481953125,-0.17169053852558136,0.022895170375704765,-0.22018052637577057
1761468676930151400,8.9581513671875,-0.16686086356639862,0.012695768848061562,-0.21881352365016937
1761468676940107300,8.968107177734375,-0.17363406717777252,0.002129943575710058,-0.19791410863399506
1761468676950063400,8.9780634765625,-0.18190164864063263,-0.023332199081778526,-0.16373994946479797
1761468676960019500,8.98801953125,-0.1964784562587738,-0.05910457670688629,-0.10970627516508102
1761468676969975600,8.9979755859375,-0.20841863751411438,-0.08829283714294434,-0.04701764136552811
1761468676979931400,9.007931396484375,-0.20861411094665527,-0.12484578788280487,-0.0063216108828783035
1761468676989887500,9.017887451171875,-0.20451313257217407,-0.1554238498210907,0.023251887410879135
1761468676999843300,9.02784326171875,-0.20192959904670715,-0.15955254435539246,0.029552657157182693
1761468677009799400,9.03779931640625,-0.2032027393579483,-0.15120582282543182,0.007048734463751316
1761468677019755300,9.04775537109375,-0.21485647559165955,-0.1069755107164383,-0.03905537724494934
1761468677029712400,9.05771240234375,-0.22553785145282745,-0.020979315042495728,-0.07777971029281616
1761468677039668200,9.067668212890625,-0.23984487354755402,0.043007656931877136,-0.09493712335824966
1761468677049624300,9.077624267578125,-0.2651922404766083,0.0643521174788475,-0.08262165635824203
1761468677059580400,9.087580322265625,-0.3012767434120178,0.06480059027671814,-0.037246715277433395
1761468677069536500,9.09753662109375,-0.32813146710395813,0.03883778303861618,0.009948331862688065
1761468677079492400,9.107492431640624,-0.33134084939956665,-0.023048488423228264,0.04038133844733238
1761468677089448400,9.117448486328126,-0.3167778551578522,-0.08780287206172943,0.05406823009252548
1761468677099404300,9.127404296875,-0.3085170090198517,-0.13834595680236816,0.06300659477710724
1761468677109360400,9.1373603515625,-0.29945656657218933,-0.131764218211174,0.09764547646045685
1761468677119316200,9.147316162109375,-0.3002302348613739,-0.0932152196764946,0.1705114245414734
1761468677129272600,9.1572724609375,-0.29506716132164,-0.012003147974610329,0.2831026613712311
1761468677139228400,9.167228515625,-0.29956337809562683,-0.014585348777472973,0.3515626788139343
1761468677149184500,9.1771845703125,-0.28901785612106323,-0.038947008550167084,0.37489455938339233
1761468677159140400,9.187140380859375,-0.285971999168396,-0.11548145860433578,0.33443182706832886
1761468677169096400,9.197096435546875,-0.2943117916584015,-0.19335298240184784,0.24821943044662476
1761468677179052300,9.20705224609375,-0.32211413979530334,-0.26160261034965515,0.12226177006959915
1761468677189008400,9.21700830078125,-0.3734073340892792,-0.3047318458557129,-0.029219310730695724
1761468677198964500,9.226964599609374,-0.4617856740951538,-0.31379804015159607,-0.17725831270217896
1761468677208920600,9.236920654296876,-0.5690044164657593,-0.32052484154701233,-0.32519471645355225
1761468677218877400,9.24687744140625,-0.6681696176528931,-0.2709306478500366,-0.4176471531391144
1761468677228833500,9.25683349609375,-0.7645372152328491,-0.18737342953681946,-0.41521352529525757
