time,seconds_elapsed,z,y,x
1761506629555259100,0.091259033203125,0.08437573477625847,0.009705255325883627,-0.023870978925656525
1761506629565231000,0.101231201171875,0.09694996966719627,0.007402969732880592,-0.012032701617962447
1761506629575203000,0.111203125,0.0315320333391428,0.026656682387739418,-0.022257588912267236
1761506629585175300,0.12117529296875,-0.027020693394541738,0.06491919302567839,-0.07250968468729406
1761506629595147000,0.13114697265625,-0.0448690692961216,0.08200242977365851,-0.10274494708101264
1761506629605119200,0.141119140625,-0.0027390695750713345,0.03322261677458882,-0.1092167003783863
1761506629615090200,0.151090087890625,0.07673486463427544,-0.012848667918145656,-0.0998648524668999
1761506629625062100,0.161062255859375,0.10701719017326831,-0.03965235756114125,-0.07038460969156585
1761506629635034000,0.1710341796875,0.10035364063084125,-0.04719605093896389,-0.03864350017900579
1761506629645006000,0.181006103515625,0.05948503914773464,-0.045241994261741636,-0.033814828780386594
1761506629654978300,0.190978271484375,0.007438625568151474,-0.035730946333706375,-0.04666144173876382
1761506629664950000,0.200949951171875,-0.041510991039872165,-0.04417085789889097,-0.06814932492016815
1761506629674922200,0.210922119140625,-0.08402385259866714,-0.04079992016106844,-0.05661450694641098
1761506629684894200,0.220894287109375,-0.10511866307556629,-0.0337679756976664,-0.0448755173032172
1761506629694866200,0.2308662109375,-0.10665303303599356,-0.023064941506087778,-0.0082214876081096
1761506629704837000,0.240837158203125,-0.11720716027617453,0.006129150404781103,0.03130150110245449
1761506629714809000,0.25080908203125,-0.09126374072432518,0.021582301732897758,0.0618514851512853
1761506629724781300,0.26078125,-0.06720131261348725,0.0358843833297491,0.07510818131447304
1761506629734753000,0.2707529296875,0.0013344634741544723,0.027206863616406916,0.08816232237657531
1761506629744725200,0.280725341796875,0.050365328624844545,0.021686346629261968,0.09347862202851101
1761506629754697000,0.290697021484375,0.06480827999711036,0.02209755777865648,0.10443663562815636
1761506629764669200,0.300669189453125,0.08073883957862854,0.026691169179230926,0.11356205437262541
1761506629774641200,0.31064111328125,0.07973463097214699,0.04186594195738434,0.15273905864013357
1761506629784612000,0.320612060546875,0.0521627334356308,0.05353197596222162,0.17631147474432363
1761506629794584300,0.330584228515625,-0.0004284545451402664,0.06751388569399715,0.18375218267170712
1761506629804556000,0.34055615234375,-0.048508887103199956,0.09801087689697742,0.14595158132393843
1761506629814528300,0.3505283203125,-0.08869944319427013,0.10989596047997474,0.10925956227257848
1761506629824500000,0.3605,-0.07717267152965068,0.10029285035431384,0.07592876784920226
1761506629834472200,0.37047216796875,-0.046289457488059994,0.08422142099738121,0.05905366199314594
1761506629844444200,0.380444091796875,0.007333996149897575,0.07432005857750773,0.06119619044717401
1761506629854416100,0.390416015625,0.05865267997682094,0.05221855527609586,0.06287681874418631
1761506629864387300,0.40038720703125,0.0887397752046585,0.04338438369631767,0.02635985714892158
1761506629874359000,0.410359130859375,0.04592237774133682,0.05147095177918672,-0.0047897613062261365
1761506629884331300,0.420331298828125,0.011828384959697723,0.06027808922156691,-0.03744678979128366
1761506629894303000,0.430302978515625,-0.0304991831600666,0.07045490758195519,-0.04468998640216887
1761506629904275200,0.440275146484375,-0.05317863247990608,0.08275821657702326,-0.05258086294957902
1761506629914247200,0.4502470703125,-0.04314706780910492,0.07843889207318425,-0.061563872982095924
1761506629924219100,0.46021923828125,0.0014519523739814758,0.07649623357281088,-0.03563805530230747
1761506629934191000,0.470191162109375,0.01825286504924297,0.08145736311152577,0.06599601021064445
1761506629944163000,0.4801630859375,0.06388999610841274,0.13977628108933568,0.11901706837550736
1761506629954134300,0.49013427734375,0.06802256586849689,0.043032209257781506,0.010097387315472587
1761506629964106000,0.50010595703125,0.026195348486304282,0.01429082955047488,-0.016214237644395325
1761506629974078200,0.510078125,0.0758650960624218,0.04511515301167965,0.03786604039994999
1761506629984050200,0.52005029296875,0.09941840560734272,0.000758563282340765,0.11577106305845081
1761506629994022100,0.530022216796875,0.13810849400758743,-0.01015928270369768,0.15392976626204327
1761506630003994000,0.539994140625,0.10875789636075496,-0.0093425594933331,0.1681402423189953
1761506630013966000,0.549966064453125,0.038697687184810634,-0.024371494060009716,0.14673265783218667
1761506630023938300,0.559938232421875,-0.024916999113559723,-0.014936580108106135,0.09654785513971001
1761506630033909000,0.569908935546875,-0.0821259100228548,-0.010064736288040875,0.06351801185770892
1761506630043881200,0.579881103515625,-0.11098200215101242,-0.011189648664742707,0.04010566341974772
1761506630053853200,0.589853271484375,-0.13362228850424288,-0.017924509877711534,0.025287556308868805
1761506630063825200,0.5998251953125,-0.16802666240930555,-0.024428777205199002,-0.0051197998323012145
1761506630073797000,0.609797119140625,-0.19536475118994712,-0.02678556946441531,-0.025422409618739036
1761506630083769000,0.61976904296875,-0.20296996549665927,-0.03343304465487599,-0.04038942596430424
1761506630093741000,0.629740966796875,-0.16789222237467766,-0.035202684675902124,-0.03910203020200133
1761506630103713300,0.63971337890625,-0.1276841306269169,-0.03932736339047551,-0.03656102221598848
1761506630113685200,0.649685302734375,-0.10056874468624591,-0.042904345094412565,-0.05302103076539933
1761506630123656200,0.65965625,-0.08580079914331436,-0.029768092406541106,-0.07774391381265595
1761506630133628200,0.669628173828125,-0.0631856472313404,-0.022323475489020347,-0.13095131572932003
1761506630143600000,0.67960009765625,-0.031981530672311784,-0.02145370691716671,-0.15681935022370888
1761506630153572000,0.689572021484375,0.011159107396006583,-0.01576338632106781,-0.15024328716848975
1761506630163544000,0.6995439453125,0.10220599049925803,-0.01837429947182536,-0.11248142866222187
1761506630173516300,0.709516357421875,0.19386428349912166,-0.026101678853482007,-0.04375586105694528
1761506630183488300,0.71948828125,0.21622867552042005,-0.010462065042555332,0.01748545174016617
1761506630193460200,0.729460205078125,0.21055764414668082,-0.004965367322415113,0.025063024554704313
1761506630203431200,0.73943115234375,0.2256476612508297,-0.012364391532540321,0.033282964093121696
1761506630213403100,0.749403076171875,0.22532149803638457,-0.01791340396180749,0.051377231914014554
1761506630223375000,0.759375,0.19688859975636006,-0.004138999500870704,0.06231110201966948
1761506630233347000,0.76934716796875,0.16907003398239612,0.02404679215028882,0.06956004110146313
1761506630243319300,0.7793193359375,0.12137655491530895,0.053818245557695626,0.052057583427568895
1761506630253291000,0.789291015625,0.026722587230801582,0.08951105183809994,0.01243844314943999
1761506630263263200,0.79926318359375,-0.033574937343597414,0.09537205282598733,-0.00307383165450301
1761506630273235200,0.809235107421875,-0.049018590191006656,0.06007715982198715,-0.009129464731924235
1761506630283206100,0.8192060546875,-0.05581248811483383,0.04674333873540163,-1.780965132638812e-7
1761506630293178000,0.82917822265625,-0.08475392043888569,0.04916442840248346,0.002453731561359018
1761506630303150000,0.839150146484375,-0.1469242531478405,0.06660436963364481,0.017148981760838067
1761506630313122300,0.849122314453125,-0.19565642761290072,0.09124927380755543,0.004730540219810791
1761506630323094000,0.859093994140625,-0.20499182671308516,0.11690861572101711,-0.0038203117734054103
1761506630333066200,0.869066162109375,-0.18261925138533114,0.11393412995487451,-0.020667123116739093
1761506630343038200,0.8790380859375,-0.1284510233461857,0.10704422431066632,-0.03889749777296092
1761506630353010200,0.88901025390625,-0.048535190588235855,0.09519728078097105,-0.04136568255135789
1761506630362982400,0.898982421875,0.0413093309879303,0.08513356740623712,-0.025323652818845584
1761506630372953000,0.908953125,0.11818214278817177,0.05948796175718307,-0.002624882310605608
1761506630382925300,0.91892529296875,0.16698095274865626,0.05167787252813577,0.01881446272106841
1761506630392897000,0.92889697265625,0.17585107242465017,0.0466466003626585,0.03438327175152953
1761506630402869200,0.938869140625,0.14154898985028266,0.029798195283859966,0.0348877461083699
1761506630412841000,0.948841064453125,0.061111179044842714,0.0612035335034132,0.008131210942193866
1761506630422813200,0.958813232421875,-0.027155133429169653,0.09043985712081193,0.0026328601210843772
1761506630432785200,0.96878515625,-0.06398059700131416,0.11043649709746241,0.02152931117033586
1761506630442757000,0.978757080078125,-0.10063011948466301,0.10990838157013058,0.04461417665302288
1761506630452728300,0.988728271484375,-0.1274181731671095,0.0978945570409298,0.054105885126348584
1761506630462700000,0.998699951171875,-0.12803835089206694,0.09676686818525194,0.06056528126564808
1761506630472672300,1.00867236328125,-0.11309271069467067,0.09423866488188505,0.04519099472686648
1761506630482644000,1.01864404296875,-0.12430734767019748,0.07589315311312675,0.037784079471230504
1761506630492616200,1.0286162109375,-0.11223170995116233,0.06067877897694707,0.04049687752730678
1761506630502588200,1.038588134765625,-0.10963935537040233,0.04008402697667479,0.013818809858243911
1761506630512559900,1.048559814453125,-0.14124796107709406,0.018613661185652018,-0.03376807387907756
1761506630522532000,1.058531982421875,-0.17730419384241103,-0.022873072195798157,-0.07682578518758527
1761506630532503800,1.06850390625,-0.21806290521025656,-0.04220218817442655,-0.07140602516117506
1761506630542475000,1.07847509765625,-0.27859073140919205,-0.037074031505733726,-0.08827204809505491
1761506630552446700,1.08844677734375,-0.28648060787618157,-0.046206163118779654,-0.11376494740042835
1761506630562419000,1.0984189453125,-0.26649814255535603,-0.042805414764583105,-0.14747459877328947
1761506630572391000,1.108390869140625,-0.2455196519345045,-0.04121113131046295,-0.18270923122372476
1761506630582363000,1.11836279296875,-0.2058271084934473,-0.055302785027027124,-0.20516274456689132
1761506630592335000,1.128335205078125,-0.16390461404323578,-0.05041501298546791,-0.24635243123052641
1761506630602306800,1.138306884765625,-0.10084463901817799,-0.03909998437538743,-0.26873149109799416
1761506630612279000,1.148279052734375,-0.04247545215785503,-0.05295183798670768,-0.2950056404415518
1761506630622249700,1.158249755859375,0.025469372299313543,-0.05951937980875373,-0.28072949700355526
1761506630632222000,1.168221923828125,0.09776713126897811,-0.03849105869680643,-0.2801809232100844
1761506630642194000,1.17819384765625,0.1796633241891861,-0.0291442614197731,-0.24461075692865997
1761506630652166000,1.188165771484375,0.28942016845941543,-0.015182371562719343,-0.19859525754377244
1761506630662138000,1.19813818359375,0.39383623622357844,0.0011354337707161902,-0.16320488654235377
1761506630672109800,1.20810986328125,0.44700376278758047,-0.005138531932234764,-0.11814416713165118
1761506630682082000,1.21808203125,0.4327104490190744,0.03277764948606491,-0.09334433725751004
1761506630692054000,1.228053955078125,0.37792730395197865,0.06237535376176238,-0.0632587398670148
1761506630702025000,1.23802490234375,0.28986382057368754,0.09718757781535386,-0.041425792407873085
1761506630711997000,1.247996826171875,0.21331424937844276,0.1449266495898366,-0.015562635018001309
1761506630721969000,1.257968994140625,0.1726782876074314,0.16095643176212907,0.03801996145318262
1761506630731940900,1.26794091796875,0.17077625337839125,0.15337518285289406,0.07650473653967492
1761506630741912800,1.277912841796875,0.1647398958235979,0.15606106093600391,0.11747548322300426
1761506630751885000,1.287885009765625,0.13253624683320522,0.13766381898000835,0.14460822215727528
1761506630761857000,1.29785693359375,0.05337210922539234,0.1355509184792638,0.1577601930040866
1761506630771829000,1.3078291015625,-0.028642157116532323,0.13047814525961876,0.1619604942381382
1761506630781801000,1.317801025390625,-0.10393091459572315,0.11404109746068715,0.14957848485051653
1761506630791772000,1.32777197265625,-0.20861235529780386,0.10695815346240997,0.15211385768018662
1761506630801744000,1.337743896484375,-0.3016425211727619,0.12054814126715063,0.1523693120122887
1761506630811715800,1.3477158203125,-0.3233750450313091,0.12242416427209972,0.1570600819107145
1761506630821688000,1.35768798828125,-0.27054829472899433,0.12177213010415434,0.17490904233418403
1761506630831660000,1.367659912109375,-0.23670564635992047,0.11427329878136515,0.18283952480619772
1761506630841632000,1.377632080078125,-0.2033119108021259,0.09998173857852816,0.20926238017175344
1761506630851604000,1.38760400390625,-0.15235621506869793,0.08546908297091722,0.24930086923995984
1761506630861576000,1.397575927734375,-0.09476678040921688,0.07051803594604134,0.25886859752498564
1761506630871547000,1.407546875,-0.018813421541452408,0.04804667641893029,0.25925080177560444
1761506630881518800,1.417518798828125,0.02514496265053749,0.05556216661557555,0.23655074805915355
1761506630891490800,1.42749072265625,0.04565875836908817,0.06594079115837811,0.1918596291458234
1761506630901463000,1.437463134765625,0.07038929499983787,0.060166591671109194,0.15454179721316322
1761506630911435000,1.44743505859375,0.10224866059720515,0.06856909383535385,0.11172460067924112
1761506630921407000,1.457406982421875,0.14141279624998568,0.06294774682223797,0.0829942081568297
1761506630931379000,1.46737890625,0.17229250316023825,0.050507659704983235,0.06036680411805864
1761506630941351000,1.477350830078125,0.20725860260128973,0.030397476351261138,0.038595815979223694
1761506630951321900,1.48732177734375,0.22981997849941252,0.014530921916663646,0.006942882507038302
1761506630961293800,1.4972939453125,0.19391396785974502,0.012423866634815931,-0.03376227660924196
1761506630971266000,1.50726611328125,0.13044365846812725,0.04671776590272784,-0.07159888085215352
1761506630981238000,1.517238037109375,0.06350888783633708,0.07977788559198379,-0.09174608088117092
1761506630991210000,1.5272099609375,0.029992402681708333,0.09659648005440831,-0.10038217260558158
1761506631001182000,1.537181884765625,0.03976385511159897,0.0728629916369915,-0.08207891080966219
1761506631011154000,1.54715380859375,0.10237667089104652,0.042173108210414645,-0.05731493313361424
1761506631021126100,1.557126220703125,0.1258925710350275,0.023984102177619933,-0.056550049708341245
1761506631031096800,1.567096923828125,0.08310264610052108,0.008499825058877468,-0.06378809293678496
1761506631041069000,1.577069091796875,0.01036065049469471,0.006340601198375225,-0.09371075941710733
1761506631051040800,1.587040771484375,-0.08004267400801181,0.031059301260858773,-0.13488556817201897
1761506631061013000,1.597012939453125,-0.14441723876297474,0.03494578730538487,-0.1452742026521824
1761506631070985000,1.60698486328125,-0.12261749488711357,0.008229922076314688,-0.14589505623057483
1761506631080957000,1.61695703125,-0.07422025146484375,-0.014173632911592722,-0.1314572285579983
1761506631090929200,1.62692919921875,-0.01530453663766384,-0.03025470687970519,-0.08183494598595425
1761506631100900900,1.63690087890625,0.04328092332184314,-0.03886223009675741,-0.03310866697214078
1761506631110872000,1.6468720703125,0.08551847507059573,-0.051179859878122805,-0.01934325410183519
1761506631120843800,1.65684375,0.08871931693851948,-0.049681584144383666,-0.005702444858732633
1761506631130816000,1.66681591796875,0.029914076748490333,-0.01998217305988073,-0.0398161835204577
1761506631140787700,1.67678759765625,-0.05238543627560138,0.0018754384830594062,-0.06222433248509187
1761506631150760000,1.686760009765625,-0.0791150377690792,0.013422522283345461,-0.07069989075239282
1761506631160732000,1.69673193359375,-0.05564297676682472,0.015307897638529537,-0.04600491405879147
1761506631170704000,1.706703857421875,-0.022484803530573843,0.004303980804234743,-0.005504899292904883
1761506631180676000,1.716676025390625,-0.00907879399061203,0.007666735235601663,0.037811693563940936
1761506631190647800,1.726647705078125,-0.001152092644572258,0.017653145590424538,0.07998850526851602
1761506631200619000,1.736618896484375,-0.0074205053895711895,0.03555383620113134,0.09738390410505235
1761506631210590700,1.7465908203125,-0.01009177042543888,0.06266732244566083,0.10193347543450072
1761506631220563000,1.75656298828125,0.0012397709280252457,0.05101268661767244,0.12001368733057752
1761506631230535000,1.766534912109375,0.020593875217437742,0.05370177957117557,0.1409151306598447
1761506631240507000,1.7765068359375,0.04411445153653622,0.06828399328365922,0.13468631927287206
1761506631250479000,1.78647900390625,0.06508358980715274,0.0653128685183823,0.15491627481505274
1761506631260450800,1.796450927734375,0.11709843920469283,0.08865224305167793,0.17414246014216914
1761506631270423000,1.806423095703125,0.1524830563187599,0.08553221133500337,0.15154521834622137
1761506631280393700,1.816393798828125,0.173488434946537,0.0714750444099307,0.1141089385325089
1761506631290366000,1.826365966796875,0.15300503436625004,0.0753803812853992,0.07975571029279381
1761506631300338000,1.836337890625,0.11688391967117785,0.056327890291064976,0.06202956339824013
1761506631310310000,1.846309814453125,0.07243512161374091,0.0666933630913496,0.04371562494467943
1761506631320281900,1.85628173828125,0.041780455631017684,0.05859422778785228,0.010643988347565754
1761506631330253800,1.86625390625,0.013308978906273842,0.05298647090867161,-0.011016771749290636
1761506631340226000,1.87622607421875,0.009914660292863845,0.037777795860916376,-0.008643864038912579
1761506631350198000,1.886197998046875,0.03863280525505543,0.03196355662420392,-0.02079361730692908
1761506631360169000,1.8961689453125,0.050205169627070424,0.000618131898343563,-0.03046153173053171
1761506631370141000,1.906140869140625,0.02355681667625904,-0.01694602023437619,-0.03517197444380726
1761506631380113000,1.91611279296875,-0.03836509422957897,-0.004443681535869837,-0.029979360537044704
1761506631390084900,1.9260849609375,-0.0827355663537979,0.006508358980715274,-0.02471403073723195
1761506631400056800,1.936056884765625,-0.09417875138819218,0.0033069325909018516,-0.033329371934558726
1761506631410029000,1.946029052734375,-0.09264438142776489,0.005753156699240207,-0.03164338019255083
1761506631420001000,1.9560009765625,-0.07967910139262675,0.008981032704561949,-0.0354872029889957
1761506631429973000,1.965972900390625,-0.07101005724668502,0.021657558926194906,-0.0347798493040842
1761506631439944000,1.97594384765625,-0.08254442769587039,0.027180414000898597,-0.03162935395048698
1761506631449916000,1.985916015625,-0.07126900044381618,0.032699177422374485,-0.009354094667499884
1761506631459887900,1.995887939453125,-0.04683481641113758,0.03244710235744715,-0.00031274432715727013
1761506631469859800,2.00585986328125,-0.029395021310448646,0.023829934529215096,0.00263893138555577
1761506631479831800,2.015831787109375,-0.0017073884397745133,0.006313420930504798,-0.00044297854412579906
1761506631489804000,2.025803955078125,0.03893324950635433,0.0006176935069262981,-0.012984149132389574
1761506631499776000,2.03577587890625,0.08558744865357876,-0.0039233109235763544,0.01733437109799124
1761506631509748700,2.045748779296875,0.10003682976663113,-0.003750146313756704,0.0214434709342313
1761506631519720000,2.055719970703125,0.09781213945448398,0.026343670915812252,0.014463902828749268
1761506631529691600,2.065691650390625,0.06645254007279873,0.047293666094541546,0.0014555782363284378
1761506631539664000,2.075663818359375,0.025491584131121636,0.04401449829339981,0.008319069656002102
1761506631549635800,2.0856357421875,-0.006399930170178413,0.04862023852318525,0.006050318152309045
1761506631559607800,2.09560791015625,-0.00350654681622982,0.05123465880528092,0.0037415714233007746
1761506631569579800,2.105579833984375,0.009964929175376891,0.07676277555450797,-0.007843992640293436
1761506631579551700,2.1155517578125,0.056848845425248144,0.07877908381298183,0.020577794015605468
1761506631589523700,2.125523681640625,0.10377484725117683,0.05353036852702498,0.040249665867164726
1761506631599494700,2.13549462890625,0.1812666677325964,-0.008120762613415718,0.02701181140176486
1761506631609467000,2.145466796875,0.20201836386024952,-0.08164601755142212,0.03525844258428551
1761506631619438800,2.15543896484375,0.14845277788937092,-0.044793812102824446,-0.04957138350186869
1761506631629410800,2.165410888671875,0.10401625479161739,0.006761749219894409,-0.08716936581647024
1761506631639382800,2.1753828125,0.056283612757921216,0.031775925097614524,-0.07826455841958523
1761506631649354800,2.185354736328125,0.05316811108589172,0.03980009546875953,-0.04179116425469983
1761506631659326700,2.19532666015625,0.10591244380176067,0.025371172621846197,-0.020785799326654524
1761506631669299000,2.205298828125,0.09561141453981399,-0.0004348842859268188,-0.02948775936150923
1761506631679270000,2.215269775390625,0.09075637572407722,-0.0025191432140767574,-0.005566338023403659
1761506631689241900,2.225241943359375,0.0715595078229904,-0.031660335893929005,-0.008222862147865816
1761506631699213800,2.2352138671875,0.04952829327881336,-0.01687324725911021,-0.023842638747161252
1761506631709185800,2.245185791015625,0.020574585995078085,-0.025036387709528207,-0.03616826003873721
1761506631719157800,2.25515771484375,-0.02391805120408535,-0.04856529346555471,-0.04907662225486711
1761506631729129700,2.265129638671875,-0.08586626559495926,-0.057845747508108614,-0.039022708754939954
1761506631739102000,2.27510205078125,-0.15469021097421645,-0.037678281009197234,-0.01312902836264111
1761506631749073700,2.28507373046875,-0.21523615735173224,-0.022861235627532003,-0.0037210663497447964
1761506631759044900,2.295044921875,-0.2362602406799793,-0.01832023119702935,0.003131694755004719
1761506631769016800,2.305016845703125,-0.20636077697873115,-0.019268033441156147,-0.007957151283230633
1761506631778988800,2.31498876953125,-0.1789694967061281,-0.02648366390839219,-0.07153302167486399
1761506631788960800,2.324960693359375,-0.11278583670258521,-0.03688245445638895,-0.0928868484141305
1761506631798932700,2.3349326171875,-0.07798574147820472,-0.05222513114735484,-0.049385834334511304
1761506631808905000,2.344905029296875,-0.08793313499689101,-0.06847133254930377,-0.03011153554935008
1761506631818876700,2.354876708984375,-0.10053834954798221,-0.06925459188148379,0.007801841990510002
1761506631828849000,2.364848876953125,-0.1103594863384962,-0.0761716047283262,0.03244941304554231
1761506631838819800,2.37481982421875,-0.1035538979768753,-0.07085932366438209,0.04940294073293917
1761506631848791800,2.384791748046875,-0.049444706648588174,-0.058926163155958056,0.053353331459686154
1761506631858763800,2.394763671875,0.02381166822016239,-0.06898315452896057,0.05972862037895247
1761506631868735700,2.40473583984375,0.0700876817047596,-0.08473083182424307,0.06183305444545112
1761506631878708000,2.4147080078125,0.08240589600801468,-0.07271744568645953,0.05886656018951907
1761506631888679700,2.4246796875,0.023092121773958203,-0.03876826820299029,0.056791589679522435
1761506631898652000,2.43465185546875,-0.04231237055063247,-0.008071808905154467,0.05934238840718753
1761506631908623600,2.44462353515625,-0.05500818599462509,0.010667670617252588,0.03554553416366689
1761506631918594800,2.4545947265625,-0.05094868147075176,0.012465367688983679,0.015728534203395247
1761506631928567000,2.464567138671875,-0.0060942252218723295,-0.005488660544157028,0.013570205392036586
1761506631938538800,2.474538818359375,0.03620411680340767,-0.00279459915459156,0.0031003223692066964
1761506631948511000,2.484510986328125,0.0392787019431591,0.01121734038926661,0.011883247818937525
1761506631958482700,2.494482666015625,0.011950550034642219,0.029031960151717065,0.016404296306800098
1761506631968455000,2.504454833984375,-0.019928104785084725,0.056981166568025945,0.018573822365608065
1761506631978426600,2.514426513671875,-0.005361819294095039,0.05890541262887418,0.046167045817943286
1761506631988398800,2.52439892578125,0.039700142225623125,0.03749671389721334,0.057821782110631464
1761506631998370000,2.5343701171875,0.08209025418758392,0.018223931215703485,0.06072564119282178
1761506632008341800,2.544341796875,0.09234569074213504,0.008749269775301218,0.06094649913557805
1761506632018314000,2.55431396484375,0.10132219340205192,0.0037565760545432564,0.05600930759487673
1761506632028285700,2.56428564453125,0.10019991137385367,-0.008046674463897943,0.034245676212012764
1761506632038258000,2.5742578125,0.07504851898252964,-0.0007462883226573467,-0.00033212716435082254
1761506632048230000,2.58422998046875,0.03552665593326092,0.006335413566604256,-0.023078202846460043
1761506632058201900,2.594201904296875,0.011858780097961425,0.002278393260762095,-0.03793674014913849
1761506632068173800,2.604173828125,-0.01736848343014717,0.004685235206782818,-0.04084736689883284
1761506632078144800,2.614144775390625,-0.03972586118876934,-0.003877864346653223,-0.043915768892969935
1761506632088117000,2.624116943359375,-0.05037409645318985,0.003317600115388632,-0.05325996322096325
1761506632098088700,2.634088623046875,-0.040347207957506175,0.017463249041512606,-0.0541976641961839
1761506632108061000,2.64406103515625,-0.04635784654915333,0.026072087432816624,-0.05891998914349824
1761506632118033000,2.654032958984375,-0.0594300940901041,0.026616350377351043,-0.05983017192413099
1761506632128004900,2.6640048828125,-0.05936579668223858,0.023823870114609597,-0.03276193132712506
1761506632137976800,2.673976806640625,-0.030577509093284605,0.029726883613318204,0.007643043832760304
1761506632147948800,2.68394873046875,-0.0022439795345067974,0.0260327783357352,0.030327936512697485
1761506632157920000,2.693919921875,0.031493454894423484,0.0311452259786427,0.048122070609545334
1761506632167891700,2.7038916015625,0.042516368690133095,0.04946903737224638,0.03900327340210788
1761506632177864000,2.713864013671875,0.05654781665205955,0.060633332400023936,0.022250547250127418
1761506632187836000,2.7238359375,0.07715513587296009,0.06082556703649461,0.00491559163024649
1761506632197807900,2.733807861328125,0.12081716746687889,0.04681896125487983,0.02630132961142808
1761506632207779800,2.74377978515625,0.141499890011549,0.036671953510865565,0.04908082350594923
1761506632217751800,2.753751708984375,0.1174047286748886,0.052658042671903965,0.0632652518061921
1761506632227723800,2.763723876953125,0.08799392527341843,0.07972988173179328,0.06420053249546326
1761506632237694700,2.77369482421875,0.029517770907282827,0.09742547822445631,0.05167983615635894
1761506632247667000,2.7836669921875,0.005074234524369239,0.0949951092723757,0.02826405365229584
1761506632257639000,2.793638916015625,0.03668108666539192,0.06543181872293352,0.025571480966918168
1761506632267611000,2.80361083984375,0.06619184330999851,0.024463483192399143,0.033069024514919144
1761506632277582800,2.813582763671875,0.07001695455610751,0.005988207564130425,0.03557743627242744
1761506632287554800,2.823554931640625,0.05206745636761188,-0.004006678358092904,0.03449892032071948
1761506632297526800,2.83352685546875,0.027183775001764297,0.0035429333038628098,0.027354692855570465
1761506632307499000,2.8434990234375,-0.0013058219015598296,0.004405906808748841,0.014795838196855038
1761506632317470000,2.853469970703125,-0.04066635690927505,0.013059022733196616,0.007723068532720208
1761506632327442000,2.86344189453125,-0.1125946980446577,-0.0028481559727340936,-0.0038696262412704525
1761506632337414000,2.873413818359375,-0.13410393454134464,-0.005479819650575518,-0.014692213425599038
1761506632347385900,2.8833857421875,-0.1555424438893795,-0.010002630837261677,-0.03201614532796666
1761506632357357800,2.89335791015625,-0.14707798240482806,-0.0155236592810601,-0.014840444523561746
1761506632367329800,2.903329833984375,-0.11612696382403373,-0.012360153748840093,-0.015961374844890085
1761506632377302000,2.913302001953125,-0.06467793161571025,-0.018261632877588273,-0.013080339515861123
1761506632387273700,2.923273681640625,-0.030543022301793097,-0.025744609044119713,-0.009740052644629031
1761506632397245000,2.933244873046875,0.022239888858795166,-0.033258784066513176,-0.017229988274909555
1761506632407217000,2.943216796875,0.06378945834338665,-0.03753324651531875,-0.016986553174164146
1761506632417188900,2.95318896484375,0.07523439694344997,-0.033724355751648546,-0.022768442777544258
1761506632427160800,2.963160888671875,0.02938216182887554,-0.0018099720314145088,-0.024604243369959294
1761506632437132800,2.9731328125,-0.05080664265155792,0.04762837794162333,-0.009886639774776995
1761506632447105000,2.98310498046875,-0.08370528816878794,0.08580204125232994,-0.009913966173119843
1761506632457076700,2.99307666015625,-0.062252750295400616,0.09807583189196883,-0.00982058880124241
1761506632467049000,3.003049072265625,0.014344167172908782,0.08767382647357881,0.005385675093717872
1761506632477020000,3.01302001953125,0.10279226595461367,0.057686246097460384,0.019635113187879322
1761506632486992000,3.022991943359375,0.15218787276446819,0.03825958802849054,0.013783811610098928
1761506632496963800,3.0329638671875,0.15176117178499698,0.06298837109357118,-0.009835494109429419
1761506632506935000,3.04293505859375,0.09864391410350799,0.09282843275777995,-0.037421712432242925
1761506632516907300,3.0529072265625,0.04692366373836994,0.15077479109615086,-0.06675999858677387
1761506632526879000,3.06287890625,-0.013982932645082474,0.09300715032555162,-0.025056718111503867
1761506632536851200,3.072851318359375,0.018000351592898367,0.10366882959343493,-0.052985849854163825
1761506632546823000,3.082822998046875,0.04263561115562915,0.0999226288024336,-0.052007579406537115
1761506632556794000,3.092794189453125,0.029860300734639165,0.0608916910752654,-0.029844317714218048
1761506632566766000,3.10276611328125,0.03415712114572525,0.08614793208055198,-0.060957997777126724
1761506632576738000,3.112738037109375,0.01261456690132618,0.07342895495668053,-0.08237164667854086
1761506632586710300,3.122710205078125,-0.0255278244882822,0.06923530265912413,-0.09450997437024489
1761506632596682000,3.132681884765625,-0.051124622559547424,0.0821009217120707,-0.0950204446430318
1761506632606654200,3.142654296875,-0.07259060443639755,0.07922821581996976,-0.08609152571819723
1761506632616626000,3.1526259765625,-0.08367430850863457,0.06862995717711746,-0.06135125314472243
1761506632626598100,3.16259814453125,-0.05532207424938678,0.05481492844484746,-0.041526517402566965
1761506632636569000,3.172569091796875,-0.015175357300043105,0.03051956836096942,-0.03250349045349285
1761506632646541000,3.182541015625,0.01841594665646553,0.011909195110946893,-0.04769333293661475
1761506632656513300,3.19251318359375,0.03978197529017925,0.010820450026169418,-0.06948410805473104
1761506632666485000,3.202485107421875,0.02976385462284088,-0.0029270664278417823,-0.08087757219588383
1761506632676457200,3.212457275390625,-0.003556815698742866,0.0038069910675287244,-0.09955490973489359
1761506632686429000,3.222428955078125,-0.025962124252319335,0.015350567736476658,-0.11603963260045275
1761506632696401200,3.232401123046875,-0.0586111789226532,0.020289485443383454,-0.10735455063516273
1761506632706373000,3.242373046875,-0.056745969572663306,0.012121668817847967,-0.09343483768571167
1761506632716344000,3.252343994140625,-0.021094810476899147,0.0030877368822693823,-0.07380335949333384
1761506632726316300,3.26231640625,0.0024269348859786988,-0.012228270997479557,-0.07649188619125634
1761506632736288000,3.2722880859375,0.005916530567407608,-0.022198095543682572,-0.09114316481826826
1761506632746260200,3.28226025390625,0.004087561574578285,-0.02122552418448031,-0.10230787997115402
1761506632756232000,3.29223193359375,0.015468202766776084,-0.006598959873616695,-0.10802592882439493
1761506632766204200,3.3022041015625,0.01281622695326805,0.012838950241729616,-0.11624174931012093
1761506632776176000,3.312176025390625,0.011958148819208144,0.02493088150843978,-0.09683397860471159
1761506632786148000,3.322148193359375,0.04116846121251583,0.014755597518011927,-0.05334673732211813
1761506632796119300,3.332119384765625,0.05049333891868591,0.0163601101052016,-0.016113368802517652
1761506632806091000,3.342091064453125,0.014940964022278784,0.031748379503563046,0.0026286497368477285
1761506632816063200,3.352063232421875,-0.041896775487065316,0.0617220044195652,0.001032156059332192
1761506632826035000,3.362034912109375,-0.06602525457143783,0.09639628130719065,-0.027666791012044993
1761506632836007200,3.372007080078125,-0.017820903372764586,0.07032835859283805,-0.021588640142139046
1761506632845979100,3.381979248046875,0.1026478890478611,0.0240574596747756,0.00018047113344073294
1761506632855951000,3.391951171875,0.19582418539524077,-0.01495747676566243,0.027155334358569233
1761506632865923000,3.401923095703125,0.19125790039300916,-0.018978475910052656,0.07573591672480105
1761506632875894000,3.41189404296875,0.11900982578396796,0.005852671550959349,0.10788376214103773
1761506632885866200,3.4218662109375,0.04924363111853599,0.03923318230099976,0.11279792899917811
1761506632895838000,3.431837890625,-0.05626432353556156,0.06337021001800894,0.10058836270216852
1761506632905810200,3.44181005859375,-0.12711013013124464,0.06477145511806011,0.08140535892965271
1761506632915782100,3.4517822265625,-0.14019932880699634,0.05596534058898687,0.07288271925076842
1761506632925754000,3.461754150390625,-0.10965163033008575,0.03861176246702671,0.0767086890134029
1761506632935726000,3.47172607421875,-0.07089198382496834,0.027590456106513738,0.08852284451834858
1761506632945698000,3.481697998046875,-0.0490647674202919,0.044909109045565124,0.0926374584966339
1761506632955669200,3.491669189453125,-0.03707154728770256,0.040879561268538235,0.07436888442160561
1761506632965641000,3.501640869140625,-0.018241759133338926,0.048960357197746635,0.035356450465507804
1761506632975613200,3.51161328125,-0.002068038445711136,0.0400800083886832,-0.00366255936184898
1761506632985585200,3.521585205078125,0.039918753412365914,0.021272066739946603,-0.03975137922251597
1761506632995557000,3.53155712890625,0.09151742322444915,-0.015816358617320656,-0.062231908436771476
1761506633005529000,3.541529052734375,0.10498071590960026,-0.033109584854170676,-0.06462417386816814
1761506633015501000,3.5515009765625,0.08897942917943,-0.027673531280085442,-0.06835596254132688
1761506633025473000,3.56147314453125,0.04598141445219516,0.0039896541580557825,-0.069786305871699
1761506633035444000,3.57144384765625,-0.025766893941164014,0.024821137523651123,-0.07795814108522608
1761506633045416200,3.581416259765625,-0.07622633059024811,0.033549875967577095,-0.08494012719336896
1761506633055388200,3.59138818359375,-0.08583002523779869,0.01804842851832509,-0.084948456630297
1761506633065360100,3.601360107421875,-0.04496200827658176,0.0017989391807466744,-0.08451222063750029
1761506633075332000,3.61133203125,0.013699439528584479,-0.004860007251799106,-0.0702811401839368
1761506633085304000,3.621303955078125,0.0454003996938467,0.00765847886390984,-0.04123504190901294
1761506633095276000,3.631276123046875,0.06623509792983531,0.023222616285830736,-0.026481271021906286
1761506633105248300,3.641248291015625,0.03709200555384159,0.03694178342819213,-0.016093805585522203
1761506633115219200,3.65121923828125,-0.030427286967635154,0.05886259640045464,-0.0074146236380562185
1761506633125191200,3.661191162109375,-0.10309271020591258,0.06252542975693941,-0.01349812653651461
1761506633135163100,3.6711630859375,-0.13447802855074406,0.09030183688960969,-0.005135134398750961
1761506633145135000,3.681135009765625,-0.10036299298107623,0.09724844115711748,0.021646270347200333
1761506633155107000,3.691107177734375,-0.03467266945242881,0.09595883973799646,0.047978104694746435
1761506633165079000,3.7010791015625,0.03799392282962799,0.09653919690921903,0.08147332786563784
1761506633175051300,3.71105126953125,0.09375672658383846,0.09093845429271459,0.08524164915690198
1761506633185023000,3.72102294921875,0.12981646648049353,0.08121537104919552,0.07903881246140226
1761506633194994200,3.730994140625,0.13210720776617527,0.07200871289521456,0.06994776177741586
1761506633204966100,3.740966064453125,0.13476619784235955,0.08293233103491365,0.07691774692051112
1761506633214938000,3.750938232421875,0.13841712156534194,0.09466668103560805,0.08889191529275849
1761506633224910000,3.76091015625,0.13854688542485236,0.10471256649270654,0.08868731436505914
1761506633234882000,3.770882080078125,0.12165537185668944,0.09081672760918735,0.07627216075966134
1761506633244854300,3.780854248046875,0.05911854392290115,0.07639956826530396,0.061725913409702474
1761506633254826000,3.790825927734375,-0.010668693530559539,0.06586429185606539,0.023563465612754225
1761506633264798200,3.800798095703125,-0.06465513526201248,0.05369133124239742,-0.008418521717283875
1761506633274769200,3.81076904296875,-0.10632745434343814,0.03994586061500013,-0.01559955579517409
1761506633284741000,3.8207412109375,-0.10657704519033431,0.00852664000056684,-0.01108509231172502
1761506633294713000,3.830713134765625,-0.10288520493507385,-0.019819164517894387,-0.005307239562645554
1761506633304685000,3.84068505859375,-0.10063713374733925,-0.04011296081021428,-0.013250965108722448
1761506633314657300,3.8506572265625,-0.10927344466745853,-0.059593979414924975,-0.030065632314700632
1761506633324629000,3.86062890625,-0.11210077704787254,-0.06272570156939328,-0.04251602163026109
1761506633334601200,3.870601318359375,-0.09287292948663234,-0.0695422497164458,-0.05531467639422044
1761506633344573000,3.880572998046875,-0.08124328196942805,-0.06566833089254796,-0.04758548864796758
1761506633354544000,3.890544189453125,-0.08814590096473693,-0.04339548961222171,-0.0722159076387994
1761506633364516000,3.90051611328125,-0.04945931969583034,-0.029214988568425176,-0.0544121563302353
1761506633374488000,3.910488037109375,0.009151859226822852,-0.05029255564957857,-0.014273841883055865
1761506633384460300,3.920460205078125,0.06806114431321621,-0.060810077206417915,0.0035124833666719496
1761506633394432000,3.930431884765625,0.09885784911513328,-0.04178856587223708,0.02577569830212742
1761506633404404200,3.940404296875,0.12738894707262516,-0.01054440956376493,0.012888835531752556
1761506633414376000,3.9503759765625,0.14505319857895374,0.04030037314109504,0.0008762531115673481
1761506633424348200,3.96034814453125,0.14223872568011284,0.0653215632814914,0.01567585416808724
1761506633434319000,3.970319091796875,0.14681611659824848,0.06772672472707927,0.03107981432592496
1761506633444291000,3.980291015625,0.1333861416608095,0.06866371331624686,0.0527936700166203
1761506633454263300,3.99026318359375,0.08297697389423847,0.07788798019215463,0.06380734105994924
1761506633464234200,4.000234130859375,0.05175765976607799,0.08363719136863947,0.06631561582013965
1761506633474206200,4.010206298828125,0.01631049880981445,0.0837966927792877,0.06803129716422408
1761506633484177200,4.02017724609375,-0.016313421419262886,0.08794738271795213,0.03764457966899499
1761506633494149000,4.030149169921875,-0.04673544768989086,0.09556742926761508,0.009433196918852627
1761506633504121000,4.04012109375,-0.09332418038547038,0.09574358955211937,-0.013824563745595514
1761506633514093300,4.05009326171875,-0.13014847491383552,0.11006802911125123,-0.022484547802247106
1761506633524065300,4.060065185546875,-0.17437515465319156,0.09814897019341587,-0.003750584705173969
1761506633534037200,4.070037353515625,-0.194921099075675,0.0844333101823926,-0.0013941943047568201
1761506633544009500,4.080009521484375,-0.1699064848065376,0.07019063062258064,-0.0018358736576512455
1761506633553981200,4.089981201171875,-0.08560615335404873,0.036815526700019835,-0.011831143172364682
1761506633563952400,4.099952392578125,0.0175806648761034,0.0048212826766073705,-0.03003213190389797
1761506633573924400,4.10992431640625,0.12149696642458438,-0.023982202481478452,-0.04484855623105541
1761506633583896300,4.119896240234375,0.19301146606206893,-0.08541779117509722,-0.05083292787028476
1761506633593868300,4.129868408203125,0.19939327605366705,-0.09115596950091422,-0.06434261698042973
1761506633603840300,4.13984033203125,0.12061200028359889,-0.07582768666148185,-0.0598138509769924
1761506633613812500,4.1498125,0.039143092864751816,-0.047108153459802266,-0.06843136586509645
1761506633623784200,4.1597841796875,-0.019259411743283272,-0.011785349535569548,-0.06080916389096528
1761506633633756400,4.16975634765625,-0.015232055923342704,-0.0198435683067888,-0.030613968646153806
1761506633643727400,4.179727294921875,0.02492752050757408,-0.04909691612422466,-0.01937883687186986
1761506633653699300,4.18969921875,0.07733399957120418,-0.056358066233620045,-0.008952245001494883
1761506633663671300,4.19967138671875,0.1139759232699871,-0.04962262049876153,-0.010750343932025133
1761506633673643300,4.209643310546875,0.10273965898454189,-0.031709070406481625,-0.021067685007955878
1761506633683615500,4.219615478515625,-0.001007131215929985,0.0022740824118256567,-0.03867032425384968
1761506633693587200,4.229587158203125,-0.10310966134071349,0.025546090797334907,-0.024711484870407727
1761506633703559400,4.239559326171875,-0.15140344438850878,0.04546681599356234,-0.029592516643926498
1761506633713531100,4.24953125,-0.17723931191265582,0.05848704108633101,-0.01851843891656026
1761506633723502300,4.25950244140625,-0.1626309408456087,0.07070771329924463,0.005348923279903829
1761506633733474300,4.269474365234375,-0.10073416438102721,0.07043912549093365,0.03390190427564084
1761506633743446300,4.2794462890625,-0.0486333902657032,0.06351553677283227,0.03522612035041675
1761506633753418500,4.28941845703125,-0.03868950387835502,0.061762920951843256,0.014674842165689915
1761506633763390200,4.29939013671875,-0.038681320571899415,0.05534216718934476,-0.0197797640892677
1761506633773362400,4.309362548828125,-0.035977906832098956,0.03904964242763817,-0.03501185654522851
1761506633783334100,4.319334228515625,-0.0015016367346048355,0.03940568932369351,-0.04290668318197131
1761506633793306400,4.329306396484375,0.04165419890284538,0.026816329928860065,-0.029863880931213498
1761506633803277300,4.33927734375,0.09046586834490299,0.02437083647288382,-0.01867222297247499
1761506633813249300,4.349249267578125,0.10617606317400932,0.02240187448747456,-0.015846790288202465
1761506633823221500,4.359221435546875,0.07790566197931766,0.003403232572227716,-0.019661982928495855
1761506633833193200,4.369193115234375,0.022472528570890424,-0.0036877486020326614,-0.023497524237073956
1761506633843166500,4.37916650390625,-0.017056348741054533,0.007541647551208734,-0.03770407303757965
1761506633853138400,4.389138427734375,-0.04724222816824913,0.00641476241312921,-0.036180936857219785
1761506633863110400,4.3991103515625,-0.02601414670050144,0.010611483450606465,-0.03706491661751642
1761506633873082400,4.409082275390625,0.0039016836136579513,-0.016539119933918118,-0.0482168818866834
1761506633883053300,4.41905322265625,0.04254091860949993,-0.027005934216827152,-0.053339083738625045
1761506633893025300,4.429025390625,0.05357727640867233,-0.01642725705727935,-0.06894875906901433
1761506633902997200,4.438997314453125,0.0585410362958908,-0.02053615368083119,-0.07202349033923819
1761506633912969500,4.448969482421875,0.0722439829558134,-0.021224939662590623,-0.05581274384316057
1761506633922941400,4.45894140625,0.04858195233941078,-0.005487126174196601,-0.04211387057015672
1761506633932913400,4.468913330078125,0.02195113504528999,-0.008590791277959942,-0.019593940927274525
1761506633942885400,4.478885498046875,0.011806757649779318,0.007995894124731421,0.013986604173202067
1761506633952857300,4.488857421875,-0.013014379873871803,0.035474122028425335,0.020102493237610906
1761506633962828300,4.498828369140625,-0.02308452298939228,0.039241584803164004,0.018528576718084513
1761506633972800300,4.50880029296875,0.011841828963160514,0.03838599088713526,0.05032841241424903
1761506633982772200,4.518772216796875,0.02387888823747635,0.04714607431739568,0.07261314506176858
1761506633992744400,4.528744384765625,0.004529460123181343,0.04417078483365476,0.09183907466055825
1761506634002716400,4.53871630859375,-0.0353401934504509,0.065678048568964,0.10340245200851932
1761506634012688400,4.5486884765625,-0.06288987915515899,0.09757307000160216,0.07754012573570944
1761506634022660400,4.558660400390625,-0.026826047605276106,0.08576455878615379,0.056886346157733345
1761506634032632300,4.56863232421875,0.06558920124173163,0.03801891114041209,0.06124237680961377
1761506634042603300,4.578603271484375,0.1403928055524826,-0.01711472786478698,0.08504780708523467
1761506634052575200,4.5885751953125,0.188376791998744,-0.04924852648936212,0.09896450609369203
1761506634062547500,4.59854736328125,0.17778291727006434,-0.039736747908964754,0.10169924655351788
1761506634072519400,4.60851953125,0.0846224030137062,-0.006827727128192782,0.07791519699264317
1761506634082491400,4.618491455078125,-0.02834521999657154,0.013423033739998936,0.05330238672373816
1761506634092463400,4.62846337890625,-0.11191373004317283,0.03443484210856259,0.015271145824715494
1761506634102435300,4.638435302734375,-0.13776187252700328,0.031089623333886263,0.0015130349114537238
1761506634112407600,4.648407470703125,-0.11396773996353149,0.018160437525436283,0.003996860216977075
1761506634122378200,4.658378173828125,-0.05588263074159622,-0.0046376697380095715,0.014029813127266243
1761506634132350500,4.6683505859375,0.0051554830670356745,-0.015722177527844904,0.04741638829191215
1761506634142322200,4.678322265625,0.026186580657958983,0.009202712631225586,0.03278216126440093
1761506634152294400,4.68829443359375,0.0132236387103796,0.02397664952352643,0.017234646183717995
1761506634162266400,4.698266357421875,-0.022993922096490857,0.03819258720688522,0.014107070481404662
1761506634172238300,4.70823828125,-0.045887306427955625,0.04366312757246196,-0.003275194878922775
1761506634182210600,4.71821044921875,-0.03696574882566929,0.04665777934379876,-0.006718832526775077
1761506634192182300,4.728182373046875,0.004928104051947594,0.05248568177968263,0.004701428289758041
1761506634202153500,4.738153564453125,0.05842763904929161,0.041515155758336184,0.017909549770597367
1761506634212125200,4.748125244140625,0.10548983447551727,0.034037878680229186,0.026528690360207108
1761506634222097400,4.758097412109375,0.13985504541397095,0.03647160863317549,0.01959430625345558
1761506634232069400,4.7680693359375,0.11252572446167468,0.02801240784563124,0.006012127295834943
1761506634242041300,4.778041259765625,0.08719254576265811,0.02153459013365209,-0.014435809245426206
1761506634252013600,4.788013671875,0.08586042037606238,0.011514569770172237,-0.01859194254418835
1761506634261985300,4.7979853515625,0.050182373273372646,-0.0022802929569035765,-0.018712399719236418
1761506634271957500,4.80795751953125,0.0039139585733413695,0.005971694820746779,-0.021586110258335248
1761506634281929200,4.81792919921875,-0.02022153477370739,0.012768661484494804,-0.024748830339265986
1761506634291900400,4.827900390625,-0.018203765210509298,0.02480849723778665,-0.02663689997503534
1761506634301872000,4.8378720703125,-0.006624971097707748,0.01019822647459805,-0.02613766348231584
1761506634311844400,4.84784423828125,-0.01858838061392307,0.01632277376949787,-0.023032801935309544
1761506634321816300,4.85781640625,-0.018057050216197967,0.015553762158378958,0.002948145748488605
1761506634331788300,4.867788330078125,-0.015005845952033995,0.01250818391740322,0.0011658928410615771
1761506634341760500,4.877760498046875,-0.009821721312403678,0.007190276830270886,-0.006986032095598057
1761506634351732200,4.887732177734375,-0.014940964022278784,0.008932882713899016,-0.000053027095180004834
1761506634361704400,4.897704345703125,-0.005040332254767418,0.0006878361336886882,0.011261581389792262
1761506634371675100,4.907675048828125,0.020927052694559096,-0.004975377259775996,0.015636974329268558
1761506634381647400,4.9176474609375,0.034067104774713516,0.002196487130969763,0.01731844287649728
1761506634391619300,4.927619384765625,0.02310848838686943,0.005692439487949013,0.024966071552829816
1761506634401591300,4.93759130859375,-0.00745966835618019,0.013780688071250914,0.04228456009509973
1761506634411563500,4.9475634765625,-0.04828735330700874,0.03163783180117607,0.0639430780025199
1761506634421535200,4.95753515625,-0.08860241256058216,0.03813808054067194,0.07618607164509594
1761506634431507500,4.967507568359375,-0.05985504150390625,0.03731675422042608,0.08488937425366602
1761506634441479400,4.9774794921875,-0.01108604215979576,0.0413559466086328,0.07971962519926018
1761506634451450400,4.987450439453125,0.020348376023769377,0.02582410402111709,0.0661880621840246
1761506634461422300,4.99742236328125,0.0428384402513504,0.019096622397005557,0.054759216202236706
1761506634471394300,5.007394287109375,0.03587853811085224,0.037514249553903936,0.021275345542421564
1761506634481366300,5.0173662109375,-0.013294950380921364,0.05457607818767428,-0.009012167628342286
1761506634491338200,5.027338134765625,-0.058304889452457424,0.05497486824691295,-0.02962266518701799
1761506634501310500,5.037310546875,-0.062165656533837314,0.05397087883614003,-0.035361236238479615
1761506634511282000,5.047281982421875,-0.060495677495002745,0.06431392060890793,-0.05113444983381778
1761506634521254100,5.057254150390625,-0.023184476232528686,0.05486030195653438,-0.049071544220950454
1761506634531225000,5.06722509765625,0.0028238252490758895,0.05756137760877609,-0.06595007044337689
1761506634541197000,5.077197021484375,0.02407353402674198,0.049832536922395226,-0.07601877052048221
1761506634551169300,5.087169189453125,0.005776245313882827,0.04495835501477122,-0.0879894500277005
1761506634561141000,5.09714111328125,-0.018414777612686156,0.06006240064427256,-0.10054599399832077
1761506634571113200,5.10711328125,-0.004675590595602989,0.0556819936029613,-0.0911859079814516
1761506634581085000,5.1170849609375,0.05934066224098205,0.03843720961771905,-0.0664366209844593
1761506634591057200,5.12705712890625,0.1047346321940422,0.02476801909692585,-0.036121215159771965
1761506634601029000,5.137029052734375,0.1481307063281536,0.007366583245247602,-0.010865175083884968
1761506634611000000,5.147,0.15002338820695876,0.0208696964841336,-0.0177688535251189
1761506634620972000,5.156971923828125,0.14045067321956156,0.053111047136411065,-0.047913524159090594
1761506634630944000,5.166944091796875,0.12072013683319091,0.06810279149785638,-0.05906225629155524
1761506634640916200,5.176916259765625,0.16535247476398943,0.03630041678473353,-0.0373049450516235
1761506634650888000,5.186887939453125,0.25601649602949617,-0.01607669005393982,-0.006771759157255292
1761506634660860200,5.196860107421875,0.29063129781484603,-0.05941825752183794,0.02280935930982232
1761506634670832000,5.20683203125,0.2262742687165737,-0.045642684017121786,0.031291255986364556
1761506634680804000,5.21680419921875,0.09611351884305476,-0.018574717414751647,0.035875286707840855
1761506634690776000,5.226776123046875,-0.033709377378225325,0.005154094827547669,0.01031792559782043
1761506634700747000,5.2367470703125,-0.14060907865166664,0.029872429563850163,-0.01537082507321611
1761506634710719200,5.24671923828125,-0.20289105504155158,0.0378184931974858,-0.01216543489433825
1761506634720691000,5.25669091796875,-0.19920739809274673,0.02280592524372041,0.01767848096108064
1761506634730663200,5.2666630859375,-0.17468845838606356,0.016712722935155033,0.05428252033488825
1761506634740635100,5.27663525390625,-0.14296002569198607,0.008760375691205262,0.09976772136851213
1761506634750607000,5.286607177734375,-0.13051146300733088,0.009202055044099688,0.10434188828309997
1761506634760579000,5.2965791015625,-0.1441916133135557,0.02198817912004888,0.061720396984368556
1761506634770551000,5.306551025390625,-0.14852876573503015,0.022055253006890416,0.008929521713033317
1761506634780522000,5.31652197265625,-0.15461597669422625,0.03320734614022076,-0.028555008556041865
1761506634790494000,5.326493896484375,-0.16961013220846652,0.05853709077313542,-0.023980521981045604
1761506634800466200,5.336466064453125,-0.17954349720180032,0.07864924688823521,-0.0028712628536857665
1761506634810438100,5.346438232421875,-0.13493980084359644,0.07027209836095571,0.02055220976648852
1761506634820410000,5.35641015625,-0.0447422280460596,0.05248027495220303,0.016592165295407173
1761506634830382000,5.366382080078125,0.05000000244379043,0.02633278419561684,0.010826934565883128
1761506634840354000,5.37635400390625,0.1760766978740692,-0.0076299834217876195,-0.007062156938575208
1761506634850326000,5.386325927734375,0.27700141639113424,-0.05605922941751778,-0.020741247798874974
1761506634860297000,5.396296875,0.31496962025761605,-0.0730790455404669,-0.04572183193424716
1761506634870269200,5.406269287109375,0.2773088749051094,-0.04157638442628085,-0.04906984545420855
1761506634880241200,5.4162412109375,0.1746469573318958,-0.006860825680196285,-0.04122282174825668
1761506634890213000,5.426213134765625,0.04569324516057968,0.03255808845125138,-0.047317814155109224
1761506634900185000,5.43618505859375,-0.032926118046045304,0.05305529836118221,-0.031601061721052974
1761506634910157000,5.446156982421875,-0.07207271804213523,0.05734634661860764,-0.021100966223049907
1761506634920129000,5.45612890625,-0.06202361771464347,0.05488229459263384,0.01999923379253596
1761506634930101200,5.466101318359375,-0.005222703084349632,0.06529781707972288,0.05679671337921172
1761506634940072000,5.476072021484375,0.04230418724417686,0.07354834355264901,0.0669594301490113
1761506634950044200,5.486044189453125,0.07058686339855194,0.06972491280697286,0.08541053945040329
1761506634960016100,5.49601611328125,0.049125557696819304,0.0738243840150535,0.08372969195768237
1761506634969988000,5.505988037109375,0.014086977541446685,0.09143997407406568,0.08075358049003407
1761506634979960000,5.5159599609375,-0.028169863429665563,0.09493753386624157,0.10081088287904857
1761506634989932000,5.52593212890625,-0.016610943061113357,0.10110855065137148,0.11198926123110577
1761506634999904300,5.535904296875,0.0064221420019865035,0.07708060933202504,0.11797489324565977
1761506635009876000,5.5458759765625,0.03058919953107834,0.06885485197417437,0.12630392831489443
1761506635019847200,5.55584716796875,0.055363575303554534,0.04781242927163839,0.1137558507785201
1761506635029819100,5.565819091796875,0.042514030602574346,0.028900369661301373,0.08337112431097775
1761506635039791000,5.575791015625,-0.03197159380018711,0.035196108804643154,0.028791374595183876
1761506635049763000,5.58576318359375,-0.11161796196699142,0.03274593917354941,-0.01943931662114337
1761506635059735000,5.595735107421875,-0.14809797310233117,0.017227248328551648,-0.03733732208441943
1761506635069707300,5.605707275390625,-0.11433072805702686,-0.010562748938053845,-0.050118715186323964
1761506635079679000,5.615678955078125,-0.08526829970180988,-0.04727459606789052,-0.06599624767266213
1761506635089651200,5.625651123046875,-0.05129647199511528,-0.06671221392229199,-0.07354001411572099
1761506635099622000,5.635621826171875,-0.021620295655727387,-0.07512735637240112,-0.09976804102892056
1761506635109594000,5.645593994140625,-0.014030278918147086,-0.0789428960725665,-0.12163891391223296
1761506635119566000,5.655566162109375,-0.05170739088356495,-0.07591485348828136,-0.14448025752920657
1761506635129538000,5.6655380859375,-0.0977940192759037,-0.06285239668898283,-0.14532061734348534
1761506635139510300,5.67551025390625,-0.09335983622074126,-0.05732544996105134,-0.12631644073659554
1761506635149482000,5.68548193359375,-0.062330491706728934,-0.04465213860981166,-0.10218332200972363
1761506635159454200,5.6954541015625,-0.008598901519179344,-0.049571694029122586,-0.07457628009459004
1761506635169426000,5.705426025390625,0.04319499860405922,-0.04055909714251756,-0.03402584118256345
1761506635179397000,5.715397216796875,0.09176642954945564,-0.012667466132342814,-0.019825996117480097
1761506635189369000,5.725369140625,0.1547965939581394,0.010103095537051557,-0.007157196544576436
1761506635199341000,5.735341064453125,0.16496493675112722,0.03292261091470718,0.02771565338876098
1761506635209313300,5.745313232421875,0.1337403619259596,0.059127677077427505,0.049985444195475424
1761506635219285000,5.755284912109375,0.07948445560336112,0.09582323065958917,0.08273258894542232
1761506635229257200,5.76525732421875,0.026275427985191342,0.14086765652261674,0.13141261309813707
1761506635239229000,5.77522900390625,-0.027880525094270706,0.19896124131195245,0.13729983537266963
1761506635249201200,5.785201171875,-0.012951251509785652,0.22367336550317704,0.13221525298422201
1761506635259171800,5.795171875,0.0257458511531353,0.18052878191210328,0.11663758022729306
1761506635269144000,5.80514404296875,0.06429448525607585,0.12715513831675052,0.09497236771760507
1761506635279116000,5.815115966796875,0.0093371526658535,0.12107654905542731,0.06055307023804635
1761506635289088000,5.825087890625,-0.08273089017868042,0.14940956715755163,0.02147571781957522
1761506635299060200,5.835060302734375,-0.16134908434152603,0.17382694618590175,0.0201412726117298
1761506635309032000,5.845031982421875,-0.18688158500492572,0.1743674097381532,0.005100684139877558
1761506635319004200,5.855004150390625,-0.1699602608203888,0.14750577936284243,-0.023490345577616242
1761506635328976100,5.86497607421875,-0.11921265487968921,0.0945724999461323,-0.03708426063880324
1761506635338947000,5.874947021484375,-0.0659311465471983,0.0374323434241116,-0.06331674453141167
1761506635348919000,5.8849189453125,-0.022219430592656134,0.010546893781796097,-0.08658380274716765
1761506635358891000,5.89489111328125,0.017232289829850197,-0.0183779527336359,-0.09315008419388905
1761506635368863200,5.90486328125,0.06552373479008675,-0.04727992983013391,-0.12124174955449998
1761506635378835000,5.9148349609375,0.08937281241118908,-0.0793289727807045,-0.13611162110194563
1761506635388807200,5.92480712890625,0.1196615676909685,-0.08792743590846658,-0.14655792231978848
1761506635398779100,5.934779052734375,0.1567366221100092,-0.10245338938906788,-0.140051572633069
1761506635408751000,5.944751220703125,0.17963526713848113,-0.13226298284977675,-0.11791231287084519
1761506635418722000,5.95472216796875,0.15317045406103133,-0.12917071592286228,-0.1093107262042351
1761506635428694000,5.964694091796875,0.07527063730061054,-0.10456599762886762,-0.10643643114324658
1761506635438666000,5.974666015625,-0.011214636975526809,-0.04796279752776027,-0.08453214918067678
1761506635448638000,5.984637939453125,-0.05951368072032928,-0.0024104952078312634,-0.06515059062875807
1761506635458610200,5.994610107421875,-0.05600888746976852,-0.0043521307948976755,-0.01982521066619083
1761506635468582100,6.00458203125,-0.001972176855802536,-0.01405811677314341,0.03246040023043752
1761506635478554000,6.01455419921875,0.0448994644343853,0.0011081804376095533,0.059900341950356956
1761506635488526000,6.024526123046875,0.03680208269655704,0.002445347325503826,0.09577204846162349
1761506635498498000,6.034498046875,-0.0017214169651269913,0.0359809025067836,0.10551166271483525
1761506635508469000,6.044468994140625,-0.0682137045264244,0.08252572299540042,0.10688249441031367
1761506635518441500,6.05444140625,-0.11678513547182083,0.11734963748678565,0.08900129395136609
1761506635528413400,6.064413330078125,-0.14006021259725093,0.14113324865624308,0.07763164907721802
1761506635538385400,6.074385498046875,-0.13028934468925,0.1277044427625835,0.09288021774394437
1761506635548357400,6.084357421875,-0.09761632462143897,0.1215160364512354,0.08119430999485776
1761506635558329600,6.09432958984375,-0.06339315250217914,0.12262757788971065,0.05126722763432189
1761506635568301300,6.10430126953125,-0.026682839742302893,0.11417670653909444,0.04081181152826175
1761506635578273500,6.1142734375,0.03863046716749668,0.09794372994489967,0.010238558484986424
1761506635588244500,6.124244384765625,0.09180150086283684,0.08526135850436985,-0.008072612622752785
1761506635598216400,6.134216552734375,0.12374796022176741,0.05343545678518712,-0.0269127577743493
1761506635608188400,6.1441884765625,0.12873802359402178,0.04653407989889383,-0.039410456830356266
1761506635618160400,6.154160400390625,0.12276537892520427,0.046307431536167856,-0.03401517365807667
1761506635628132600,6.164132568359375,0.09885375746190547,0.04585793420299887,-0.03475790005046874
1761506635638104300,6.174104248046875,0.0843921013891697,0.03031776217855513,-0.04604821434440091
1761506635648076500,6.18407666015625,0.04795300678610801,0.016277619453519583,-0.06065189097002148
1761506635658048500,6.194048583984375,-0.012319383347034453,0.017382073564082383,-0.06301946035157889
1761506635668019500,6.20401953125,-0.039110359638929365,0.031124329321086403,-0.06386528179226443
1761506635677991400,6.213991455078125,-0.041541970700025556,0.024395532522723078,-0.05340895237075165
1761506635687963400,6.22396337890625,-0.04624970999956131,0.02010704154856503,-0.03725110510569066
1761506635697935600,6.233935546875,-0.03704173667132854,0.008513707453757523,-0.017233495406247676
1761506635707907300,6.2439072265625,-0.007348609197139739,0.0049809302177280185,-0.0007695413340814411
1761506635717879600,6.253879638671875,0.012165069568157195,-0.0013699731789529324,0.0014091726781800388
1761506635727851300,6.263851318359375,0.005933481702208519,-0.008451528937742113,0.0068866359748877585
1761506635737823500,6.273823486328125,-0.031125206103920933,-0.008724500660225749,0.01346005954844877
1761506635747794400,6.28379443359375,-0.04217091625332832,0.012691285399347543,0.03450765161644667
1761506635757766400,6.293766357421875,-0.047857145196199415,0.014191168568283319,0.048524997987784445
1761506635767738600,6.303738525390625,-0.026023499050736427,0.0046451223921030755,0.042025717362668365
1761506635777710300,6.31371044921875,0.009801263046264648,0.013451090790703892,0.044427517807390536
1761506635787682600,6.3236826171875,0.05426993484795093,0.01431472188271582,0.03006523045590147
1761506635797654300,6.333654296875,0.10668401269614695,-0.015307240051403641,0.04976018407223746
1761506635807626500,6.34362646484375,0.11670505597293376,-0.029687063059583303,0.05424187779724598
1761506635817598500,6.353598388671875,0.07759235824644566,-0.009955649890378117,0.0634698344675824
1761506635827569400,6.3635693359375,0.019877835902571677,0.01583718220964074,0.04469091798393056
1761506635837541600,6.373541748046875,-0.06505144110321998,0.07092201363705099,0.014256580221001057
1761506635847513300,6.383513427734375,-0.10007190108001232,0.09453991285078227,-0.01650530899586156
1761506635857485600,6.393485595703125,-0.04573065456151962,0.06488711738698184,-0.010564721699431538
1761506635867457300,6.403457275390625,0.024833412483334538,0.03605762100480497,0.0017006116391159593
1761506635877429500,6.413429443359375,0.05020400058329105,0.022154475597664713,0.02198704660888761
1761506635887401500,6.4234013671875,0.035789106261730194,0.029270883474126458,0.03213714135913178
1761506635897373400,6.43337353515625,-0.010433131209015846,0.058329731632769104,0.007730904779303819
1761506635907344600,6.4433447265625,-0.07115151154398917,0.07448840088173747,-0.022935378575976936
1761506635917316400,6.45331640625,-0.08804477867782115,0.07190415654219687,-0.05122506899302825
1761506635927288600,6.46328857421875,-0.050184711360931396,0.053212023292854425,-0.05518774381261318
1761506635937260300,6.47326025390625,0.00468903459906578,0.029950609366595743,-0.04922887194082141
1761506635947232500,6.483232421875,0.06833879221081733,0.01576338632106781,-0.04498809256590903
1761506635957204500,6.49320458984375,0.08995441169142722,0.024292364409193395,-0.04222162352725863
1761506635967176400,6.503176513671875,0.08584230019748211,0.03254391379542649,-0.057144028979539865
1761506635977148400,6.5131484375,0.03490998533964157,0.05947247192710638,-0.06400582277411594
1761506635987119400,6.523119384765625,0.013152911561727524,0.05512465198114514,-0.0682379987174645
1761506635997091600,6.533091552734375,0.027924364235997198,0.031655002131685615,-0.06759977387916297
1761506636007063300,6.543063232421875,0.03750818513929844,0.01115881513506174,-0.051537678606156254
1761506636017035500,6.553035400390625,0.04445172066688537,-0.013733122602477669,-0.0454243468250148
1761506636027007500,6.563007568359375,0.040406244668364524,0.00030986966677010056,-0.04523002982931211
1761506636036979500,6.5729794921875,0.02266483627259731,0.017180048185959456,-0.05843757592141628
1761506636046951400,6.582951416015625,-0.008099719825387,0.034236835318431254,-0.04694651489099488
1761506636056923400,6.59292333984375,-0.032329321196675295,0.024827348068729042,-0.03925975978067144
1761506636066894600,6.60289453125,-0.03329319779276848,0.01370747670456767,-0.03481777701154351
1761506636076866300,6.6128662109375,-0.049883682587742804,0.005450447425618767,-0.01307701504761353
1761506636086838500,6.622838623046875,-0.05396422989964485,0.028503698493912814,0.0020572613233700394
1761506636096810500,6.632810546875,-0.038432898768782614,0.0370299731682986,0.019447280731890348
1761506636106782500,6.642782470703125,-0.0032546178817749022,0.03315196269117295,0.02416068258723244
1761506636116754400,6.65275439453125,-0.02266191366314888,0.04285751027800142,0.012976367684733122
1761506636126726400,6.662726318359375,-0.05301029017567634,0.03769976218864322,0.005958396947756409
1761506636136698400,6.672698486328125,-0.02521510527729988,0.04521240284107625,0.0162369038506411
1761506636146669300,6.68266943359375,-0.009918167424201966,0.04745156006999313,0.030339334689546374
1761506636156641500,6.6926416015625,0.026555413970351216,0.049915612095966934,0.07045744659891352
1761506636166613500,6.702613525390625,0.07857961571812629,0.03499415649175644,0.08342495512375607
1761506636176585500,6.71258544921875,0.11344693095982074,0.03268222628757357,0.05619213508218526
1761506636186557400,6.722557373046875,0.1395873343884945,0.020342750000581142,0.03069824939612299
1761506636196529400,6.732529296875,0.11991115853786467,0.009647826050221919,0.00349500250890851
1761506636206501400,6.74250146484375,0.05557341866195201,0.012540697947517037,-0.019955796509608624
1761506636216473600,6.7524736328125,0.004219663521647453,0.025021336270868777,-0.009783197666611522
1761506636226445300,6.7624453125,-0.015127426505088805,0.04095459926612675,0.013551573756802826
1761506636236416500,6.77241650390625,-0.01331774673461914,0.042082434252277014,0.02996739610461518
1761506636246388500,6.782388427734375,-0.0016699790388345717,0.02662497207522392,0.03606445260439068
1761506636256360400,6.7923603515625,-0.021010639324784277,0.027950448525324464,0.020421806586161256
1761506636266332400,6.80233251953125,-0.05188508553802967,0.028480829074978828,-0.02199135745782405
1761506636276304400,6.812304443359375,-0.07061433592736721,0.026383929860964415,-0.06477143685175106
1761506636286276600,6.822276611328125,-0.08009761906564235,0.032039398339390755,-0.06955489000231027
1761506636296248300,6.832248291015625,-0.07555471493899822,0.043953854147344824,-0.07343607881721109
1761506636306220500,6.842220458984375,-0.04857376903295517,0.04359663820751011,-0.05030483060926199
1761506636316191500,6.85219140625,0.0009784896433353424,0.035271804389357564,-0.04007608113223687
1761506636326163500,6.86216357421875,0.03062836249768734,0.017469240390881893,-0.0353351702154614
1761506636336135400,6.872135498046875,0.052796355164051054,0.0012169745743274688,-0.05214169064760208
1761506636346107400,6.882107421875,0.0603144757091999,-0.012251140416413545,-0.06452476861430331
1761506636356079600,6.89207958984375,0.05603226834535598,0.005518544225767254,-0.08381291326172649
1761506636366051300,6.90205126953125,0.05235562565922737,0.012730813692137598,-0.07943036906225606
1761506636376023600,6.9120234375,0.08253799795508385,0.012093904028087854,-0.05535214059408754
1761506636385995300,6.921995361328125,0.1380874512195587,0.004509878639876843,-0.021800401462987062
1761506636395966500,6.931966552734375,0.15691080963313578,-0.008539645612612366,0.006652936816867441
1761506636405938400,6.9419384765625,0.11463175683021545,0.011173793508484959,0.010714176640100777
1761506636415910400,6.951910400390625,0.03753215053677559,0.04889963998645544,-0.013272080961987376
1761506636425882600,6.961882568359375,-0.05203881479501724,0.07905724316723645,-0.05180049426080659
1761506636435854300,6.971854248046875,-0.06238894389569759,0.08505933312624693,-0.06815859507201238
1761506636445826600,6.98182666015625,-0.02940612722635269,0.041915699383243916,-0.06219608820471912
1761506636455798300,6.99179833984375,0.01088905828297138,-0.003769581666588783,-0.038956886110268533
1761506636465770500,7.0017705078125,0.022775310909748075,-0.022148118922114372,0.006914747824519872
1761506636475741400,7.011741455078125,-0.00061608607172966,-0.006177957982569933,0.0503160643893294
1761506636485713400,7.02171337890625,-0.044299160453677176,0.020264424067363142,0.05416232802132144
1761506636495685600,7.031685546875,-0.06866495542526245,0.01800027852766216,0.05338334300545975
1761506636505657300,7.0416572265625,-0.08935235414505005,0.0038061142846941946,0.017685659620538353
1761506636515629000,7.051629150390625,-0.09999182158112525,-0.0016092618275433779,-0.007461367122922093
1761506636525601000,7.06160107421875,-0.0851800368964672,-0.017715689432621,0.004841375616565347
1761506636535573000,7.071572998046875,-0.06629647272825241,-0.00803849115744233,0.035955822864454236
1761506636545545200,7.081545166015625,-0.05102291575074196,-0.012267141703143716,0.04763979438478127
1761506636555516000,7.091515869140625,-0.03152677264213562,-0.007842530193924904,0.05684952127868309
1761506636565488000,7.101488037109375,-0.020658757147192952,0.008426175300776958,0.03867525615729391
1761506636575459800,7.1114599609375,0.02422024902105331,0.006317877909913659,0.0419780422960408
1761506636585432000,7.12143212890625,0.06586217296421527,-0.0021458529222756623,0.058460171345714476
1761506636595404000,7.131404052734375,0.07855974197387695,0.008885609506070613,0.07342265308005735
1761506636605376000,7.1413759765625,0.07541735229492187,0.018577128567546605,0.08608414612933993
1761506636615348200,7.15134814453125,0.04786883563399315,0.04541771615482867,0.07704303553430362
1761506636625320000,7.16131982421875,0.02597147660255432,0.08489274438768625,0.060441846682224416
1761506636635291100,7.171291015625,0.020175942066311837,0.08416574528738856,0.049640064823906864
1761506636645262800,7.181262939453125,0.04683656997680664,0.06857172418385744,0.0409465072912164
1761506636655235000,7.191235107421875,0.06661854428946971,0.05071553030200302,0.03743444404965266
1761506636665207000,7.20120703125,0.07973930714726447,0.040477410208433866,0.03260726135522127
1761506636675179000,7.211178955078125,0.05642682062089443,0.05320084431171417,0.022009441103786227
1761506636685151000,7.22115087890625,0.011316928306221961,0.07623181048296392,-0.005436035307776183
1761506636695123000,7.231123046875,-0.03750876966118812,0.08375840659551322,-0.036552857175841925
1761506636705095200,7.24109521484375,-0.0468383235424757,0.0848553349867463,-0.06282501549171284
1761506636715067100,7.251067138671875,-0.03242868991792202,0.06847403596304356,-0.05628553985352627
1761506636725038000,7.2610380859375,-0.025253099200129508,0.0536810290440917,-0.037305748769221825
1761506636735010000,7.271010009765625,-0.016356091517210007,0.051439022270962594,-0.037891257039597254
1761506636744982000,7.28098193359375,-0.006762333741784096,0.043765565033629536,-0.03895549787078052
1761506636754954000,7.2909541015625,0.02839139722585678,0.025545871601626274,-0.029431754857953636
1761506636764926000,7.300926025390625,0.0685755235761404,-0.0036911826681345697,-0.027808501037675886
1761506636774898200,7.310898193359375,0.08475742757022381,-0.02130019685588777,-0.034947687001526354
1761506636784870100,7.3208701171875,0.07979308316111564,-0.023750877943634986,-0.027038356915395707
1761506636794842000,7.330842041015625,0.06727145524024963,-0.015116247523948549,-0.011702292628306896
1761506636804813000,7.34081298828125,0.03818272339999675,-0.023563465612754225,-0.010530298840021714
1761506636814785000,7.350784912109375,0.01402443369925022,-0.02961735882423818,0.004718817815976217
1761506636824757000,7.360757080078125,-0.020541852769255638,-0.014347601239010691,0.01978998408918269
1761506636834729000,7.37072900390625,-0.05202829340100288,-0.012968641036003828,0.02554598119948059
1761506636844701000,7.380700927734375,-0.07551262936294079,0.003471183241903782,0.01531460137395188
1761506636854673200,7.390673095703125,-0.07524959451258183,0.014037366246059536,0.00987175273289904
1761506636864645000,7.40064501953125,-0.07528583486974239,0.005795242275297641,0.0009840060686692595
1761506636874617000,7.4106171875,-0.08101181130111217,0.0067798693984746925,-0.005550820793863385
1761506636884588000,7.420588134765625,-0.074941551476717,0.02270648345723748,-0.0021160331727471202
1761506636894560000,7.43056005859375,-0.04716156414747238,0.010648016068711876,-0.020397923387074843
1761506636904532000,7.440531982421875,-0.0225344878911972,0.006735445734858512,-0.029666184668336062
1761506636914504000,7.45050390625,-0.020513795718550682,0.007105301960557699,-0.03751984817762859
1761506636924476200,7.46047607421875,-0.04487549903690815,0.015086363842338323,-0.0657649322679732
1761506636934448000,7.4704482421875,-0.04282382720410824,0.03251739111468196,-0.09316342773265204
1761506636944420000,7.480420166015625,-0.017754267877340316,0.028453356546163558,-0.09815026710135862
1761506636954392000,7.49039208984375,0.036495793226361276,-0.006933452524989843,-0.06411812404217199
1761506636964363000,7.500363037109375,0.1044464629024267,-0.025939766290038822,-0.027818300912482663
1761506636974335000,7.5103349609375,0.11772913832366466,-0.01263422144986689,-0.005330967498105019
1761506636984307000,7.520306884765625,0.09531506194174288,0.023841186575591564,-0.0011939498917665332
1761506636994279200,7.530279052734375,0.10029109678864478,0.04910882575772702,-0.02713796309866011
1761506637004251000,7.5402509765625,0.15988836413919924,0.027132556271180507,-0.024186967805959282
1761506637014223000,7.55022314453125,0.20740999377071856,-0.010862900928407906,-0.014935675925808026
1761506637024195000,7.560195068359375,0.1833493192255497,-0.015605127019435167,0.005510826710192486
1761506637034167000,7.5701669921875,0.09876315656900406,0.012289207404479384,0.02105824132617563
1761506637044139300,7.58013916015625,0.010362404060363768,0.051006183811649675,0.048038219117838885
1761506637054110000,7.59010986328125,-0.06109598147571087,0.08388407880179584,0.06277962371371686
1761506637064082200,7.600082275390625,-0.09577391162514685,0.10014277435913681,0.05396068623568862
1761506637074054000,7.610053955078125,-0.082513448035717,0.08093363149836659,0.0651877534345258
1761506637084026000,7.620026123046875,-0.05155073901712894,0.07329071552976965,0.07691717153177596
1761506637093998000,7.629998046875,-0.019450550401210784,0.04907872288040817,0.08594304802506231
1761506637103970000,7.639969970703125,-0.04846738604903221,0.05764284534715116,0.11065692578195593
1761506637113942300,7.6499423828125,-0.1124164188683033,0.08792648606039583,0.10440292515479958
1761506637123913000,7.659912841796875,-0.1363444069445133,0.1026040499061346,0.09258624889920465
1761506637133885200,7.66988525390625,-0.10002864646017551,0.09144465024918318,0.08102133718128315
1761506637143857000,7.67985693359375,-0.03262450475096702,0.07975793878249823,0.0880425410549622
1761506637153829000,7.6898291015625,0.039435938331484795,0.054382893703132866,0.09612983979019336
1761506637163800800,7.69980078125,0.09155191001594067,0.02284757242836058,0.10496064123595132
1761506637173773000,7.70977294921875,0.07221943303644657,0.0068175710603594775,0.08591843417361378
1761506637183745000,7.7197451171875,-0.012667758393287657,0.03118511959761381,0.05188681170423515
1761506637193717000,7.729717041015625,-0.07323124042749404,0.057585123810544606,0.017867281531449408
1761506637203689200,7.739689208984375,-0.0981640216320753,0.06728957541882992,0.00776075192829594
1761506637213660000,7.749659912109375,-0.051072015589475626,0.033997985061258076,0.014401240255543962
1761506637223632100,7.759632080078125,0.012922609937191009,-0.016882307348400353,0.010841666344134136
1761506637233603800,7.769603759765625,0.059008653807640074,-0.03358998878225684,-0.022124454918736592
1761506637243576000,7.779576171875,0.06853285347819328,-0.0387939871661365,-0.05900816061729565
1761506637253548000,7.789548095703125,0.046773441612720484,-0.021039719288796187,-0.1005007757502608
1761506637263520000,7.79952001953125,0.006120528706908226,-0.013231237494945525,-0.12714130158764309
1761506637273492200,7.8094921875,-0.035435470518469805,0.007493789821490645,-0.15050786552196369
1761506637283464000,7.8194638671875,-0.06861234845519065,0.017214315781742335,-0.14552836007634176
1761506637293435100,7.82943505859375,-0.07377075413167476,0.01771722380258143,-0.13729641043972224
1761506637303406800,7.83940673828125,-0.08127133902013302,0.018093363638594744,-0.13245620386693627
1761506637313379000,7.849379150390625,-0.04894903208613395,0.013859963852539658,-0.12180046114949508
1761506637323351000,7.85935107421875,-0.0012567220628261564,0.0065060939583927386,-0.12721443988909012
1761506637333323000,7.869322998046875,0.0771674108326435,0.013304302731156348,-0.12576064261789432
1761506637343295000,7.879294921875,0.13040800263285637,0.0051389703236520284,-0.11353998867128975
1761506637353267000,7.889266845703125,0.14266367309391498,0.004557736369594932,-0.10756342587918043
1761506637363239200,7.8992392578125,0.10623860701620579,0.013451017725467682,-0.08942699941699393
1761506637373209900,7.9092099609375,0.06976619466543198,0.03650244216285646,-0.0628091968680732
1761506637383182000,7.91918212890625,0.022203648501634598,0.05989844225421548,-0.04827723377179354
1761506637393154000,7.929154052734375,0.004808277064561843,0.0664368310470134,-0.026161884608119725
1761506637403126000,7.9391259765625,0.014015665870904921,0.07485533449798822,0.027778781752847134
1761506637413098000,7.949097900390625,0.048935588082671164,0.11957783493027091,0.06604736593854613
1761506637423070000,7.959070068359375,0.06349778192043304,0.09480696628913282,0.0937184495332185
1761506637433042200,7.969042236328125,0.058631637188792225,0.09186689424924552,0.07404891348592936
1761506637443014100,7.97901416015625,0.049448213779926295,0.08925386220663785,0.03522722546211444
1761506637452985000,7.988985107421875,0.010237900897860527,0.08247457733005285,0.01844391237562522
1761506637462956000,7.9989560546875,-0.04573123908340931,0.09497596618048847,-0.005323359580384567
1761506637472928000,8.008927978515626,-0.10888356856703757,0.0935436683550477,0.00230134487808682
1761506637482900200,8.018900146484375,-0.12973697150349617,0.09130392660424112,0.013080659176269546
1761506637492872000,8.028871826171875,-0.12435820107460022,0.07106514843478798,0.012554397679306566
1761506637502844200,8.03884423828125,-0.08466916476488114,0.0422328755736351,0.016699187600146978
1761506637512815900,8.04881591796875,0.009459317740797996,0.0068305036071687935,0.035998401630856096
1761506637522788600,8.05878857421875,0.09359189141094684,-0.019540055315569044,0.055246999719180165
1761506637532760600,8.068760498046874,0.15058978991806507,-0.03959098276272416,0.07017158799539319
1761506637542731500,8.0787314453125,0.15504793837070463,-0.028668022210150957,0.061526664510555565
1761506637552703700,8.088703857421875,0.09567045125067233,0.006253945828229189,0.014515596483368426
1761506637562675500,8.098675537109376,0.0349216757774353,0.015708295132964848,-0.01710747614009306
1761506637572647700,8.108647705078125,0.0390653514534235,-0.0012901128757745028,-0.0017422314242925493
1761506637582619600,8.11861962890625,0.0845049141138792,-0.03333966728299856,0.023939523250376803
1761506637592591600,8.128591552734376,0.11577157451510428,-0.05866422428414225,0.08002732117525302
1761506637602563600,8.1385634765625,0.09192658854722977,-0.052327130217105146,0.10055277993213385
1761506637612535600,8.14853564453125,0.025821254476904868,-0.022276640672609208,0.08074663015943952
1761506637622506500,8.158506591796876,-0.05851297924518585,-0.0006214198339730501,0.026399684552522375
1761506637632478500,8.168478515625,-0.12104396196007727,0.012532003184407949,-0.017031479161279273
1761506637642450700,8.17845068359375,-0.1548053617864847,0.01881115651912987,-0.0352558761678636
1761506637652422700,8.188422607421876,-0.17506196787357328,0.014836042343080042,-0.01632658229493536
1761506637662394600,8.19839453125,-0.16521277403235435,0.01769698473215103,0.02123245624876581
1761506637672366600,8.20836669921875,-0.1767255171716213,0.03748319682851434,0.009063057565363124
1761506637682338600,8.218338623046876,-0.19185937341749668,0.05018098503388464,-0.024971880239108575
1761506637692310500,8.228310546875,-0.14232055874466895,0.04342332746721804,-0.06018168877554126
1761506637702281500,8.238281494140624,-0.06362345412671566,0.029271321865543723,-0.08552766302404925
1761506637712253700,8.248253662109375,0.02907937949001789,-0.0005017389770597219,-0.08915155260963364
1761506637722225700,8.2582255859375,0.11599544639885424,-0.011823343458399176,-0.062164231761731206
1761506637732197600,8.26819775390625,0.13322422909736634,-0.001156549623981118,-0.03233976952545345
1761506637742169600,8.278169677734375,0.09505962587594985,0.031037016363814472,0.009416784640168771
1761506637752141600,8.2881416015625,0.07330898183882235,0.05483524058051407,0.03410812177169136
1761506637762113500,8.298113525390624,0.059687283721566196,0.07740845304690301,0.032076150153204794
1761506637772085800,8.308085693359375,0.09829203192591666,0.06378821623437106,0.053106243097130204
1761506637782056400,8.318056396484375,0.1678080512225628,0.028984979204833505,0.09520834103110246
1761506637792028700,8.328028564453126,0.23203239385187624,0.011859876076504587,0.12238171336986124
1761506637802000600,8.338000732421875,0.271790988266468,0.0010284662649035453,0.13192799700805916
1761506637811972600,8.34797265625,0.2375496959686279,0.02781995401345193,0.12735813180925323
1761506637821944600,8.357944580078126,0.13260580493807791,0.06806501677073538,0.08260093452292494
1761506637831916500,8.36791650390625,-0.002234627184271812,0.09487754730731249,0.05008309588367119
1761506637841889500,8.3778896484375,-0.12987784127891064,0.12043014091067016,0.052006492561148476
1761506637851861500,8.387861572265624,-0.18396540529727934,0.1130112429562956,0.0710548279701732
1761506637861833500,8.39783349609375,-0.18649638507962227,0.09933423445522785,0.08364297265545464
1761506637871805700,8.4078056640625,-0.14456804541051388,0.07521364641636609,0.07456790499188937
1761506637881777400,8.41777734375,-0.11640052006840705,0.05977671557068824,0.03689779815599322
1761506637891749600,8.42774951171875,-0.04627542896270752,0.05301693911217153,0.006363443217845633
1761506637901720600,8.437720458984375,-0.006886836904287338,0.03380436218529939,-0.002119531170930713
1761506637911692500,8.447692626953126,-0.003068155398964882,0.018623159666359423,-0.022740330927912146
1761506637921664500,8.45766455078125,-0.03536941954493522,0.03690495854914188,-0.04042067505251616
1761506637931636500,8.467636474609375,-0.11311550704836845,0.06261120834425091,-0.053034529567789285
1761506637941608700,8.477608642578126,-0.18792437205612658,0.07884038554616273,-0.06539494817811065
1761506637951580400,8.487580322265625,-0.18077216221392153,0.0864909733645618,-0.0821858326497022
1761506637961552600,8.497552734375,-0.15489362459182737,0.07933934804424643,-0.1207303568331059
1761506637971524400,8.5075244140625,-0.11786065574884413,0.06390979678742587,-0.16750819149315357
1761506637981495600,8.51749560546875,-0.05387012187540531,0.05078969151675701,-0.2135190147029236
1761506637991467500,8.527467529296874,0.0031570027261972424,0.04758782673552632,-0.2619339764449745
1761506638001439500,8.537439453125,0.02181318787932396,0.05272314379736781,-0.2842358794230036
1761506638011411700,8.54741162109375,0.024087562552094457,0.07466134629584849,-0.28953751122877003
1761506638021383400,8.557383544921874,0.04386544521152973,0.08213153604604304,-0.27621154465507713
1761506638031355600,8.567355712890626,0.0733984136879444,0.05915237312726676,-0.2605296626050025
1761506638041327400,8.577327392578125,0.09651625442504883,0.04660933709219098,-0.2645978253593668
1761506638051299600,8.587299560546874,0.08489829734563827,0.0388959131706506,-0.2714484219064936
1761506638061271600,8.597271484375,0.07616378674805165,0.028249358406662938,-0.29809593460708855
1761506638071242500,8.607242431640625,0.06451075835525989,0.014092384368926287,-0.32116094917841254
1761506638081214700,8.617214599609374,0.06802724204361438,-0.007833835430815816,-0.3200893744241446
1761506638091186400,8.6271865234375,0.08149462638199328,-0.009355638170614838,-0.2788015611482784
1761506638101158700,8.63715869140625,0.09470540561079978,-0.03503010458797216,-0.22591170074818653
1761506638111130400,8.64713037109375,0.14821896913349628,-0.06876059781946242,-0.16109196777530013
1761506638121102600,8.6571025390625,0.19277882634997368,-0.08459661098532378,-0.09499354750295169
1761506638131074600,8.667074462890625,0.21824235343039033,-0.10338745536878705,-0.02344036895604804
1761506638141046500,8.677046630859374,0.2700719093888998,-0.13101554007194935,0.04979089887090958
1761506638151017700,8.687017822265625,0.25568214950859547,-0.11752243677042425,0.11138228091443889
1761506638160989400,8.696989501953125,0.1966372553437948,-0.08279241110756992,0.17990151685923336
1761506638170961700,8.706961669921874,0.08715455183982848,-0.03775755679048597,0.21427343153310938
1761506638180933400,8.716933349609375,-0.04919803841114044,-0.0013294950380921362,0.21332502650078386
1761506638190905600,8.726905517578125,-0.191321613278985,0.03975895974077284,0.2002521944379434
1761506638200877600,8.736877685546874,-0.31029870583713054,0.062295420393347734,0.21675569506920872
1761506638210849500,8.746849609375,-0.3683586806178093,0.07914112205840647,0.2678488813108764
1761506638220821500,8.756821533203125,-0.3737380355685949,0.0886614492714405,0.3116441656293347
1761506638230792400,8.76679248046875,-0.32969489570260047,0.09067059713676572,0.3507482781905681
1761506638240764700,8.7767646484375,-0.2387351063609123,0.06934453518725932,0.3679030092721805
1761506638250736400,8.786736328125,-0.15868950974345206,0.038029797860607506,0.3418766241446137
1761506638260708600,8.79670849609375,-0.07480828048586845,0.0011027736101299525,0.2947856044827029
1761506638270680600,8.8066806640625,-0.002270283019542694,-0.022151991379633546,0.2454272244106978
1761506638280652500,8.816652587890625,0.05705927330553531,-0.03102181879468262,0.21171866901637984
1761506638290624500,8.82662451171875,0.06785480808615683,-0.03226020148321986,0.19834570322949438
1761506638300596500,8.836596435546875,0.0762047032803297,-0.025858810008317232,0.2030413319661282
1761506638310568400,8.846568359375,0.09832359610795974,-0.019481456996127963,0.22109682954605667
1761506638320539400,8.856539306640625,0.11623919202685355,-0.029960838499665257,0.19961959562283008
1761506638330511600,8.86651171875,0.17060206585526466,-0.04092603075876832,0.18971194959264248
1761506638340483600,8.876483642578124,0.2058364608436823,-0.057826458285748956,0.17985787864690644
1761506638350455600,8.88645556640625,0.23891163197159765,-0.07276493808999657,0.15563585779387504
1761506638360427500,8.896427490234375,0.2128928090959787,-0.062352995799481864,0.12014249220886267
1761506638370399500,8.9063994140625,0.1430634860664606,-0.035620106370374556,0.09053309749537147
1761506638380371500,8.916371337890626,0.027421675410866736,0.017590382552519438,0.046297951321769504
1761506638390343700,8.92634375,-0.08328267884254455,0.05991495499759912,0.020052955007459967
1761506638400314600,8.936314697265624,-0.14049860401451586,0.060042746095731854,0.003368462652945891
1761506638410286600,8.94628662109375,-0.17635493029356003,0.058706090664491055,-0.0189917646498885
1761506638420258600,8.956258544921875,-0.19893910254538058,0.07389606101177633,-0.043248500623274594
1761506638430230500,8.96623046875,-0.17186697122454642,0.0689388039305806,-0.040893288399791346
1761506638440202500,8.976202392578125,-0.14082359818518161,0.09207381499819457,-0.04242414209572598
1761506638450174500,8.986174560546875,-0.07735504235923289,0.11125307417735457,-0.05720276429629884
1761506638460146700,8.996146728515624,-0.007829670712351798,0.08794146443381905,-0.07455296315108426
1761506638470118400,9.006118408203125,-0.0005950432837009429,0.10953289932124316,-0.0821844078775961
1761506638480089600,9.016089599609375,-0.046959904095530504,0.18712028913162648,-0.05197664541215635
1761506638490061600,9.0260615234375,0.31623218753933907,0.2583100137941539,-0.07719325765995308
1761506638500033500,9.036033447265625,0.615998393446207,0.13620645977854728,-0.09550196281597018
1761506638510005500,9.046005615234375,0.6578682809263467,-0.12104060095921158,-0.01023380924463272
1761506638519977200,9.055977294921876,0.5253495697498322,-0.07374817697368562,-0.04838932497729547
1761506638529949200,9.06594921875,0.19515315426588056,0.06216901753470301,-0.19232085344940422
1761506638539921400,9.07592138671875,-0.14621522809565066,0.006508358980715274,-0.335023616444692
