time,seconds_elapsed,z,y,x
1761506629555259100,0.091259033203125,-0.02903195470571518,-0.02451721578836441,0.004583918489515781
1761506629565231000,0.101231201171875,-0.028855741024017334,-0.02559390850365162,-0.004677882418036461
1761506629575203000,0.111203125,-0.027307648211717606,-0.01579640433192253,-0.010026042349636555
1761506629585175300,0.12117529296875,-0.028140613809227943,0.0010561415692791343,-0.004418893717229366
1761506629595147000,0.13114697265625,-0.03466029465198517,0.011664310470223427,0.012259152717888355
1761506629605119200,0.141119140625,-0.043403998017311096,-0.0008850059239193797,0.020392462611198425
1761506629615090200,0.151090087890625,-0.05767561122775078,-0.03035900928080082,0.02048114687204361
1761506629625062100,0.161062255859375,-0.06419909000396729,-0.04674539715051651,0.015167651697993279
1761506629635034000,0.1710341796875,-0.06522627174854279,-0.04486600309610367,-0.002779390662908554
1761506629645006000,0.181006103515625,-0.06322959810495377,-0.026524148881435394,-0.019919391721487045
1761506629654978300,0.190978271484375,-0.06537743657827377,-0.0032372025307267904,-0.0298662967979908
1761506629664950000,0.200949951171875,-0.07131154835224152,0.012489097192883492,-0.034010760486125946
1761506629674922200,0.210922119140625,-0.0780823677778244,0.016295820474624634,-0.028538497164845467
1761506629684894200,0.220894287109375,-0.08292288333177567,0.011959834024310112,-0.015357032418251038
1761506629694866200,0.2308662109375,-0.08144589513540268,0.002986046951264143,0.0010341913439333439
1761506629704837000,0.240837158203125,-0.07687173038721085,-0.005432552192360163,0.012701201252639294
1761506629714809000,0.25080908203125,-0.07124101370573044,-0.005402991082519293,0.021464066579937935
1761506629724781300,0.26078125,-0.06625936925411224,-0.0029011722654104233,0.02653210610151291
1761506629734753000,0.2707529296875,-0.06384202092885971,0.0016232721973210573,0.019576461985707283
1761506629744725200,0.280725341796875,-0.06343685835599899,0.009671981446444988,0.010000469163060188
1761506629754697000,0.290697021484375,-0.060640543699264526,0.01802072487771511,0.0013433315325528383
1761506629764669200,0.300669189453125,-0.060330674052238464,0.017649492248892784,-0.009112154133617878
1761506629774641200,0.31064111328125,-0.05055074393749237,0.0092589370906353,-0.01932910457253456
1761506629784612000,0.320612060546875,-0.04048527404665947,0.0037059118039906025,-0.02514433115720749
1761506629794584300,0.330584228515625,-0.028733544051647186,0.00012635719031095505,-0.013661312870681286
1761506629804556000,0.34055615234375,-0.02088422328233719,0.0006240214570425451,0.0009620721684768796
1761506629814528300,0.3505283203125,-0.01927194558084011,-0.0006303272675722837,0.015951408073306084
1761506629824500000,0.3605,-0.016269680112600327,-0.0017517040250822902,0.027836861088871956
1761506629834472200,0.37047216796875,-0.011313538067042828,0.0003250290174037218,0.0324406661093235
1761506629844444200,0.380444091796875,-0.010246634483337402,0.0005398528883233666,0.0276308823376894
1761506629854416100,0.390416015625,-0.005080368369817734,-0.0009786814916878939,0.015212828293442726
1761506629864387300,0.40038720703125,-0.0024391384795308113,-0.0007929923012852669,0.006521227769553661
1761506629874359000,0.410359130859375,-0.003561127930879593,0.004659563302993774,-0.002697836607694626
1761506629884331300,0.420331298828125,-0.0018793586641550064,0.005493904463946819,-0.0007437790045514703
1761506629894303000,0.430302978515625,-0.0010697580873966217,0.01696174219250679,-0.00004070450086146593
1761506629904275200,0.440275146484375,-0.00039303209632635117,0.025439677760004997,0.009750311262905598
1761506629914247200,0.4502470703125,-0.00045694783329963684,0.03489549830555916,0.00946428719907999
1761506629924219100,0.46021923828125,0.004122226499021053,0.04285312816500664,0.01254235953092575
1761506629934191000,0.470191162109375,0.03072747215628624,0.06761147081851959,0.0028575086034834385
1761506629944163000,0.4801630859375,0.045665983110666275,0.04779160022735596,-0.000613772717770189
1761506629954134300,0.49013427734375,0.02566617541015148,0.042299363762140274,0.011107598431408405
1761506629964106000,0.50010595703125,0.015851181000471115,0.03273656591773033,0.02351955883204937
1761506629974078200,0.510078125,0.015675146132707596,0.026335924863815308,0.023082533851265907
1761506629984050200,0.52005029296875,0.01738593354821205,0.019866691902279854,0.013627533800899982
1761506629994022100,0.530022216796875,0.030509192496538162,0.0197130274027586,-0.0045301648788154125
1761506630003994000,0.539994140625,0.03913089260458946,0.014033544808626175,-0.01721550151705742
1761506630013966000,0.549966064453125,0.046131812036037445,0.008141301572322845,-0.0225285105407238
1761506630023938300,0.559938232421875,0.04718836024403572,0.0036514359526336193,-0.02089417167007923
1761506630033909000,0.569908935546875,0.04969679191708565,-0.0007068269187584519,-0.016766272485256195
1761506630043881200,0.579881103515625,0.051864445209503174,-0.0031400895677506924,-0.011247750371694565
1761506630053853200,0.589853271484375,0.0549105703830719,-0.005546788219362497,-0.007297218311578035
1761506630063825200,0.5998251953125,0.053910065442323685,-0.0015522458124905825,0.002527692122384906
1761506630073797000,0.609797119140625,0.05171375721693039,0.0035876550246030092,0.01616121269762516
1761506630083769000,0.61976904296875,0.0514594130218029,0.010197499766945839,0.02608034573495388
1761506630093741000,0.629740966796875,0.05269378796219826,0.009697359055280685,0.03311562165617943
1761506630103713300,0.63971337890625,0.05674470588564873,0.003946500830352306,0.041571784764528275
1761506630113685200,0.649685302734375,0.055774517357349396,0.002045270288363099,0.04742434620857239
1761506630123656200,0.65965625,0.059659551829099655,0.004558788612484932,0.05277880281209946
1761506630133628200,0.669628173828125,0.05247700586915016,0.00754126301035285,0.06043006479740143
1761506630143600000,0.67960009765625,0.03993582725524902,0.02457512356340885,0.06219987943768501
1761506630153572000,0.689572021484375,0.029338309541344643,0.04006912559270859,0.06400948762893677
1761506630163544000,0.6995439453125,0.026581980288028717,0.0491940900683403,0.05497007444500923
1761506630173516300,0.709516357421875,0.0252195056527853,0.049574658274650574,0.0418848991394043
1761506630183488300,0.71948828125,0.026628000661730766,0.05411584675312042,0.03200461342930794
1761506630193460200,0.729460205078125,0.027575552463531494,0.04777752235531807,0.025783201679587364
1761506630203431200,0.73943115234375,0.0224296934902668,0.035032059997320175,0.016993237659335136
1761506630213403100,0.749403076171875,0.017991269007325172,0.011960298754274845,0.00646735867485404
1761506630223375000,0.759375,0.019554346799850464,-0.0004893901059404016,-0.005974268540740013
1761506630233347000,0.76934716796875,0.018547406420111656,-0.008112422190606594,-0.022309565916657448
1761506630243319300,0.7793193359375,0.025046449154615402,-0.004086364526301622,-0.02770938351750374
1761506630253291000,0.789291015625,0.028912026435136795,0.008231554180383682,-0.025537308305501938
1761506630263263200,0.79926318359375,0.03125109151005745,0.00972757302224636,-0.017978649586439133
1761506630273235200,0.809235107421875,0.029946675524115562,-0.004610087256878614,-0.017865996807813644
1761506630283206100,0.8192060546875,0.02641044557094574,-0.0193539597094059,-0.01738745905458927
1761506630293178000,0.82917822265625,0.025946257635951042,-0.02472049556672573,-0.01600181683897972
1761506630303150000,0.839150146484375,0.032383184880018234,-0.017305666580796242,-0.017688000574707985
1761506630313122300,0.849122314453125,0.04330054670572281,-0.000563704059459269,-0.011531570926308632
1761506630323094000,0.859093994140625,0.04954123497009277,0.019345127046108246,-0.0016747438348829746
1761506630333066200,0.869066162109375,0.05246485024690628,0.03050909750163555,0.012912986800074577
1761506630343038200,0.8790380859375,0.049090877175331116,0.02700968272984028,0.026929035782814026
1761506630353010200,0.88901025390625,0.044214896857738495,0.014968464151024818,0.037761710584163666
1761506630362982400,0.898982421875,0.040578097105026245,0.0025094219017773867,0.04055366665124893
1761506630372953000,0.908953125,0.03578227758407593,-0.0047072116285562515,0.03133327141404152
1761506630382925300,0.91892529296875,0.03177080675959587,-0.010765559040009975,0.01461179368197918
1761506630392897000,0.92889697265625,0.027650095522403717,-0.010622280649840832,-0.018368259072303772
1761506630402869200,0.938869140625,0.02766849286854267,0.00026230444200336933,-0.04311393201351166
1761506630412841000,0.948841064453125,0.023761902004480362,0.021811537444591522,-0.05502944812178612
1761506630422813200,0.958813232421875,0.024665582925081253,0.03498028963804245,-0.05983516573905945
1761506630432785200,0.96878515625,0.02693220227956772,0.04166002944111824,-0.05328778550028801
1761506630442757000,0.978757080078125,0.033794913440942764,0.03231379762291908,-0.0387849323451519
1761506630452728300,0.988728271484375,0.0397753082215786,0.01523121539503336,-0.027376750484108925
1761506630462700000,0.998699951171875,0.04365766420960426,-0.003677064087241888,-0.016682466492056847
1761506630472672300,1.00867236328125,0.04843537509441376,-0.01777876727283001,-0.0030833017081022263
1761506630482644000,1.01864404296875,0.057699210941791534,-0.027599025517702103,0.002696802606806159
1761506630492616200,1.0286162109375,0.06796009838581085,-0.04594874009490013,0.007067050784826279
1761506630502588200,1.038588134765625,0.07350455224514008,-0.06023913249373436,0.012759633362293243
1761506630512559900,1.048559814453125,0.08069828152656555,-0.0786849856376648,0.01929449662566185
1761506630522532000,1.058531982421875,0.0796116515994072,-0.09848668426275253,0.0324188657104969
1761506630532503800,1.06850390625,0.0870746299624443,-0.13027258217334747,0.050486013293266296
1761506630542475000,1.07847509765625,0.09018274396657944,-0.14487500488758087,0.07457578182220459
1761506630552446700,1.08844677734375,0.08555497229099274,-0.1541004627943039,0.09440328180789948
1761506630562419000,1.0984189453125,0.07922201603651047,-0.1533602923154831,0.10861946642398834
1761506630572391000,1.108390869140625,0.07410582154989243,-0.14589865505695343,0.12035788595676422
1761506630582363000,1.11836279296875,0.0603838749229908,-0.12998351454734802,0.12260230630636215
1761506630592335000,1.128335205078125,0.045193202793598175,-0.10602305084466934,0.11988402158021927
1761506630602306800,1.138306884765625,0.03039446286857128,-0.07558735460042953,0.11714350432157516
1761506630612279000,1.148279052734375,0.008380773477256298,-0.05133821442723274,0.10762643069028854
1761506630622249700,1.158249755859375,-0.015505954623222351,-0.02569437399506569,0.09560592472553253
1761506630632222000,1.168221923828125,-0.029013773426413536,0.0009564103675074875,0.08602280914783478
1761506630642194000,1.17819384765625,-0.04482485353946686,0.017988884821534157,0.06956608593463898
1761506630652166000,1.188165771484375,-0.06166961044073105,0.03149563819169998,0.047944940626621246
1761506630662138000,1.19813818359375,-0.07499020546674728,0.02740449085831642,0.021089892834424973
1761506630672109800,1.20810986328125,-0.0859171599149704,0.023206017911434174,-0.0042442260310053825
1761506630682082000,1.21808203125,-0.09680723398923874,0.019104735925793648,-0.024062756448984146
1761506630692054000,1.228053955078125,-0.10227683186531067,0.014444204047322273,-0.03438623249530792
1761506630702025000,1.23802490234375,-0.10964686423540115,0.014528267085552216,-0.034829024225473404
1761506630711997000,1.247996826171875,-0.1104106530547142,0.02146899700164795,-0.03171472251415253
1761506630721969000,1.257968994140625,-0.10661958903074265,0.026685889810323715,-0.03720593452453613
1761506630731940900,1.26794091796875,-0.1072520911693573,0.030526168644428253,-0.04927431792020798
1761506630741912800,1.277912841796875,-0.0985385850071907,0.031115710735321045,-0.06309935450553894
1761506630751885000,1.287885009765625,-0.08905027061700821,0.03619569167494774,-0.07982693612575531
1761506630761857000,1.29785693359375,-0.08653388917446136,0.04673604294657707,-0.08782535046339035
1761506630771829000,1.3078291015625,-0.08361772447824478,0.05907047167420387,-0.09668569266796112
1761506630781801000,1.317801025390625,-0.07898619025945663,0.07328670471906662,-0.1098022311925888
1761506630791772000,1.32777197265625,-0.07763170450925827,0.10052764415740967,-0.10854921489953995
1761506630801744000,1.337743896484375,-0.0642843246459961,0.1240086480975151,-0.09135326743125916
1761506630811715800,1.3477158203125,-0.05384740233421326,0.13862115144729614,-0.07262752950191498
1761506630821688000,1.35768798828125,-0.04534747451543808,0.13621677458286285,-0.056842200458049774
1761506630831660000,1.367659912109375,-0.033576034009456635,0.12773646414279938,-0.037650395184755325
1761506630841632000,1.377632080078125,-0.0214947909116745,0.11454493552446365,-0.017523884773254395
1761506630851604000,1.38760400390625,-0.005893461871892214,0.09315416216850281,0.0004463264485821128
1761506630861576000,1.397575927734375,0.012434992007911205,0.06832638382911682,0.017415432259440422
1761506630871547000,1.407546875,0.02699955366551876,0.04100155085325241,0.03205243498086929
1761506630881518800,1.417518798828125,0.036206405609846115,0.02681623212993145,0.037360433489084244
1761506630891490800,1.42749072265625,0.04640071839094162,0.01784404180943966,0.04868978634476662
1761506630901463000,1.437463134765625,0.05118158832192421,0.005776452366262674,0.0542948879301548
1761506630911435000,1.44743505859375,0.052301179617643356,-0.0009765252470970154,0.0569564513862133
1761506630921407000,1.457406982421875,0.05565882846713066,-0.0025856592692434788,0.055331528186798096
1761506630931379000,1.46737890625,0.05517732724547386,-0.0026860604993999004,0.04508368298411369
1761506630941351000,1.477350830078125,0.05063064768910408,-0.005755246616899967,0.02530597522854805
1761506630951321900,1.48732177734375,0.04255008324980736,-0.007476714439690113,0.004718407988548279
1761506630961293800,1.4972939453125,0.03515876457095146,0.000214520376175642,-0.006234204396605492
1761506630971266000,1.50726611328125,0.03009396232664585,0.008920660242438316,-0.0096292020753026
1761506630981238000,1.517238037109375,0.023830443620681763,0.016322335228323936,-0.004779658745974302
1761506630991210000,1.5272099609375,0.019744088873267174,0.02091415598988533,0.003074269276112318
1761506631001182000,1.537181884765625,0.013376194052398205,0.014337888918817043,0.007715816143900156
1761506631011154000,1.54715380859375,0.010105566121637821,-0.007055283524096012,0.004426280036568642
1761506631021126100,1.557126220703125,0.007960463874042034,-0.023815393447875977,-0.0051153372041881084
1761506631031096800,1.567096923828125,0.007164977490901947,-0.027124105021357536,-0.014842000789940357
1761506631041069000,1.577069091796875,0.0024414900690317154,-0.018060313537716866,-0.023396102711558342
1761506631051040800,1.587040771484375,0.0015964694321155548,0.004156575072556734,-0.017173094674944878
1761506631061013000,1.597012939453125,-0.00637447414919734,0.02215230092406273,-0.0022204285487532616
1761506631070985000,1.60698486328125,-0.00898250937461853,0.02377176843583584,0.010764346458017826
1761506631080957000,1.61695703125,-0.015588965266942978,0.018320666626095772,0.02216094359755516
1761506631090929200,1.62692919921875,-0.021588001400232315,0.0018676579929888248,0.027065154165029526
1761506631100900900,1.63690087890625,-0.020285069942474365,-0.016256090253591537,0.02362472005188465
1761506631110872000,1.6468720703125,-0.0171851497143507,-0.027144424617290497,0.013928950764238834
1761506631120843800,1.65684375,-0.016623573377728462,-0.02579721249639988,0.002325525740161538
1761506631130816000,1.66681591796875,-0.013471189886331558,-0.015232717618346214,-0.0010028928518295288
1761506631140787700,1.67678759765625,-0.018084343522787094,0.0008643448818475008,0.0026587077882140875
1761506631150760000,1.686760009765625,-0.024162743240594864,0.009294047951698303,0.011057785712182522
1761506631160732000,1.69673193359375,-0.031780265271663666,0.007879030890762806,0.01605837047100067
1761506631170704000,1.706703857421875,-0.03294060379266739,0.006620421074330807,0.015593382529914379
1761506631180676000,1.716676025390625,-0.03274064511060715,0.00741147343069315,0.011008068919181824
1761506631190647800,1.726647705078125,-0.027135221287608147,0.010021637193858624,0.010977176018059254
1761506631200619000,1.736618896484375,-0.02383158542215824,0.016870729625225067,0.004139340482652187
1761506631210590700,1.7465908203125,-0.01991088129580021,0.020001275464892387,0.011825223453342915
1761506631220563000,1.75656298828125,-0.015806684270501137,0.01724570244550705,0.017167523503303528
1761506631230535000,1.766534912109375,-0.013617033138871193,0.011391008272767067,0.019185401499271393
1761506631240507000,1.7765068359375,-0.012808091938495636,-0.006486944388598204,0.01939019002020359
1761506631250479000,1.78647900390625,-0.0029772999696433544,-0.01056664064526558,0.02011510170996189
1761506631260450800,1.796450927734375,0.0025209160521626472,-0.012206580489873886,0.01278468407690525
1761506631270423000,1.806423095703125,0.012237992137670517,-0.016178417950868607,0.0024327109567821026
1761506631280393700,1.816393798828125,0.016106968745589256,-0.021498721092939377,-0.007746037095785141
1761506631290366000,1.826365966796875,0.01757383719086647,-0.02368970401585102,-0.012875285930931568
1761506631300338000,1.836337890625,0.01803703047335148,-0.02461003139615059,-0.016297051683068275
1761506631310310000,1.846309814453125,0.019870616495609283,-0.025388475507497787,-0.021349335089325905
1761506631320281900,1.85628173828125,0.018874598667025566,-0.020203402265906334,-0.019307397305965424
1761506631330253800,1.86625390625,0.01751052774488926,-0.013967611826956272,-0.016767006367444992
1761506631340226000,1.87622607421875,0.021048761904239655,-0.015507890842854977,-0.010911131277680397
1761506631350198000,1.886197998046875,0.017142435535788536,-0.02512323297560215,-0.009355313144624233
1761506631360169000,1.8961689453125,0.013174932450056076,-0.04009290039539337,-0.015635622665286064
1761506631370141000,1.906140869140625,0.00865208636969328,-0.04441254585981369,-0.020827719941735268
1761506631380113000,1.91611279296875,0.009194930084049702,-0.03372205048799515,-0.027932753786444664
1761506631390084900,1.9260849609375,0.01316011045128107,-0.019087444990873337,-0.026726076379418373
1761506631400056800,1.936056884765625,0.008827008306980133,-0.008036776445806026,-0.027566028758883476
1761506631410029000,1.946029052734375,0.008499972522258759,-0.0019546495750546455,-0.022514810785651207
1761506631420001000,1.9560009765625,0.006814730819314718,-0.011465422809123993,-0.012778998352587223
1761506631429973000,1.965972900390625,0.005027216859161854,-0.01921122521162033,-0.003956479020416737
1761506631439944000,1.97594384765625,0.004703818820416927,-0.02344830334186554,0.006463279016315937
1761506631449916000,1.985916015625,0.003988494165241718,-0.025296803563833237,0.009245216846466064
1761506631459887900,1.995887939453125,0.007628486026078463,-0.024242373183369637,0.008860128000378609
1761506631469859800,2.00585986328125,0.005962678696960211,-0.014688814990222454,0.0019209953024983406
1761506631479831800,2.015831787109375,0.002509796991944313,-0.012296011671423912,-0.003361133625730872
1761506631489804000,2.025803955078125,-0.0037219999358057976,-0.012064582668244839,-0.011306941509246826
1761506631499776000,2.03577587890625,-0.005805964581668377,-0.01674046739935875,-0.02373712882399559
1761506631509748700,2.045748779296875,-0.008428113535046577,-0.018785510212183,-0.030027782544493675
1761506631519720000,2.055719970703125,-0.005728116724640131,-0.025648660957813263,-0.03724651411175728
1761506631529691600,2.065691650390625,-0.008911393582820892,-0.03153211623430252,-0.039148543030023575
1761506631539664000,2.075663818359375,-0.012217974290251732,-0.03768455237150192,-0.03384406119585037
1761506631549635800,2.0856357421875,-0.010167073458433151,-0.042203936725854874,-0.02851960062980652
1761506631559607800,2.09560791015625,-0.007641377858817577,-0.04152623564004898,-0.025018850341439247
1761506631569579800,2.105579833984375,-0.004377140663564205,-0.025369370356202126,-0.021882446482777596
1761506631579551700,2.1155517578125,0.007731623947620392,-0.00872934702783823,-0.031599365174770355
1761506631589523700,2.125523681640625,0.02180776186287403,-0.027338717132806778,-0.04776208847761154
1761506631599494700,2.13549462890625,0.024669595062732697,-0.05515117570757866,-0.05919024720788002
1761506631609467000,2.145466796875,0.014086725190281868,-0.09884911775588989,-0.06915872544050217
1761506631619438800,2.15543896484375,-0.00619889609515667,-0.10916454344987869,-0.06775155663490295
1761506631629410800,2.165410888671875,-0.019338931888341904,-0.1274828314781189,-0.052549708634614944
1761506631639382800,2.1753828125,-0.0228264182806015,-0.11970843374729156,-0.04440543055534363
1761506631649354800,2.185354736328125,-0.02497345767915249,-0.11847218871116638,-0.037900395691394806
1761506631659326700,2.19532666015625,-0.022305844351649284,-0.12599584460258484,-0.05110190808773041
1761506631669299000,2.205298828125,-0.021119672805070877,-0.12483364343643188,-0.05441461503505707
1761506631679270000,2.215269775390625,-0.02159775421023369,-0.11695139855146408,-0.06727410107851028
1761506631689241900,2.225241943359375,-0.016593407839536667,-0.09707622230052948,-0.08175744116306305
1761506631699213800,2.2352138671875,-0.01658652350306511,-0.07064425945281982,-0.08715768158435822
1761506631709185800,2.245185791015625,-0.019978592172265053,-0.0695989653468132,-0.09641322493553162
1761506631719157800,2.25515771484375,-0.02627997100353241,-0.07009827345609665,-0.09273562580347061
1761506631729129700,2.265129638671875,-0.0341847687959671,-0.0723813995718956,-0.08434853702783585
1761506631739102000,2.27510205078125,-0.032191697508096695,-0.06682435423135757,-0.0763687863945961
1761506631749073700,2.28507373046875,-0.025636326521635056,-0.054965563118457794,-0.06466605514287949
1761506631759044900,2.295044921875,-0.02528546378016472,-0.048748962581157684,-0.05700449272990227
1761506631769016800,2.305016845703125,-0.02234932780265808,-0.02055833488702774,-0.04161062091588974
1761506631778988800,2.31498876953125,-0.031516220420598984,0.006254755891859531,-0.036648865789175034
1761506631788960800,2.324960693359375,-0.03962874412536621,0.02234397828578949,-0.041893962770700455
1761506631798932700,2.3349326171875,-0.03961191326379776,0.03462864086031914,-0.03752322122454643
1761506631808905000,2.344905029296875,-0.039328284561634064,0.04191558063030243,-0.0404772013425827
1761506631818876700,2.354876708984375,-0.0397704541683197,0.044502224773168564,-0.041104938834905624
1761506631828849000,2.364848876953125,-0.03843487799167633,0.0450415164232254,-0.0333000123500824
1761506631838819800,2.37481982421875,-0.03563264384865761,0.038992077112197876,-0.019660584628582
1761506631848791800,2.384791748046875,-0.03276841342449188,0.026765238493680954,-0.012759534642100334
1761506631858763800,2.394763671875,-0.033238302916288376,0.003130521858111024,-0.00478897150605917
1761506631868735700,2.40473583984375,-0.03279994800686836,-0.019055740907788277,-0.004303743597120047
1761506631878708000,2.4147080078125,-0.035717032849788666,-0.02084856666624546,-0.01007978804409504
1761506631888679700,2.4246796875,-0.02714884653687477,-0.017669018357992172,-0.012951474636793137
1761506631898652000,2.43465185546875,-0.018120404332876205,-0.002404110971838236,-0.012723988853394985
1761506631908623600,2.44462353515625,-0.015724092721939087,0.013319458812475204,-0.013471804559230804
1761506631918594800,2.4545947265625,-0.017452450469136238,0.0160202793776989,-0.010521591641008854
1761506631928567000,2.464567138671875,-0.018634626641869545,0.009968510828912258,-0.009186016395688057
1761506631938538800,2.474538818359375,-0.01721164956688881,-0.0032138992100954056,-0.007938255555927753
1761506631948511000,2.484510986328125,-0.023455966264009476,-0.0035057817585766315,-0.006404541898518801
1761506631958482700,2.494482666015625,-0.018587414175271988,0.0019823398906737566,-0.0018457627156749368
1761506631968455000,2.504454833984375,-0.01095799170434475,0.004846303258091211,0.004326113034039736
1761506631978426600,2.514426513671875,-0.004357445519417524,0.005989225581288338,0.010008830577135086
1761506631988398800,2.52439892578125,0.0008482355624437332,-0.00419843103736639,0.01105598546564579
1761506631998370000,2.5343701171875,0.003791501745581627,-0.013263390399515629,0.007016623392701149
1761506632008341800,2.544341796875,0.008124198764562607,-0.017703412100672722,0.0013789775548502803
1761506632018314000,2.55431396484375,0.012815123423933983,-0.02523435465991497,-0.004518959205597639
1761506632028285700,2.56428564453125,0.01195891760289669,-0.02733026072382927,-0.0117949815467
1761506632038258000,2.5742578125,0.015411115251481533,-0.022681113332509995,-0.014186553657054901
1761506632048230000,2.58422998046875,0.00934709794819355,-0.017394473776221275,-0.012530333362519741
1761506632058201900,2.594201904296875,0.00508560286834836,-0.020004432648420334,-0.011865232139825821
1761506632068173800,2.604173828125,0.0005462449043989182,-0.020071543753147125,-0.010438045486807823
1761506632078144800,2.614144775390625,-0.00029650796204805374,-0.01932605914771557,-0.011585498228669167
1761506632088117000,2.624116943359375,-0.004050233401358128,-0.010289952158927917,-0.009730340912938118
1761506632098088700,2.634088623046875,-0.003928931429982185,0.0007069711573421955,-0.01233581267297268
1761506632108061000,2.64406103515625,-0.009881628677248955,0.006686300504952669,-0.007400443311780691
1761506632118033000,2.654032958984375,-0.012375548481941223,0.010398635640740395,-0.006075778976082802
1761506632128004900,2.6640048828125,-0.01386319100856781,0.010062010958790779,-0.004434738773852587
1761506632137976800,2.673976806640625,-0.007639807183295488,0.004865879658609629,-0.0038227327167987823
1761506632147948800,2.68394873046875,-0.002253031823784113,-0.0015968134393915534,-0.003115396946668625
1761506632157920000,2.693919921875,0.0038034042809158564,-0.002386428415775299,-0.006997402291744947
1761506632167891700,2.7038916015625,0.005381859838962555,-0.0009576426818966866,-0.011878443881869316
1761506632177864000,2.713864013671875,0.0021241712383925915,0.0015042226295918226,-0.008324999362230301
1761506632187836000,2.7238359375,0.003849100787192583,0.0027319397777318954,-0.008579864166676998
1761506632197807900,2.733807861328125,0.0005504684522747993,-0.008527278900146484,-0.014613138511776924
1761506632207779800,2.74377978515625,0.0007073287852108479,-0.01337689533829689,-0.022246824577450752
1761506632217751800,2.753751708984375,0.005570684559643269,-0.013767804950475693,-0.030353231355547905
1761506632227723800,2.763723876953125,0.011301807127892971,-0.009021519683301449,-0.03289841488003731
1761506632237694700,2.77369482421875,0.02072637714445591,-0.0054555353708565235,-0.023666424676775932
1761506632247667000,2.7836669921875,0.0221216082572937,-0.007773017976433039,-0.01632196083664894
1761506632257639000,2.793638916015625,0.01700354553759098,-0.025228707119822502,-0.017650609835982323
1761506632267611000,2.80361083984375,0.017164133489131927,-0.03621797636151314,-0.02100326493382454
1761506632277582800,2.813582763671875,0.013452701270580292,-0.04472013935446739,-0.02939617447555065
1761506632287554800,2.823554931640625,0.012741636484861374,-0.0400681309401989,-0.03595926985144615
1761506632297526800,2.83352685546875,0.017082611098885536,-0.026274312287569046,-0.04530281573534012
1761506632307499000,2.8434990234375,0.022350609302520752,-0.015688778832554817,-0.0531008206307888
1761506632317470000,2.853469970703125,0.02585800737142563,-0.002885609632357955,-0.05114003270864487
1761506632327442000,2.86344189453125,0.022047823294997215,-0.00002803793177008629,-0.036322735249996185
1761506632337414000,2.873413818359375,0.020910700783133507,-0.0048376284539699554,-0.020985081791877747
1761506632347385900,2.8833857421875,0.014501537196338177,-0.01178581640124321,-0.0031882417388260365
1761506632357357800,2.89335791015625,0.011639291420578957,-0.017195943742990494,0.011541790328919888
1761506632367329800,2.903329833984375,0.011734100058674812,-0.016771169379353523,0.012290405109524727
1761506632377302000,2.913302001953125,0.008385946974158287,-0.009847303852438927,0.014372502453625202
1761506632387273700,2.923273681640625,0.01009463146328926,0.0015369108878076077,0.006917249411344528
1761506632397245000,2.933244873046875,0.0033591212704777718,0.01143052987754345,-0.001974809216335416
1761506632407217000,2.943216796875,-0.0028979755006730556,0.011080591008067131,-0.013953974470496178
1761506632417188900,2.95318896484375,-0.012016288936138153,0.006900306325405836,-0.0203870739787817
1761506632427160800,2.963160888671875,-0.014202211052179337,0.003404374700039625,-0.017515653744339943
1761506632437132800,2.9731328125,-0.011009979993104935,0.011175107210874557,-0.008557247929275036
1761506632447105000,2.98310498046875,-0.008318057283759117,0.015322180464863777,0.007187094073742628
1761506632457076700,2.99307666015625,-0.006835756823420525,0.01557941734790802,0.014934060163795948
1761506632467049000,3.003049072265625,-0.005113223567605019,0.004141939803957939,0.01635485701262951
1761506632477020000,3.01302001953125,-0.0054281530901789665,-0.006390286143869162,0.005004130303859711
1761506632486992000,3.022991943359375,-0.006659865379333496,-0.014386161230504513,-0.010610248893499374
1761506632496963800,3.0329638671875,-0.007405667565762997,-0.009833092801272869,-0.02270803041756153
1761506632506935000,3.04293505859375,-0.011508267372846603,-0.003043363569304347,-0.03141310438513756
1761506632516907300,3.0529072265625,-0.010249370709061623,0.00644519180059433,-0.03062678687274456
1761506632526879000,3.06287890625,-0.008224569261074066,0.005639052949845791,-0.021686555817723274
1761506632536851200,3.072851318359375,-0.007137785200029612,-0.005824023857712746,-0.021631918847560883
1761506632546823000,3.082822998046875,-0.009485362097620964,-0.020124133676290512,-0.022980811074376106
1761506632556794000,3.092794189453125,-0.004191854037344456,-0.01880606822669506,-0.022437313571572304
1761506632566766000,3.10276611328125,-0.00410077441483736,-0.014327695593237877,-0.027577480301260948
1761506632576738000,3.112738037109375,-0.008391701616346836,-0.014257028698921204,-0.02982400543987751
1761506632586710300,3.122710205078125,-0.015225372277200222,-0.008549608290195465,-0.02939869835972786
1761506632596682000,3.132681884765625,-0.012240204028785229,-0.00030041474383324385,-0.0262752715498209
1761506632606654200,3.142654296875,-0.019298646599054337,0.0015398295363411307,-0.016430895775556564
1761506632616626000,3.1526259765625,-0.016443638131022453,-0.0003525054780766368,-0.011255904100835323
1761506632626598100,3.16259814453125,-0.014223625883460045,-0.006564062088727951,-0.004107714165002108
1761506632636569000,3.172569091796875,-0.014820989221334457,-0.011118628084659576,-0.006563052535057068
1761506632646541000,3.182541015625,-0.01688254252076149,-0.014593521133065224,-0.01247100904583931
1761506632656513300,3.19251318359375,-0.01889212056994438,-0.019095420837402344,-0.014097252860665321
1761506632666485000,3.202485107421875,-0.02484481781721115,-0.018694082275032997,-0.019214514642953873
1761506632676457200,3.212457275390625,-0.029648378491401672,-0.014765413478016853,-0.02136731892824173
1761506632686429000,3.222428955078125,-0.036161940544843674,-0.008509648963809013,-0.01535283587872982
1761506632696401200,3.232401123046875,-0.03859720379114151,0.0016015212750062346,-0.008368025533854961
1761506632706373000,3.242373046875,-0.03884274512529373,-0.001069362973794341,-0.003188710194081068
1761506632716344000,3.252343994140625,-0.03939301148056984,-0.00881749764084816,-0.005710776429623365
1761506632726316300,3.26231640625,-0.04012804478406906,-0.012673222459852695,-0.006930503994226456
1761506632736288000,3.2722880859375,-0.0464799739420414,-0.012181214988231659,-0.0091624790802598
1761506632746260200,3.28226025390625,-0.05149683728814125,-0.010511146858334541,-0.014080272056162357
1761506632756232000,3.29223193359375,-0.054131440818309784,0.0009283502586185932,-0.014748956076800823
1761506632766204200,3.3022041015625,-0.05986841768026352,0.009124228730797768,-0.015539116226136684
1761506632776176000,3.312176025390625,-0.062377698719501495,0.01345466822385788,-0.014532573521137238
1761506632786148000,3.322148193359375,-0.06350155174732208,0.0056388224475085735,-0.01689053699374199
1761506632796119300,3.332119384765625,-0.05948180705308914,-0.012451287358999252,-0.018085036426782608
1761506632806091000,3.342091064453125,-0.054203957319259644,-0.012213733047246933,-0.020245127379894257
1761506632816063200,3.352063232421875,-0.047229085117578506,-0.0013602556427940726,-0.012958758510649204
1761506632826035000,3.362034912109375,-0.04334939271211624,0.018670709803700447,-0.003575377631932497
1761506632836007200,3.372007080078125,-0.042597901076078415,0.025090761482715607,0.0026367525570094585
1761506632845979100,3.381979248046875,-0.05049524083733559,0.009173048660159111,-0.0017566641326993704
1761506632855951000,3.391951171875,-0.05563089996576309,-0.014265312813222408,-0.015728916972875595
1761506632865923000,3.401923095703125,-0.05260049179196358,-0.030278366059064865,-0.029132075607776642
1761506632875894000,3.41189404296875,-0.04073157161474228,-0.029671311378479004,-0.03999902680516243
1761506632885866200,3.4218662109375,-0.02479681558907032,-0.018937973305583,-0.04174579679965973
1761506632895838000,3.431837890625,-0.017984408885240555,0.002539527602493763,-0.0397418811917305
1761506632905810200,3.44181005859375,-0.00919411052018404,0.017250297591090202,-0.025018863379955292
1761506632915782100,3.4517822265625,-0.0011735684238374233,0.01836632378399372,-0.009551958180963993
1761506632925754000,3.461754150390625,-0.00020364532247185707,0.006646283436566591,0.006946058012545109
1761506632935726000,3.47172607421875,0.006763283163309097,-0.014428537338972092,0.020754216238856316
1761506632945698000,3.481697998046875,0.0137596745043993,-0.028032762929797173,0.029730135574936867
1761506632955669200,3.491669189453125,0.02337648905813694,-0.032592613250017166,0.03700944036245346
1761506632965641000,3.501640869140625,0.025220993906259537,-0.024243338033556938,0.037626225501298904
1761506632975613200,3.51161328125,0.020765557885169983,-0.012901147827506065,0.03536820411682129
1761506632985585200,3.521585205078125,0.014912729151546955,-0.00360032357275486,0.02376081794500351
1761506632995557000,3.53155712890625,0.005423279944807291,-0.00011740252375602722,0.008034362457692623
1761506633005529000,3.541529052734375,1.862645149230957e-8,0.0030954349786043167,-0.007327282801270485
1761506633015501000,3.5515009765625,-0.00673117209225893,0.009716827422380447,-0.015304207801818848
1761506633025473000,3.56147314453125,-0.009120560251176357,0.011759205721318722,-0.021241193637251854
1761506633035444000,3.57144384765625,-0.004934911150485277,0.01923985220491886,-0.013916850090026855
1761506633045416200,3.581416259765625,-0.007912591099739075,0.021438559517264366,-0.00011608365457504988
1761506633055388200,3.59138818359375,-0.013861436396837234,0.009642072021961212,0.00952767115086317
1761506633065360100,3.601360107421875,-0.019164321944117546,-0.000514159444719553,0.015362391248345375
1761506633075332000,3.61133203125,-0.02184228040277958,-0.005499192513525486,0.008592206984758377
1761506633085304000,3.621303955078125,-0.02479466050863266,0.004113753791898489,-0.006112170405685902
1761506633095276000,3.631276123046875,-0.019533144310116768,0.011176197789609432,-0.023316849023103714
1761506633105248300,3.641248291015625,-0.01250799186527729,0.01859922707080841,-0.03273671865463257
1761506633115219200,3.65121923828125,-0.014219621196389198,0.026004653424024582,-0.034455955028533936
1761506633125191200,3.661191162109375,-0.010783610865473747,0.02978288009762764,-0.02064640074968338
1761506633135163100,3.6711630859375,-0.009892851114273071,0.027019528672099113,-0.00670461542904377
1761506633145135000,3.681135009765625,-0.005995581857860088,0.019314205273985863,0.012076528742909431
1761506633155107000,3.691107177734375,0.0021828869357705116,0.009446820244193077,0.018834099173545837
1761506633165079000,3.7010791015625,0.0075837778858840466,0.0022400408051908016,0.019850093871355057
1761506633175051300,3.71105126953125,0.01508878543972969,-0.00783130805939436,0.015983741730451584
1761506633185023000,3.72102294921875,0.01676737517118454,-0.013682805933058262,0.008645400404930115
1761506633194994200,3.730994140625,0.01746809482574463,-0.018238501623272896,0.004940027836710215
1761506633204966100,3.740966064453125,0.021910781040787697,-0.019922152161598206,-0.002218815730884671
1761506633214938000,3.750938232421875,0.02929571457207203,-0.015663085505366325,-0.013937067240476608
1761506633224910000,3.76091015625,0.03738053888082504,-0.018624786287546158,-0.01581193134188652
1761506633234882000,3.770882080078125,0.043955087661743164,-0.029555730521678925,-0.022623766213655472
1761506633244854300,3.780854248046875,0.04459743946790695,-0.03228360787034035,-0.01568383350968361
1761506633254826000,3.790825927734375,0.043345432728528976,-0.02958761900663376,-0.01166491024196148
1761506633264798200,3.800798095703125,0.04181544482707977,-0.025466911494731903,-0.0026264083571732044
1761506633274769200,3.81076904296875,0.04112512618303299,-0.023563697934150696,0.006757526192814112
1761506633284741000,3.8207412109375,0.03936024755239487,-0.019944729283452034,0.004585452377796173
1761506633294713000,3.830713134765625,0.039756204932928085,-0.011918427422642708,-0.0004956455086357892
1761506633304685000,3.84068505859375,0.03528821840882301,-0.005446945317089558,-0.003247489919885993
1761506633314657300,3.8506572265625,0.03544595092535019,0.002706014085561037,-0.004175378940999508
1761506633324629000,3.86062890625,0.03200887516140938,0.005231755785644054,0.0010199155658483505
1761506633334601200,3.870601318359375,0.027415867894887924,-0.0018958358559757471,0.011964545585215092
1761506633344573000,3.880572998046875,0.021046917885541916,-0.005418398883193731,0.022774316370487213
1761506633354544000,3.890544189453125,0.01571904495358467,0.0035332338884472847,0.03542187437415123
1761506633364516000,3.90051611328125,0.013439113274216652,0.012085975147783756,0.03614306077361107
1761506633374488000,3.910488037109375,0.006236034911125898,0.019186614081263542,0.02903882972896099
1761506633384460300,3.920460205078125,0.004481011535972357,0.020896097645163536,0.012367709539830685
1761506633394432000,3.930431884765625,0.0038226209580898285,0.02246822789311409,-0.0006536029977723956
1761506633404404200,3.940404296875,0.005106531083583832,0.02632794715464115,-0.006105626467615366
1761506633414376000,3.9503759765625,0.00199474161490798,0.030760912224650383,-0.013527218252420425
1761506633424348200,3.96034814453125,0.0021353564225137234,0.02118125557899475,-0.00991304311901331
1761506633434319000,3.970319091796875,0.0030111041851341724,0.004534740932285786,-0.0056850723922252655
1761506633444291000,3.980291015625,0.005365338176488876,-0.013288997113704681,-0.0024125801865011454
1761506633454263300,3.99026318359375,0.00734888669103384,-0.026291202753782272,-0.006084034685045481
1761506633464234200,4.000234130859375,0.01646089181303978,-0.029741061851382256,-0.014352883212268353
1761506633474206200,4.010206298828125,0.017419373616576195,-0.019213728606700897,-0.025164442136883736
1761506633484177200,4.02017724609375,0.02305329218506813,-0.0034582014195621014,-0.034544896334409714
1761506633494149000,4.030149169921875,0.028193527832627296,0.010203607380390167,-0.037349339574575424
1761506633504121000,4.04012109375,0.03002604842185974,0.013871313072741032,-0.03071141242980957
1761506633514093300,4.05009326171875,0.03175714984536171,0.010250283405184746,-0.014208625070750713
1761506633524065300,4.060065185546875,0.039239302277565,0.0036477744579315186,0.005516343750059605
1761506633534037200,4.070037353515625,0.04369755834341049,-0.0021792345214635134,0.030774209648370743
1761506633544009500,4.080009521484375,0.043168120086193085,-0.001592007465660572,0.050700780004262924
1761506633553981200,4.089981201171875,0.04416825622320175,-0.00067920982837677,0.04981405287981033
1761506633563952400,4.099952392578125,0.042550116777420044,0.0029131281189620495,0.04277318716049194
1761506633573924400,4.10992431640625,0.03660139441490173,0.00037894013803452253,0.02766747586429119
1761506633583896300,4.119896240234375,0.024592667818069458,0.0051092468202114105,0.003466532565653324
1761506633593868300,4.129868408203125,0.01565905474126339,0.005415500607341528,-0.016660628840327263
1761506633603840300,4.13984033203125,0.00808502547442913,0.01434587873518467,-0.020206894725561142
1761506633613812500,4.1498125,0.005606354214251041,0.019231129437685013,-0.014643413946032524
1761506633623784200,4.1597841796875,0.00747642619535327,0.02287992462515831,0.00019705144222825766
1761506633633756400,4.16975634765625,0.003516790922731161,0.018747156485915184,0.008741028606891632
1761506633643727400,4.179727294921875,0.0033695180900394917,0.003304815385490656,0.010336794890463352
1761506633653699300,4.18969921875,0.0017072842456400394,-0.009362012147903442,0.0056320661678910255
1761506633663671300,4.19967138671875,-0.0019050277769565582,-0.014188459143042564,-0.0066506993025541306
1761506633673643300,4.209643310546875,-0.005656952504068613,-0.007813804782927036,-0.019543364644050598
1761506633683615500,4.219615478515625,-0.004241749178618193,0.006867137271910906,-0.02310401014983654
1761506633693587200,4.229587158203125,-0.005076446104794741,0.01752633787691593,-0.01973286084830761
1761506633703559400,4.239559326171875,-0.0037169023416936398,0.02510196715593338,-0.007655957713723183
1761506633713531100,4.24953125,-0.002618792001157999,0.030856505036354065,0.004551565274596214
1761506633723502300,4.25950244140625,0.0037690657190978527,0.028561128303408623,0.016284653916954994
1761506633733474300,4.269474365234375,0.008474281057715416,0.014374002814292908,0.023496175184845924
1761506633743446300,4.2794462890625,0.016539398580789566,0.0011024057166650891,0.027514619752764702
1761506633753418500,4.28941845703125,0.013232050463557243,-0.004581259563565254,0.03889358043670654
1761506633763390200,4.29939013671875,0.014268551953136921,-0.00922261644154787,0.0406174436211586
1761506633773362400,4.309362548828125,0.007884432561695576,-0.002746754325926304,0.040055859833955765
1761506633783334100,4.319334228515625,0.00712969247251749,0.012333661317825317,0.030721481889486313
1761506633793306400,4.329306396484375,0.005809496156871319,0.024898402392864227,0.019382411614060402
1761506633803277300,4.33927734375,0.0053620850667357445,0.03129824250936508,0.009218456223607063
1761506633813249300,4.349249267578125,0.0027862596325576305,0.02183574065566063,0.002769442740827799
1761506633823221500,4.359221435546875,0.0011670580133795738,0.01173303835093975,0.003548417240381241
1761506633833193200,4.369193115234375,-0.0009264210239052773,0.0017907130531966686,0.012924947775900364
1761506633843166500,4.37916650390625,-0.0016350885853171349,-0.004118042066693306,0.017524493858218193
1761506633853138400,4.389138427734375,-0.003467767033725977,-0.007145831361413002,0.02691534347832203
1761506633863110400,4.3991103515625,-0.0018232655711472034,-0.005432353354990482,0.028400056064128876
1761506633873082400,4.409082275390625,-0.006276561412960291,-0.0054830461740493774,0.02463342994451523
1761506633883053300,4.41905322265625,-0.006545540411025286,-0.00534882303327322,0.021285569295287132
1761506633893025300,4.429025390625,-0.01036873273551464,0.0004671612987294793,0.012905283831059933
1761506633902997200,4.438997314453125,-0.013511529192328453,0.0023508151061832905,0.009864753112196922
1761506633912969500,4.448969482421875,-0.01943894289433956,0.005008092150092125,0.00493214325979352
1761506633922941400,4.45894140625,-0.020230168476700783,0.011634569615125656,0.0008729530964046717
1761506633932913400,4.468913330078125,-0.024851294234395027,0.015773000195622444,0.001173014985397458
1761506633942885400,4.478885498046875,-0.02125016786158085,0.013502655550837517,-0.00007254548836499453
1761506633952857300,4.488857421875,-0.02178177610039711,0.017263663932681084,0.0039747776463627815
1761506633962828300,4.498828369140625,-0.017677579075098038,0.013613536953926086,0.007832899689674377
1761506633972800300,4.50880029296875,-0.01837342232465744,0.00858486257493496,0.009802722372114658
1761506633982772200,4.518772216796875,-0.011520575731992722,0.0045477766543626785,0.0036913000512868166
1761506633992744400,4.528744384765625,-0.00424168212339282,0.006052262149751186,0.004841200541704893
1761506634002716400,4.53871630859375,0.0022095595486462116,0.015469199977815151,0.01253454014658928
1761506634012688400,4.5486884765625,0.011428149417042732,0.02393745258450508,0.02325115166604519
1761506634022660400,4.558660400390625,0.01472247950732708,0.02567516639828682,0.034714728593826294
1761506634032632300,4.56863232421875,0.013708248734474182,0.008124561980366707,0.03129236772656441
1761506634042603300,4.578603271484375,0.005899860989302397,-0.01502203568816185,0.02252284251153469
1761506634052575200,4.5885751953125,0.007635416928678751,-0.030834432691335678,0.005305260419845581
1761506634062547500,4.59854736328125,0.010242917574942112,-0.02766793593764305,-0.014866853132843971
1761506634072519400,4.60851953125,0.015529189258813858,-0.011629855260252953,-0.022408686578273773
1761506634082491400,4.618491455078125,0.022558603435754776,0.012535933405160904,-0.023871295154094696
1761506634092463400,4.62846337890625,0.024887118488550186,0.025933627039194107,-0.009205162525177002
1761506634102435300,4.638435302734375,0.02202821522951126,0.02150478959083557,0.007025739178061485
1761506634112407600,4.648407470703125,0.018585719168186188,0.006620449014008045,0.022146526724100113
1761506634122378200,4.658378173828125,0.014574466273188591,-0.0037403127644211054,0.02657136879861355
1761506634132350500,4.6683505859375,0.01597452536225319,-0.012369485571980476,0.022109031677246094
1761506634142322200,4.678322265625,0.016375064849853516,-0.0020899497903883457,0.013795708306133747
1761506634152294400,4.68829443359375,0.019784247502684593,0.015348752960562706,0.008486025966703892
1761506634162266400,4.698266357421875,0.018889691680669785,0.029553787782788277,0.003532813396304846
1761506634172238300,4.70823828125,0.02052614837884903,0.03648542985320091,0.004556040279567242
1761506634182210600,4.71821044921875,0.015852568671107292,0.03459298610687256,0.015617746859788895
1761506634192182300,4.728182373046875,0.014793581329286098,0.022892791777849197,0.019014235585927963
1761506634202153500,4.738153564453125,0.017997629940509796,0.011585810221731663,0.021665412932634354
1761506634212125200,4.748125244140625,0.017033550888299942,0.0031970972195267677,0.01906466670334339
1761506634222097400,4.758097412109375,0.020164629444479942,-0.0003030954394489527,0.010958803817629814
1761506634232069400,4.7680693359375,0.019010812044143677,0.006813554558902979,0.00782320648431778
1761506634242041300,4.778041259765625,0.01769627444446087,0.0031386585906147957,0.0013991290470585227
1761506634252013600,4.788013671875,0.014036068692803383,-0.00630580261349678,-0.004363535903394222
1761506634261985300,4.7979853515625,0.008496160618960857,-0.0007136969361454248,-0.008359076455235481
1761506634271957500,4.80795751953125,0.010143033228814602,0.002617503982037306,-0.009282640181481838
1761506634281929200,4.81792919921875,0.012942815199494362,0.007390420883893967,-0.006560623180121183
1761506634291900400,4.827900390625,0.009911783039569855,0.007842378690838814,-0.006126387044787407
1761506634301872000,4.8378720703125,0.013513175770640373,0.008254636079072952,-0.000828028132673353
1761506634311844400,4.84784423828125,0.015581334009766579,0.006343785673379898,0.002913753967732191
1761506634321816300,4.85781640625,0.01709853671491146,-0.000948481960222125,0.007381472736597061
1761506634331788300,4.867788330078125,0.01453427318483591,-0.006691649556159973,0.005088865756988525
1761506634341760500,4.877760498046875,0.015293007716536522,-0.002426596824079752,0.0022483384236693382
1761506634351732200,4.887732177734375,0.014119718223810196,0.00237172469496727,0.0010296113323420286
1761506634361704400,4.897704345703125,0.015270203351974487,0.008592602796852589,-0.0036237300373613834
1761506634371675100,4.907675048828125,0.010926743969321251,0.009066948667168617,-0.00818600319325924
1761506634381647400,4.9176474609375,0.010811962187290192,0.013891264796257019,-0.010243029333651066
1761506634391619300,4.927619384765625,0.006270556710660458,0.006651274859905243,-0.008866675198078156
1761506634401591300,4.93759130859375,0.005544046405702829,-0.0019099889323115349,-0.008266398683190346
1761506634411563500,4.9475634765625,0.009489933960139751,-0.003527403110638261,0.004556900821626186
1761506634421535200,4.95753515625,0.016587525606155396,0.0019256856758147478,0.01011012401431799
1761506634431507500,4.967507568359375,0.021167157217860222,0.0003678813809528947,0.014760836958885193
1761506634441479400,4.9774794921875,0.02127528190612793,-0.003412209451198578,0.01263590157032013
1761506634451450400,4.987450439453125,0.025440676137804985,-0.009308379143476486,0.00950104184448719
1761506634461422300,4.99742236328125,0.024490458890795708,-0.010545950382947922,0.008365204557776451
1761506634471394300,5.007394287109375,0.02331584319472313,-0.012898578308522701,0.004362768027931452
1761506634481366300,5.0173662109375,0.022088924422860146,-0.011796029284596443,0.00953782256692648
1761506634491338200,5.027338134765625,0.01972176507115364,-0.008047377690672874,0.009312966838479042
1761506634501310500,5.037310546875,0.01816328428685665,0.0003349218750372529,0.01026611216366291
1761506634511282000,5.047281982421875,0.01824020780622959,0.006798773538321257,0.011147735640406609
1761506634521254100,5.057254150390625,0.017286263406276703,0.006394239608198404,0.007929039187729359
1761506634531225000,5.06722509765625,0.018482182174921036,0.009070759639143944,0.00172972131986171
1761506634541197000,5.077197021484375,0.012679951265454292,0.005641406401991844,0.003648262470960617
1761506634551169300,5.087169189453125,0.006291904021054506,0.0015735991764813662,0.0052429018542170525
1761506634561141000,5.09714111328125,0.004182147793471813,0.007907927967607975,0.012984711676836014
1761506634571113200,5.10711328125,0.00019746925681829453,0.010836142115294933,0.021537933498620987
1761506634581085000,5.1170849609375,-0.0018824590370059013,0.010230273008346558,0.011788366362452507
1761506634591057200,5.12705712890625,-0.0034806649200618267,0.0007883944781497121,0.0037670426536351442
1761506634601029000,5.137029052734375,-0.0008601141162216663,-0.004453505389392376,-0.004947353154420853
1761506634611000000,5.147,-0.0018380270339548588,-0.0038236677646636963,-0.01326174195855856
1761506634620972000,5.156971923828125,0.0006019612774252892,0.005431349389255047,-0.012958940118551254
1761506634630944000,5.166944091796875,-0.004296177066862583,0.01581738144159317,-0.012938127852976322
1761506634640916200,5.176916259765625,-0.005951065570116043,0.010504375211894512,-0.01703673228621483
1761506634650888000,5.186887939453125,-0.013275181874632835,-0.014053205028176308,-0.03517497703433037
1761506634660860200,5.196860107421875,-0.022776007652282715,-0.031554434448480606,-0.058862995356321335
1761506634670832000,5.20683203125,-0.02037457749247551,-0.02806336246430874,-0.07622888684272766
1761506634680804000,5.21680419921875,-0.012560863047838211,-0.012308369390666485,-0.0865936428308487
1761506634690776000,5.226776123046875,-0.014699706807732582,0.0016527879051864147,-0.08351162075996399
1761506634700747000,5.2367470703125,-0.009366726502776146,0.011553887277841568,-0.06122841686010361
1761506634710719200,5.24671923828125,-0.010493451729416847,0.006770516745746136,-0.03426092863082886
1761506634720691000,5.25669091796875,-0.011401057243347168,-0.015701767057180405,-0.010036016814410686
1761506634730663200,5.2666630859375,-0.006547106429934502,-0.03508802130818367,0.0034922657068818808
1761506634740635100,5.27663525390625,0.005525269079953432,-0.04755907133221626,0.009456148371100426
1761506634750607000,5.286607177734375,0.010468200780451298,-0.044235121458768845,0.0020364997908473015
1761506634760579000,5.2965791015625,0.012851197272539139,-0.025352511554956436,-0.0013369262451305985
1761506634770551000,5.306551025390625,0.014169842004776001,-0.0045991684310138226,-0.0030042261350899935
1761506634780522000,5.31652197265625,0.005408042576164007,0.013523642905056477,-0.0013855567667633295
1761506634790494000,5.326493896484375,0.009121403098106384,0.018262071534991264,0.01094764657318592
1761506634800466200,5.336466064453125,0.011270840652287006,0.0134468087926507,0.03073306940495968
1761506634810438100,5.346438232421875,0.016787603497505188,0.003660904709249735,0.050760284066200256
1761506634820410000,5.35641015625,0.016652049496769905,-0.01139154750853777,0.05945923551917076
1761506634830382000,5.366382080078125,0.01856575533747673,-0.01889624260365963,0.0627928301692009
1761506634840354000,5.37635400390625,0.010854838415980339,-0.023442525416612625,0.04526150971651077
1761506634850326000,5.386325927734375,0.0005022906698286533,-0.0224477406591177,0.015245136804878712
1761506634860297000,5.396296875,-0.007713295053690672,-0.01715337671339512,-0.018802044913172722
1761506634870269200,5.406269287109375,-0.006017044186592102,-0.0015359880635514855,-0.04451723024249077
1761506634880241200,5.4162412109375,-0.013481884263455868,0.012596875429153442,-0.05627615377306938
1761506634890213000,5.426213134765625,-0.010585721582174301,0.0228046253323555,-0.05071784928441048
1761506634900185000,5.43618505859375,-0.011971896514296532,0.016986150294542313,-0.0386236347258091
1761506634910157000,5.446156982421875,-0.011197857558727264,0.00917801447212696,-0.02079172618687153
1761506634920129000,5.45612890625,-0.008194077759981155,0.0013805453199893236,-0.011787843890488148
1761506634930101200,5.466101318359375,-0.0029240483418107033,-0.005035381764173508,-0.009168559685349464
1761506634940072000,5.476072021484375,0.004661699291318655,-0.005505962297320366,-0.010445545427501202
1761506634950044200,5.486044189453125,0.0074689374305307865,-0.007598141673952341,-0.019883522763848305
1761506634960016100,5.49601611328125,0.008168283849954605,-0.004187431186437607,-0.02563648298382759
1761506634969988000,5.505988037109375,0.016250262036919594,0.0036684416700154543,-0.023924570530653
1761506634979960000,5.5159599609375,0.018981067463755608,0.007418971508741379,-0.019943412393331528
1761506634989932000,5.52593212890625,0.022465307265520096,0.0015732162864878774,-0.01431324239820242
1761506634999904300,5.535904296875,0.02723902463912964,-0.007935600355267525,-0.009787466377019882
1761506635009876000,5.5458759765625,0.03059232421219349,-0.018980931490659714,-0.005925778299570084
1761506635019847200,5.55584716796875,0.038294717669487,-0.028561120852828026,-0.016700660809874535
1761506635029819100,5.565819091796875,0.03898031637072563,-0.03146705403923988,-0.023237721994519234
1761506635039791000,5.575791015625,0.03919656202197075,-0.0218245480209589,-0.01652868464589119
1761506635049763000,5.58576318359375,0.03753439709544182,-0.007745728828012943,-0.005977367516607046
1761506635059735000,5.595735107421875,0.03454340249300003,-0.002406090497970581,0.0007497776532545686
1761506635069707300,5.605707275390625,0.030920175835490227,-0.00896156020462513,0.007460237946361303
1761506635079679000,5.615678955078125,0.024608217179775238,-0.011750688776373863,0.011953789740800858
1761506635089651200,5.625651123046875,0.01815289817750454,-0.012367557734251022,0.007450618781149387
1761506635099622000,5.635621826171875,0.013321656733751297,-0.008369619958102703,0.003811142174527049
1761506635109594000,5.645593994140625,0.006893637590110302,-0.0055439770221710205,0.00010291615035384893
1761506635119566000,5.655566162109375,-0.00430974829941988,0.006278061307966709,-0.002600991167128086
1761506635129538000,5.6655380859375,-0.013017455115914345,0.01823064498603344,0.006904169451445341
1761506635139510300,5.67551025390625,-0.017477717250585556,0.026855025440454483,0.009951358661055565
1761506635149482000,5.68548193359375,-0.021520495414733887,0.028108470141887665,0.012744280509650707
1761506635159454200,5.6954541015625,-0.02809850312769413,0.024190161377191544,0.017016256228089333
1761506635169426000,5.705426025390625,-0.033208128064870834,0.02283613011240959,0.01529901847243309
1761506635179397000,5.715397216796875,-0.03336525335907936,0.02818029560148716,0.006463448982685804
1761506635189369000,5.725369140625,-0.03662111237645149,0.02912074699997902,-0.004425595980137587
1761506635199341000,5.735341064453125,-0.03841235488653183,0.021876150742173195,-0.013552249409258366
1761506635209313300,5.745313232421875,-0.03714694455265999,0.008965054526925087,-0.017001930624246597
1761506635219285000,5.755284912109375,-0.03455648571252823,0.0019191298633813858,-0.02085765451192856
1761506635229257200,5.76525732421875,-0.022025106474757195,0.003063769545406103,-0.017006371170282364
1761506635239229000,5.77522900390625,-0.0024167848750948906,0.011731826700270176,-0.008912226185202599
1761506635249201200,5.785201171875,0.012465284205973148,0.009588714689016342,-0.006863138172775507
1761506635259171800,5.795171875,0.016796916723251343,-0.00759053835645318,-0.011314877308905125
1761506635269144000,5.80514404296875,0.014789629727602005,-0.03641829267144203,-0.0130066629499197
1761506635279116000,5.815115966796875,0.012975217774510384,-0.048234470188617706,-0.016512183472514153
1761506635289088000,5.825087890625,0.018553992733359337,-0.0350867360830307,-0.012046764604747295
1761506635299060200,5.835060302734375,0.02885536663234234,-0.008687084540724754,-0.009833411313593388
1761506635309032000,5.845031982421875,0.04091290012001991,0.011783787049353123,-0.0028450540266931057
1761506635319004200,5.855004150390625,0.04415956139564514,0.01667734608054161,0.007958325557410717
1761506635328976100,5.86497607421875,0.04490698128938675,0.0014688440132886171,0.021253708750009537
1761506635338947000,5.874947021484375,0.03997267782688141,-0.013215026818215847,0.03263526037335396
1761506635348919000,5.8849189453125,0.041930507868528366,-0.024201352149248123,0.040344927459955215
1761506635358891000,5.89489111328125,0.0384119376540184,-0.02634706161916256,0.04309331253170967
1761506635368863200,5.90486328125,0.030428623780608177,-0.023108484223484993,0.03618921712040901
1761506635378835000,5.9148349609375,0.02411480061709881,-0.011128254234790802,0.02902451530098915
1761506635388807200,5.92480712890625,0.013774866238236427,0.008237754926085472,0.01468068826943636
1761506635398779100,5.934779052734375,0.0049121323972940445,0.010533931665122509,-0.0021206620149314404
1761506635408751000,5.944751220703125,-0.007206244859844446,0.00454124016687274,-0.02160998433828354
1761506635418722000,5.95472216796875,-0.016584035009145737,0.0022240239195525646,-0.03348954766988754
1761506635428694000,5.964694091796875,-0.0220227912068367,0.004271966405212879,-0.029661746695637703
1761506635438666000,5.974666015625,-0.029741700738668442,0.015553915873169899,-0.02050180360674858
1761506635448638000,5.984637939453125,-0.03077944926917553,0.025003690272569656,-0.0061281584203243256
1761506635458610200,5.994610107421875,-0.03179518133401871,0.022339995950460434,0.0013910108245909214
1761506635468582100,6.00458203125,-0.03209460899233818,0.015825975686311722,0.0019032949348911643
1761506635478554000,6.01455419921875,-0.031082607805728912,0.00910282600671053,-0.0053543513640761375
1761506635488526000,6.024526123046875,-0.029876235872507095,0.005813061259686947,-0.01851905696094036
1761506635498498000,6.034498046875,-0.02274855226278305,0.010606485418975353,-0.021711386740207672
1761506635508469000,6.044468994140625,-0.013307256624102592,0.019412534311413765,-0.018341224640607834
1761506635518441500,6.05444140625,-0.010961810126900673,0.023561472073197365,-0.011052153073251247
1761506635528413400,6.064413330078125,-0.0016230950132012367,0.016876041889190674,0.0027695917524397373
1761506635538385400,6.074385498046875,0.005382084287703037,0.004585553891956806,0.01763029769062996
1761506635548357400,6.084357421875,0.008915681391954422,-0.005058152135461569,0.027971722185611725
1761506635558329600,6.09432958984375,0.013588197529315948,-0.010292062535881996,0.034175027161836624
1761506635568301300,6.10430126953125,0.01978752575814724,-0.004701306112110615,0.03585483506321907
1761506635578273500,6.1142734375,0.0218442864716053,-0.002178227063268423,0.02891969308257103
1761506635588244500,6.124244384765625,0.02095930650830269,-0.0027996706776320934,0.014225893653929234
1761506635598216400,6.134216552734375,0.014135487377643585,0.0015679136849939823,0.0033615275751799345
1761506635608188400,6.1441884765625,0.014971690252423286,-0.0009767828742042184,-0.008719708770513535
1761506635618160400,6.154160400390625,0.017261475324630737,-0.0003373578656464815,-0.014865751378238201
1761506635628132600,6.164132568359375,0.016958605498075485,-0.005384639836847782,-0.01696125604212284
1761506635638104300,6.174104248046875,0.016486428678035736,-0.014413022436201572,-0.022106217220425606
1761506635648076500,6.18407666015625,0.01020361203700304,-0.019371697679162025,-0.021968694403767586
1761506635658048500,6.194048583984375,0.012773295864462852,-0.017133576795458794,-0.015235688537359238
1761506635668019500,6.20401953125,0.012487879022955894,-0.01326670590788126,-0.01400082465261221
1761506635677991400,6.213991455078125,0.013983776792883873,-0.010463462211191654,-0.013207469135522842
1761506635687963400,6.22396337890625,0.013855068013072014,-0.004743383731693029,-0.007354956120252609
1761506635697935600,6.233935546875,0.015561621636152267,-0.005601454526185989,-0.0075062233954668045
1761506635707907300,6.2439072265625,0.016074717044830322,-0.005518039688467979,-0.00654706172645092
1761506635717879600,6.253879638671875,0.01360064186155796,-0.007910890504717827,-0.008975864388048649
1761506635727851300,6.263851318359375,0.012449796311557293,-0.008979016914963722,-0.004814783576875925
1761506635737823500,6.273823486328125,0.01087160687893629,-0.004177603870630264,-0.004569506272673607
1761506635747794400,6.28379443359375,0.014974018558859825,-0.0009840321727097034,-0.0015846966998651624
1761506635757766400,6.293766357421875,0.014445647597312927,0.006606243550777435,0.0028393464162945747
1761506635767738600,6.303738525390625,0.013504148460924625,0.0061152041889727116,0.002552567981183529
1761506635777710300,6.31371044921875,0.013533443212509155,0.00749179208651185,0.014150634407997131
1761506635787682600,6.3236826171875,0.015053912997245789,0.0043920911848545074,0.013972424902021885
1761506635797654300,6.333654296875,0.009206410497426987,-0.01039324700832367,0.007556603290140629
1761506635807626500,6.34362646484375,0.00578587781637907,-0.014936283230781555,-0.007501901593059301
1761506635817598500,6.353598388671875,0.00800855178385973,-0.014643067494034767,-0.017224038019776344
1761506635827569400,6.3635693359375,0.012516803108155727,-0.0009179046610370278,-0.021106967702507973
1761506635837541600,6.373541748046875,0.016692640259861946,0.020356757566332817,-0.014779828488826752
1761506635847513300,6.383513427734375,0.01917102001607418,0.02771924063563347,-0.0031003865879029036
1761506635857485600,6.393485595703125,0.017109999433159828,0.017711348831653595,0.005659016314893961
1761506635867457300,6.403457275390625,0.011543406173586845,-0.0061910878866910934,0.006638302002102137
1761506635877429500,6.413429443359375,0.011790014803409576,-0.027328597381711006,0.003191904630511999
1761506635887401500,6.4234013671875,0.018120460212230682,-0.031155865639448166,-0.0049363174475729465
1761506635897373400,6.43337353515625,0.022034240886569023,-0.017119141295552254,-0.004522461909800768
1761506635907344600,6.4433447265625,0.02942550927400589,0.0030119046568870544,-0.0014849893050268292
1761506635917316400,6.45331640625,0.028750397264957428,0.014255237765610218,0.0012905570911243558
1761506635927288600,6.46328857421875,0.029355354607105255,0.014356840401887894,0.005074537359178066
1761506635937260300,6.47326025390625,0.024060191586613655,0.0073351506143808365,0.00919284950941801
1761506635947232500,6.483232421875,0.02242850326001644,-0.010077346116304398,0.00723576545715332
1761506635957204500,6.49320458984375,0.018723247572779655,-0.01911025494337082,0.004307353403419256
1761506635967176400,6.503176513671875,0.019814610481262207,-0.01633870229125023,0.00515929888933897
1761506635977148400,6.5131484375,0.01492984127253294,-0.006686875130981207,0.0021448670886456966
1761506635987119400,6.523119384765625,0.014148635789752007,-0.0024421685375273228,0.006670174654573202
1761506635997091600,6.533091552734375,0.009045753628015518,-0.0019204553682357073,-0.0005919993272982538
1761506636007063300,6.543063232421875,0.005327809602022171,-0.007036447059363127,-0.003960523288697004
1761506636017035500,6.553035400390625,-0.0008262232877314091,-0.006995168048888445,-0.008741696365177631
1761506636027007500,6.563007568359375,-0.00797288492321968,-0.0018617169698700309,-0.019106581807136536
1761506636036979500,6.5729794921875,-0.008657051250338554,0.008353902958333492,-0.019711118191480637
1761506636046951400,6.582951416015625,-0.011197099462151527,0.017627254128456116,-0.013608530163764954
1761506636056923400,6.59292333984375,-0.010505743324756622,0.009505143389105797,-0.011186650954186916
1761506636066894600,6.60289453125,-0.015472106635570526,0.003033823100849986,-0.006049082614481449
1761506636076866300,6.6128662109375,-0.016547225415706635,-0.006534648593515158,0.0005832536844536662
1761506636086838500,6.622838623046875,-0.010010302066802979,-0.0021995101124048233,0.005105877760797739
1761506636096810500,6.632810546875,-0.00863957405090332,0.003218690864741802,0.0005233766278252006
1761506636106782500,6.642782470703125,-0.0030165696516633034,0.012914896011352539,-0.0010131740709766746
1761506636116754400,6.65275439453125,-0.0033060554414987564,0.01923750713467598,-0.0007825442589819431
1761506636126726400,6.662726318359375,-0.0036533898673951626,0.021057045087218285,0.002665397711098194
1761506636136698400,6.672698486328125,-0.0029721525497734547,0.01464947871863842,0.010775521397590637
1761506636146669300,6.68266943359375,-0.0011328579857945442,0.007540305145084858,0.01630381867289543
1761506636156641500,6.6926416015625,0.010308348573744297,-0.0003442497691139579,0.01983570121228695
1761506636166613500,6.702613525390625,0.015225169248878956,-0.009707724675536156,0.013807478360831738
1761506636176585500,6.71258544921875,0.01780763640999794,-0.0107591412961483,0.009337629191577435
1761506636186557400,6.722557373046875,0.013396158814430237,-0.011613134294748306,-0.0009192930301651359
1761506636196529400,6.732529296875,0.007554781623184681,-0.006417573895305395,-0.01437305100262165
1761506636206501400,6.74250146484375,0.0027256468310952187,0.0015936045674607158,-0.01527956873178482
1761506636216473600,6.7524736328125,0.0028633326292037964,0.00877428613603115,-0.010196126997470856
1761506636226445300,6.7624453125,0.004548933357000351,0.008123967796564102,-0.0048101358115673065
1761506636236416500,6.77241650390625,0.00990162044763565,-0.001987788826227188,0.0002360215876251459
1761506636246388500,6.782388427734375,0.012946302071213722,-0.010834507644176483,0.00032336136791855097
1761506636256360400,6.7923603515625,0.010865041986107826,-0.011951170861721039,0.001950286328792572
1761506636266332400,6.80233251953125,0.008521361276507378,-0.009526201523840427,0.0035658245906233788
1761506636276304400,6.812304443359375,0.002646428532898426,-0.0004690573550760746,0.001519451499916613
1761506636286276600,6.822276611328125,-0.004281309898942709,0.012275835499167442,0.00804254598915577
1761506636296248300,6.832248291015625,-0.0033614537678658962,0.02189517393708229,0.014867960475385189
1761506636306220500,6.842220458984375,-0.0030946885235607624,0.02252279967069626,0.01542399637401104
1761506636316191500,6.85219140625,-0.0019838842563331127,0.01583906263113022,0.0131445974111557
1761506636326163500,6.86216357421875,-0.002971593290567398,0.011601372621953487,0.013012290932238102
1761506636336135400,6.872135498046875,-0.004325544461607933,0.004131472669541836,0.011987772770226002
1761506636346107400,6.882107421875,-0.0127757228910923,0.0006414517411030829,0.006737157702445984
1761506636356079600,6.89207958984375,-0.01758059859275818,0.005150982178747654,0.00959686003625393
1761506636366051300,6.90205126953125,-0.021003451198339462,0.016266977414488792,0.010791566222906113
1761506636376023600,6.9120234375,-0.023594439029693604,0.017920002341270447,0.004795724526047707
1761506636385995300,6.921995361328125,-0.0212648157030344,0.0042281970381736755,-0.007438049651682377
1761506636395966500,6.931966552734375,-0.026228150352835655,-0.012451979331672192,-0.018772464245557785
1761506636405938400,6.9419384765625,-0.02227681688964367,-0.019904036074876785,-0.024924898520112038
1761506636415910400,6.951910400390625,-0.016662074252963066,-0.010221049189567566,-0.025103330612182617
1761506636425882600,6.961882568359375,-0.017997873947024345,0.006359698250889778,-0.012772212736308575
1761506636435854300,6.971854248046875,-0.022744692862033844,0.019050993025302887,-0.004580595064908266
1761506636445826600,6.98182666015625,-0.02927263267338276,0.005471799522638321,-0.0034157284535467625
1761506636455798300,6.99179833984375,-0.033770181238651276,-0.008741756901144981,-0.005772093310952187
1761506636465770500,7.0017705078125,-0.03258240222930908,-0.01709410734474659,-0.00923892017453909
1761506636475741400,7.011741455078125,-0.02708563394844532,-0.014008035883307457,-0.013895990327000618
1761506636485713400,7.02171337890625,-0.014645419083535671,-0.002291260287165642,-0.01811118796467781
1761506636495685600,7.031685546875,-0.010769722051918507,0.00737654697149992,-0.011937182396650314
1761506636505657300,7.0416572265625,-0.01499827578663826,0.009608401916921139,-0.00319101894274354
1761506636515629000,7.051629150390625,-0.016546372324228287,0.005512726493179798,0.008727159351110458
1761506636525601000,7.06160107421875,-0.01763158105313778,-0.005048258230090141,0.020728236064314842
1761506636535573000,7.071572998046875,-0.018327996134757996,-0.00853380374610424,0.026809563860297203
1761506636545545200,7.081545166015625,-0.01673823967576027,-0.003053950611501932,0.02609381079673767
1761506636555516000,7.091515869140625,-0.01109153963625431,0.007516401819884777,0.022459395229816437
1761506636565488000,7.101488037109375,-0.011177925392985344,0.020942356437444687,0.020483659580349922
1761506636575459800,7.1114599609375,-0.013540947809815407,0.025250019505620003,0.014867587015032768
1761506636585432000,7.12143212890625,-0.014039259403944016,0.017269115895032883,0.008593812584877014
1761506636595404000,7.131404052734375,-0.014102907851338387,0.009655406698584557,0.003447252791374922
1761506636605376000,7.1413759765625,-0.014625012874603271,0.0019454571884125471,0.00021142372861504555
1761506636615348200,7.15134814453125,-0.008863797411322594,0.006007576826959848,0.004630673211067915
1761506636625320000,7.16131982421875,-0.0029681315645575523,0.00959681160748005,0.010350195690989494
1761506636635291100,7.171291015625,0.000634858850389719,0.007507295347750187,0.012950772419571877
1761506636645262800,7.181262939453125,0.0008583101443946362,0.0009296818752773106,0.01282647904008627
1761506636655235000,7.191235107421875,0.0005536442622542381,-0.009583412669599056,0.006063381209969521
1761506636665207000,7.20120703125,-0.00010046642273664474,-0.016306038945913315,0.00003099883906543255
1761506636675179000,7.211178955078125,0.0010138005018234253,-0.010844162665307522,-0.00891535822302103
1761506636685151000,7.22115087890625,0.007007761392742395,0.002773087006062269,-0.007812712341547012
1761506636695123000,7.231123046875,0.007462363224476576,0.010454175993800163,-0.007305380422621965
1761506636705095200,7.24109521484375,0.0053001996129751205,0.01447681337594986,-0.00437158951535821
1761506636715067100,7.251067138671875,0.007925011217594147,0.01002400740981102,0.0014410257572308183
1761506636725038000,7.2610380859375,0.005652859807014465,0.005069662816822529,0.005459788255393505
1761506636735010000,7.271010009765625,0.0074765924364328384,-0.0006167187821120024,0.005942619405686855
1761506636744982000,7.28098193359375,0.007829921320080757,-0.002649468369781971,0.015337497927248478
1761506636754954000,7.2909541015625,0.006740155629813671,-0.0027091228403151035,0.011240223422646523
1761506636764926000,7.300926025390625,0.0040894439443945885,-0.006770498584955931,0.0031581996008753777
1761506636774898200,7.310898193359375,0.0011999141424894333,-0.0028649726882576942,-0.006925859954208136
1761506636784870100,7.3208701171875,-0.003900123294442892,-0.00020215788390487432,-0.014201115816831589
1761506636794842000,7.330842041015625,-0.0034513804130256176,0.006887176539748907,-0.018340999260544777
1761506636804813000,7.34081298828125,-0.005285377614200115,0.00921859685331583,-0.022927140817046165
1761506636814785000,7.350784912109375,-0.00714879110455513,0.0005878242664039135,-0.01801813580095768
1761506636824757000,7.360757080078125,-0.007418524939566851,-0.0044063301756978035,-0.012357876636087894
1761506636834729000,7.37072900390625,-0.0049545676447451115,-0.006576807238161564,-0.004861345048993826
1761506636844701000,7.380700927734375,-0.010779742151498795,-0.007778331637382507,0.0005532447248697281
1761506636854673200,7.390673095703125,-0.006922419648617506,-0.004075206816196442,0.0029058814980089664
1761506636864645000,7.40064501953125,-0.004568618722259998,-0.002323538763448596,0.0046690963208675385
1761506636874617000,7.4106171875,-0.008488791063427925,0.007982894778251648,0.0043617673218250275
1761506636884588000,7.420588134765625,-0.00665250001475215,0.005008316598832607,0.006304426118731499
1761506636894560000,7.43056005859375,-0.011410236358642578,0.0019669868052005768,0.005389097612351179
1761506636904532000,7.440531982421875,-0.011052434332668781,-0.0018650218844413757,0.00498544704169035
1761506636914504000,7.45050390625,-0.010709951631724834,0.0005059903487563133,0.0065793488174676895
1761506636924476200,7.46047607421875,-0.01461684051901102,0.004334498196840286,0.017039906233549118
1761506636934448000,7.4704482421875,-0.020462211221456528,0.015405791811645031,0.022197917103767395
1761506636944420000,7.480420166015625,-0.02271324209868908,0.02045196294784546,0.02437273971736431
1761506636954392000,7.49039208984375,-0.031005259603261948,0.01407981663942337,0.01972126215696335
1761506636964363000,7.500363037109375,-0.031183678656816483,0.00698687881231308,0.009042595513164997
1761506636974335000,7.5103349609375,-0.028275776654481888,0.010555780492722988,-0.0005093649961054325
1761506636984307000,7.520306884765625,-0.022188540548086166,0.02209772914648056,-0.0028164847753942013
1761506636994279200,7.530279052734375,-0.01848781295120716,0.02287670224905014,-0.000019899453036487103
1761506637004251000,7.5402509765625,-0.024823855608701706,0.008304286748170853,-0.003127913922071457
1761506637014223000,7.55022314453125,-0.0347696952521801,-0.010918410494923592,-0.01536647044122219
1761506637024195000,7.560195068359375,-0.03709764778614044,-0.021897638216614723,-0.022151704877614975
1761506637034167000,7.5701669921875,-0.03642706200480461,-0.01615746133029461,-0.02856619469821453
1761506637044139300,7.58013916015625,-0.028880521655082703,-0.004826175048947334,-0.03371892869472504
1761506637054110000,7.59010986328125,-0.02013256959617138,0.00858523789793253,-0.03325767070055008
1761506637064082200,7.600082275390625,-0.013688070699572563,0.024919122457504272,-0.023784039542078972
1761506637074054000,7.610053955078125,-0.00482373870909214,0.020295875146985054,-0.012525261379778385
1761506637084026000,7.620026123046875,-0.005480531137436628,0.005488236900418997,-0.009143365547060966
1761506637093998000,7.629998046875,-0.0017257402651011944,-0.010347184725105762,-0.005961420480161905
1761506637103970000,7.639969970703125,0.004543287679553032,-0.011667080223560333,-0.0012361331610009074
1761506637113942300,7.6499423828125,0.008451743051409721,-0.002877849154174328,0.010867933742702007
1761506637123913000,7.659912841796875,0.015915293246507645,0.007444736547768116,0.01522741187363863
1761506637133885200,7.66988525390625,0.02226240560412407,0.016739435493946075,0.023654451593756676
1761506637143857000,7.67985693359375,0.02394837699830532,0.013967449776828289,0.02467237412929535
1761506637153829000,7.6898291015625,0.030176445841789246,0.007816879078745842,0.01792951673269272
1761506637163800800,7.69980078125,0.03055335395038128,-0.005192392971366644,0.005327283404767513
1761506637173773000,7.70977294921875,0.030470795929431915,-0.006780968047678471,-0.000422215205617249
1761506637183745000,7.7197451171875,0.031321100890636444,-0.0028753504157066345,0.006417964585125446
1761506637193717000,7.729717041015625,0.03509240597486496,0.007561311591416597,0.01742107979953289
1761506637203689200,7.739689208984375,0.0394761860370636,0.012623055838048458,0.03062490001320839
1761506637213660000,7.749659912109375,0.040251702070236206,0.004916134290397167,0.032772473990917206
1761506637223632100,7.759632080078125,0.03838253766298294,-0.00898720696568489,0.028774814680218697
1761506637233603800,7.769603759765625,0.033576592803001404,-0.016722358763217926,0.021651390939950943
1761506637243576000,7.779576171875,0.02498478814959526,-0.013573889620602131,0.008828036487102509
1761506637253548000,7.789548095703125,0.016813410446047783,-0.006044866982847452,-0.00013642909470945597
1761506637263520000,7.79952001953125,0.011547975242137909,0.006509967148303986,-0.005529531743377447
1761506637273492200,7.8094921875,0.0077953157015144825,0.01797833852469921,0.0013725823955610394
1761506637283464000,7.8194638671875,0.001998096238821745,0.0173769723623991,0.003494630102068186
1761506637293435100,7.82943505859375,-0.003121298272162676,0.011512957513332367,0.011021789163351059
1761506637303406800,7.83940673828125,-0.00539202569052577,0.006115925498306751,0.023536143824458122
1761506637313379000,7.849379150390625,-0.004757927265018225,0.0017374223098158836,0.02924596145749092
1761506637323351000,7.85935107421875,-0.009723646566271782,-0.00228143110871315,0.028859080746769905
1761506637333323000,7.869322998046875,-0.012851530686020851,-0.0019983374513685703,0.022523952648043633
1761506637343295000,7.879294921875,-0.01942126452922821,-0.00024249067064374685,0.007347299251705408
1761506637353267000,7.889266845703125,-0.028344187885522842,0.0021452996879816055,-0.004408958833664656
1761506637363239200,7.8992392578125,-0.03187771514058113,0.0061935014091432095,-0.01218243595212698
1761506637373209900,7.9092099609375,-0.03205481171607971,0.013119850307703018,-0.01769118383526802
1761506637383182000,7.91918212890625,-0.0309103112667799,0.012900847010314465,-0.009535076096653938
1761506637393154000,7.929154052734375,-0.03536950796842575,0.011590838432312012,-0.0064178453758358955
1761506637403126000,7.9391259765625,-0.03193823620676994,0.0021582203917205334,-0.006266618613153696
1761506637413098000,7.949097900390625,-0.019005129113793373,-0.008402811363339424,-0.003960321191698313
1761506637423070000,7.959070068359375,-0.008822975680232048,-0.01551826298236847,-0.005551168229430914
1761506637433042200,7.969042236328125,-0.0059180003590881824,-0.021582547575235367,-0.009487586095929146
1761506637443014100,7.97901416015625,-0.006578323431313038,-0.02632349357008934,-0.015072682872414589
1761506637452985000,7.988985107421875,-0.009942428208887577,-0.02150663360953331,-0.016513720154762268
1761506637462956000,7.9989560546875,-0.014890654012560844,-0.006505806464701891,-0.01665855199098587
1761506637472928000,8.008927978515626,-0.008111046627163887,0.002612857613712549,-0.009380131959915161
1761506637482900200,8.018900146484375,-0.004501720424741507,0.01020027231425047,-0.004813929088413715
1761506637492872000,8.028871826171875,-0.005252199713140726,0.018032895401120186,0.008459266275167465
1761506637502844200,8.03884423828125,-0.0023558642715215683,0.01960115134716034,0.016793806105852127
1761506637512815900,8.04881591796875,-0.010753610171377659,0.0046304562129080296,0.010838446207344532
1761506637522788600,8.05878857421875,-0.005084680393338203,-0.003393129911273718,0.007194357458502054
1761506637532760600,8.068760498046874,-0.0024084700271487236,-0.015072689391672611,-0.006842099130153656
1761506637542731500,8.0787314453125,-0.0024461522698402405,-0.01088875625282526,-0.0164025891572237
1761506637552703700,8.088703857421875,0.0004809284582734108,0.006520061753690243,-0.0152182811871171
1761506637562675500,8.098675537109376,-0.0013023088686168194,0.018000975251197815,-0.00920549314469099
1761506637572647700,8.108647705078125,-0.004338046070188284,0.014419821090996265,-0.005519145634025335
1761506637582619600,8.11861962890625,-0.007969841361045837,-0.00159340666141361,-0.011041359975934029
1761506637592591600,8.128591552734376,-0.005166863556951284,-0.02302386239171028,-0.019093427807092667
1761506637602563600,8.1385634765625,0.0026301145553588867,-0.03168455511331558,-0.032119330018758774
1761506637612535600,8.14853564453125,0.009737025946378708,-0.027979565784335136,-0.0352322980761528
1761506637622506500,8.158506591796876,0.010092820972204208,-0.020149502903223038,-0.03552161157131195
1761506637632478500,8.168478515625,0.010290427133440971,-0.011077179573476315,-0.026062864810228348
1761506637642450700,8.17845068359375,0.009833215735852718,-0.009038016200065613,-0.01422104798257351
1761506637652422700,8.188422607421876,0.011262267827987671,-0.013981375843286514,-0.001891677500680089
1761506637662394600,8.19839453125,0.017715131863951683,-0.019526466727256775,0.0010090171126648784
1761506637672366600,8.20836669921875,0.02113329991698265,-0.023542512208223343,0.01905699446797371
1761506637682338600,8.218338623046876,0.019102560356259346,-0.02149812877178192,0.03477651998400688
1761506637692310500,8.228310546875,0.016403714194893837,-0.020242981612682343,0.03981948271393776
1761506637702281500,8.238281494140624,0.004165061749517918,-0.015291839838027954,0.03646858409047127
1761506637712253700,8.248253662109375,-0.0065839895978569984,-0.0033217305317521095,0.026516882702708244
1761506637722225700,8.2582255859375,-0.013798605650663376,0.00818033330142498,0.006605919916182756
1761506637732197600,8.26819775390625,-0.019618678838014603,0.021731296554207802,-0.005555405281484127
1761506637742169600,8.278169677734375,-0.011483786627650261,0.030048614367842674,-0.007260094862431288
1761506637752141600,8.2881416015625,-0.008025938645005226,0.03081214241683483,-0.0006266931304708123
1761506637762113500,8.298113525390624,-0.003944994416087866,0.02856195718050003,0.011149507015943527
1761506637772085800,8.308085693359375,-0.007447850424796343,0.01809093914926052,0.02277287282049656
1761506637782056400,8.318056396484375,-0.008512299507856369,0.00007894029840826988,0.016416875645518303
1761506637792028700,8.328028564453126,-0.002352142706513405,-0.011715667322278023,0.000008341739885509014
1761506637802000600,8.338000732421875,0.0008271965198218822,-0.017116624861955643,-0.019593534991145134
1761506637811972600,8.34797265625,0.005153767764568329,-0.005127607844769955,-0.04321897029876709
1761506637821944600,8.357944580078126,0.0054946644231677055,0.01185176707804203,-0.05186058580875397
1761506637831916500,8.36791650390625,0.008944789879024029,0.023241043090820312,-0.04292328283190727
1761506637841889500,8.3778896484375,0.009131073951721191,0.029604287818074226,-0.02777947671711445
1761506637851861500,8.387861572265624,0.018774647265672684,0.024282226338982582,-0.007936528883874416
1761506637861833500,8.39783349609375,0.021932493895292282,0.012719692662358284,0.009290385991334915
1761506637871805700,8.4078056640625,0.028034593909978867,0.012657906860113144,0.013481935486197472
1761506637881777400,8.41777734375,0.03557022288441658,0.02265378274023533,0.011198582127690315
1761506637891749600,8.42774951171875,0.03399283066391945,0.02493930794298649,0.0015861679567024112
1761506637901720600,8.437720458984375,0.0339924655854702,0.02144220471382141,-0.0037539382465183735
1761506637911692500,8.447692626953126,0.03597971796989441,0.013786416500806808,-0.002541134599596262
1761506637921664500,8.45766455078125,0.03144100308418274,0.0030501128640025854,0.002241648267954588
1761506637931636500,8.467636474609375,0.029710745438933372,-0.0026927278377115726,0.01779477670788765
1761506637941608700,8.477608642578126,0.036019887775182724,-0.007585624698549509,0.03412991017103195
1761506637951580400,8.487580322265625,0.03466353937983513,-0.014154044911265373,0.04826996475458145
1761506637961552600,8.497552734375,0.03077319636940956,-0.015959402546286583,0.056053582578897476
1761506637971524400,8.5075244140625,0.02403007075190544,-0.019084088504314423,0.058328721672296524
1761506637981495600,8.51749560546875,0.010276875458657742,-0.01837126724421978,0.05394629016518593
1761506637991467500,8.527467529296874,-0.0030213533900678158,-0.010541040450334549,0.04524601250886917
1761506638001439500,8.537439453125,-0.01851532608270645,0.00008875248022377491,0.04082630202174187
1761506638011411700,8.54741162109375,-0.024384135380387306,0.006264889612793922,0.037742361426353455
1761506638021383400,8.557383544921874,-0.02898229844868183,0.0029383643995970488,0.03690182790160179
1761506638031355600,8.567355712890626,-0.04194789379835129,-0.011470668949186802,0.03141145408153534
1761506638041327400,8.577327392578125,-0.04921918734908104,-0.027989337220788002,0.029374632984399796
1761506638051299600,8.587299560546874,-0.05999353900551796,-0.033470384776592255,0.031414344906806946
1761506638061271600,8.597271484375,-0.07051263749599457,-0.03417178988456726,0.026265745982527733
1761506638071242500,8.607242431640625,-0.08153679221868515,-0.021020565181970596,0.01884964108467102
1761506638081214700,8.617214599609374,-0.10038942098617554,-0.00446019321680069,0.014672993682324886
1761506638091186400,8.6271865234375,-0.11328205466270447,0.011829564347863197,0.013262583874166012
1761506638101158700,8.63715869140625,-0.12150562554597855,0.01640940271317959,0.010888641700148582
1761506638111130400,8.64713037109375,-0.13428425788879395,0.015651732683181763,0.006261666305363178
1761506638121102600,8.6571025390625,-0.14340664446353912,0.013848534785211086,0.005641585681587458
1761506638131074600,8.667074462890625,-0.14666102826595306,0.00042939861305058,-0.010132582858204842
1761506638141046500,8.677046630859374,-0.15397930145263672,-0.01280231773853302,-0.029430007562041283
1761506638151017700,8.687017822265625,-0.15342164039611816,-0.020883146673440933,-0.05139202997088432
1761506638160989400,8.696989501953125,-0.14499782025814056,-0.026079440489411354,-0.06745611131191254
1761506638170961700,8.706961669921874,-0.13465596735477448,-0.02039865218102932,-0.07849891483783722
1761506638180933400,8.716933349609375,-0.12798769772052765,-0.012502376921474934,-0.074913389980793
1761506638190905600,8.726905517578125,-0.12087732553482056,-0.0011253530392423272,-0.06258508563041687
1761506638200877600,8.736877685546874,-0.11048594117164612,0.007978505454957485,-0.040037255734205246
1761506638210849500,8.746849609375,-0.09524014592170715,0.016254277899861336,-0.010715320706367493
1761506638220821500,8.756821533203125,-0.07840074598789215,0.02087927982211113,0.013969557359814644
1761506638230792400,8.76679248046875,-0.05613432079553604,0.01859561912715435,0.034434352070093155
1761506638240764700,8.7767646484375,-0.035369496792554855,0.009172280319035053,0.05159333720803261
1761506638250736400,8.786736328125,-0.021565265953540802,0.0035578040406107903,0.060179635882377625
1761506638260708600,8.79670849609375,-0.01343207061290741,0.0008399440557695925,0.05945904552936554
1761506638270680600,8.8066806640625,-0.009513761848211288,0.007128200028091669,0.05183574929833412
1761506638280652500,8.816652587890625,-0.008411767892539501,0.016181636601686478,0.04532869532704353
1761506638290624500,8.82662451171875,-0.0013780929148197174,0.029439652338624,0.0330299511551857
1761506638300596500,8.836596435546875,0.010790864937007427,0.03962226212024689,0.03463544324040413
1761506638310568400,8.846568359375,0.023436885327100754,0.03742648661136627,0.03224632143974304
1761506638320539400,8.856539306640625,0.031689323484897614,0.02902059070765972,0.033845216035842896
1761506638330511600,8.86651171875,0.03938132897019386,0.013960679993033409,0.03748789057135582
1761506638340483600,8.876483642578124,0.042573507875204086,-0.0072882832027971745,0.028408214449882507
1761506638350455600,8.88645556640625,0.04138174653053284,-0.022674962878227234,0.017631733790040016
1761506638360427500,8.896427490234375,0.04075165092945099,-0.023538503795862198,-0.002146688289940357
1761506638370399500,8.9063994140625,0.04280494898557663,-0.013606245629489422,-0.015518952161073685
1761506638380371500,8.916371337890626,0.052996981889009476,0.008686674758791924,-0.01732846535742283
1761506638390343700,8.92634375,0.056966155767440796,0.024279749020934105,-0.010022083297371864
1761506638400314600,8.936314697265624,0.058807309716939926,0.025495177134871483,0.0033643082715570927
1761506638410286600,8.94628662109375,0.05566158518195152,0.017072131857275963,0.017213277518749237
1761506638420258600,8.956258544921875,0.05266362428665161,0.012672148644924164,0.032834965735673904
1761506638430230500,8.96623046875,0.050954669713974,0.011058807373046875,0.04387696459889412
1761506638440202500,8.976202392578125,0.05427270382642746,0.014237554743885994,0.04936520755290985
1761506638450174500,8.986174560546875,0.06052820384502411,0.013919839635491371,0.051247794181108475
1761506638460146700,8.996146728515624,0.05461190640926361,0.017345119267702103,0.0400044284760952
1761506638470118400,9.006118408203125,0.05754351243376732,-0.04746530205011368,0.13661885261535645
1761506638480089600,9.016089599609375,0.056347042322158813,-0.15443268418312073,0.20166979730129242
1761506638490061600,9.0260615234375,0.01967291533946991,-0.19384853541851044,0.16171705722808838
1761506638500033500,9.036033447265625,0.012228763662278652,-0.12046654522418976,0.05414954200387001
1761506638510005500,9.046005615234375,0.043015703558921814,0.013068081811070442,-0.08791651576757431
1761506638519977200,9.055977294921876,0.0841294527053833,0.17223365604877472,-0.20863494277000427
1761506638529949200,9.06594921875,0.07796769589185715,0.25325608253479004,-0.2579614818096161
1761506638539921400,9.07592138671875,0.03290260210633278,0.19699501991271973,-0.20661377906799316
