time,seconds_elapsed,z,y,x
1761506766645819400,0.0708193359375,0.10161562339067458,-0.021496815406531096,-0.35142387589719143
1761506766655791600,0.08079150390625,0.13459844006001948,0.014940817891806363,-0.4390482006732374
1761506766665763300,0.090763427734375,0.16690028872787951,0.020146569841355086,-0.5111424729600549
1761506766675735600,0.100735595703125,0.25036650744378564,0.005243161350488662,-0.49162579852007326
1761506766685706500,0.11070654296875,0.34318799900412555,0.00004756546877324581,-0.43527715770192443
1761506766695678500,0.120678466796875,0.3872854994058609,0.016956030171737073,-0.3248979437496513
1761506766705650700,0.130650634765625,0.3666711659222841,0.03621332302317023,-0.1948830503539182
1761506766715622400,0.140622314453125,0.3031780601769686,0.07125599483177066,-0.07306528187659568
1761506766725594600,0.1505947265625,0.2516501175135374,0.09128931355699896,0.01443252130979672
1761506766735565300,0.1605654296875,0.2663789000898599,0.06169665078260004,0.08370002747178078
1761506766745537500,0.17053759765625,0.2983177606642246,0.02161108943596482,0.13394627802791073
1761506766755509500,0.180509521484375,0.3505406998544931,-0.01598908483572304,0.14244632228249682
1761506766765481500,0.1904814453125,0.38349312138557434,-0.0646565965667367,0.1330186326558236
1761506766775453400,0.200453369140625,0.38138825806081295,-0.09415369001217186,0.12730622809207998
1761506766785424400,0.21042431640625,0.30950200250148774,-0.09945216174647212,0.15438662491776048
1761506766795396600,0.220396728515625,0.20759236460030078,-0.07566007500961422,0.18574227877669036
1761506766805368300,0.230368408203125,0.09039046502113342,-0.05874306167401373,0.2394266870879568
1761506766815340500,0.240340576171875,-0.04764613279402256,-0.038017742096632716,0.27370851232558485
1761506766825312300,0.250312255859375,-0.16999650117754936,-0.015130568310245871,0.2717015198847279
1761506766835283500,0.260283447265625,-0.2758323726117611,-0.0035357729107141495,0.3040945174347609
1761506766845255400,0.27025537109375,-0.3162672588527202,-0.013011165003478526,0.3339456119496375
1761506766855227400,0.280227294921875,-0.30399405273497104,0.007892506815493106,0.34677477144971486
1761506766865199600,0.29019970703125,-0.3295417509675026,0.023558497176691888,0.33110176682583986
1761506766875171300,0.30017138671875,-0.31280338213443754,0.018955971817299723,0.27802478635581207
1761506766885142500,0.310142578125,-0.24861527986228465,-0.0034767361998558045,0.222409062922094
1761506766895114500,0.320114501953125,-0.1151303540021181,-0.035795609067752955,0.19723659121012313
1761506766905086500,0.33008642578125,-0.03491115438342094,-0.08445954060219228,0.17318912320639937
1761506766915058400,0.340058349609375,-0.05686170490682125,-0.11155125340633093,0.1546806211619638
1761506766925030400,0.350030517578125,-0.11491466542482376,-0.10606624612398445,0.1650324672956951
1761506766935001300,0.36000146484375,-0.1470627848356962,-0.08710033743456005,0.17208390191085635
1761506766944973600,0.3699736328125,-0.15789514449536798,-0.0796800512406975,0.15413149937922135
1761506766954945500,0.379945556640625,-0.18627075963020323,-0.06037921150848269,0.08976241451697424
1761506766964917500,0.38991748046875,-0.21126608467698096,-0.08074636529795826,0.007067940508679021
1761506766974889500,0.399889404296875,-0.23390286389887333,-0.0889247033175081,-0.08783456999324261
1761506766984860400,0.4098603515625,-0.27496201951801774,-0.05864098953902721,-0.16978733367258683
1761506766994832600,0.41983251953125,-0.2784071915358305,-0.02666391584612429,-0.1696890061309561
1761506767004804400,0.429804443359375,-0.19845511842072008,0.021671733582019806,-0.009250643426179886
1761506767014776600,0.439776611328125,-0.17521686617434024,0.03654693889170885,0.05356736693601124
1761506767024748500,0.44974853515625,-0.09672083708643912,0.040503129171580075,0.02631761402594857
1761506767034719500,0.459719482421875,-0.03599602701067924,0.07191562778428197,-0.0683564922642894
1761506767044691500,0.46969140625,-0.026245617368817326,0.11616685744300484,-0.0614950866287807
1761506767054663400,0.479663330078125,-0.07800795331001281,0.1401909263048321,-0.051404567445511924
1761506767064635400,0.489635498046875,-0.06600362726151943,0.15086334616243838,-0.0951618441414088
1761506767074607400,0.499607421875,0.007270867785811424,0.16058029192611575,-0.11516399141023866
1761506767084578600,0.50957861328125,0.08003624426722526,0.14234825046919286,-0.07740504638026469
1761506767094550300,0.51955029296875,0.1523182211458683,0.11642236657403408,-0.0441626197935082
1761506767104522500,0.5295224609375,0.16515198375582693,0.13467260127477346,-0.04129417908457107
1761506767114494500,0.539494384765625,0.10300386287868023,0.14379019290581344,-0.03486091518366011
1761506767124466400,0.549466552734375,0.05095218860208988,0.15187515355348585,-0.03635421563147102
1761506767134437600,0.559437744140625,0.026331542086601257,0.13776486820168793,-0.02796651831071358
1761506767144409300,0.569409423828125,0.03393850995898247,0.12890870398581028,-0.04572412435603328
1761506767154381600,0.579381591796875,0.06137421389520168,0.1049958404134959,-0.051152976437774486
1761506767164353300,0.589353271484375,0.1542874753922224,0.04180741670317947,-0.05617200560960919
1761506767174325500,0.599325439453125,0.20563655435740946,-0.0048130263049155474,-0.09489504643138498
1761506767184296400,0.60929638671875,0.12819091110527514,-0.01750270426906645,-0.1625500210965052
1761506767194268400,0.619268310546875,0.01476911458671093,-0.012858093333616852,-0.18799155554082245
1761506767204240600,0.62924072265625,-0.07490940277278423,0.009804185655713081,-0.11087066899733618
1761506767214212400,0.63921240234375,-0.10546177742481232,0.02632737736813724,-0.024809232456726022
1761506767224184600,0.6491845703125,-0.03391337551772594,0.018566607173532246,0.03224336907942779
1761506767234156300,0.65915625,0.0798205556899309,-0.00815999864526093,0.05894627436222508
1761506767244127500,0.66912744140625,0.1765817247867584,-0.039749461260065434,0.06309558062797878
1761506767254099700,0.679099609375,0.17169570631086825,-0.03928096696548164,0.060182442260789684
1761506767264071400,0.689071533203125,0.05902151328921318,-0.006190013746544719,0.045259776513604445
1761506767274043600,0.699043701171875,-0.0561971035182476,-0.0021421265952289103,0.03475763975556474
1761506767284015400,0.709015380859375,-0.03855857097506523,0.002911941923946142,0.09296186814540996
1761506767293986600,0.718986572265625,0.0018120178580284117,-0.03793671274967492,0.0924112485253252
1761506767303958500,0.72895849609375,0.09724690678715706,-0.06381904976405203,0.12189694379391149
1761506767313930500,0.738930419921875,0.16885609897077083,-0.07884148152470588,0.14465122104878536
1761506767323902700,0.74890283203125,0.19342180042862891,-0.08600538180470466,0.16838789693713188
1761506767333874400,0.75887451171875,0.1714975533902645,-0.05705810426175594,0.1547185054869391
1761506767343845600,0.768845703125,0.111723175907135,-0.02371134965084493,0.14777157242586836
1761506767353817300,0.7788173828125,0.0435965651422739,0.008828253295645117,0.14599234259258956
1761506767363789600,0.78878955078125,0.02263970183134079,0.0012526304095983505,0.11625777799631468
1761506767373761500,0.798761474609375,0.002618658065795898,0.004860153382271528,0.08729012438561767
1761506767383733500,0.8087333984375,0.0014046061009168624,-0.006553001840040087,0.08755809113942087
1761506767393704400,0.818704345703125,0.06431085186898708,-0.028628274721652268,0.08774406043188646
1761506767403676400,0.828676513671875,0.15315233388245106,-0.03462481172271073,0.0820117821238935
1761506767413648600,0.838648681640625,0.21858137612640857,-0.04313384300135076,0.09334833757919259
1761506767423620400,0.848620361328125,0.2807201446533203,-0.06243526725545525,0.0795465153883677
1761506767433592600,0.858592529296875,0.2931161003679037,-0.07310849083065986,0.015393826922890728
1761506767443563500,0.8685634765625,0.3112736883491278,-0.09757511582821607,-0.009524208803707733
1761506767453535500,0.878535400390625,0.36172377264797684,-0.12573548077717422,-0.018073225032864137
1761506767463507500,0.888507568359375,0.3492997598826885,-0.11142309698201715,-0.03202667585513554
1761506767473479400,0.8984794921875,0.2646563140809536,-0.08481500297635793,-0.04407721566553227
1761506767483451600,0.90845166015625,0.11952362052500247,-0.0254353238992393,-0.09922902964823879
1761506767493422600,0.918422607421875,-0.029161797076463696,-0.0040640345685184,-0.19841210126290096
1761506767503394600,0.92839453125,-0.156906717979908,0.006439896854385733,-0.2758020870713517
1761506767513366500,0.938366455078125,-0.27539924189150333,0.05463686846420168,-0.29345497693344946
1761506767523338500,0.94833837890625,-0.3482289157807827,0.08122793826982379,-0.21815383489672094
1761506767533310500,0.958310546875,-0.35929683776199817,0.09762063547037542,-0.13721837676744908
1761506767543281700,0.96828173828125,-0.3587900572836399,0.1201003244344145,-0.08064659471791237
1761506767553253400,0.97825341796875,-0.3493254788458347,0.10641798217110335,-0.044173287317994976
1761506767563225600,0.9882255859375,-0.35326690994799137,0.07769647620804608,-0.020839557074196637
1761506767573197600,0.998197509765625,-0.30600948421061036,0.0758482910580933,-0.031243909713299944
1761506767583169500,1.00816943359375,-0.3078115651965141,0.057748278483003374,-0.0075593567378353325
1761506767593140500,1.018140380859375,-0.33285482103824615,0.0905294351004064,-0.027720156033942473
1761506767603112400,1.028112548828125,-0.35303076310455794,0.11922266481705009,-0.03951387153905816
1761506767613084700,1.038084716796875,-0.3118897744208574,0.12476232489608227,-0.04844070810466073
1761506767623056400,1.048056396484375,-0.20379823301434516,0.08913630024157464,-0.07997813000497407
1761506767633028600,1.058028564453125,-0.07535831558406353,0.052462154773622746,-0.08156280538053251
1761506767642999300,1.067999267578125,0.017492986592650413,0.02727474122084677,-0.06756313166320324
1761506767652971300,1.07797119140625,0.08093056275844573,0.014134031553566455,-0.0377816500521265
1761506767662943500,1.087943603515625,0.12348141824007033,-0.010865458211675286,0.0035890374679118393
1761506767672915500,1.09791552734375,0.16416706437170506,-0.018466434734687207,0.02349793522902764
1761506767682887400,1.107887451171875,0.18900749111771584,-0.04387801243215799,0.02247053754320368
1761506767692858400,1.1178583984375,0.1978612441807985,-0.052329760565608736,0.010201751872245222
1761506767702830300,1.127830322265625,0.19538053328096866,-0.04429696849659085,-0.025800951474392785
1761506767712802300,1.13780224609375,0.1693143641322851,-0.0433265160292387,-0.07470908529455773
1761506767722774300,1.147774169921875,0.0808802938759327,-0.011611965730041265,-0.11700674233324825
1761506767732746200,1.157746337890625,0.02506955932676792,0.008440496087074279,-0.11630003710230812
1761506767742717200,1.16771728515625,0.06185176827907562,0.0013577712845057248,-0.0787324590591248
1761506767752689400,1.177689453125,0.10702946513295172,-0.026607290288060904,-0.05150157524631358
1761506767762661400,1.187661376953125,0.12927812182009218,-0.028679420386999843,-0.04087994486102834
1761506767772633300,1.19763330078125,0.13470891469717025,-0.03321998642608523,-0.019769448191230183
1761506767782605300,1.207605224609375,0.15095102444589137,-0.027981135924533006,-0.015585545536130665
1761506767792576300,1.217576171875,0.1520697993427515,-0.015539295241609215,0.000605500745633617
1761506767802548500,1.227548583984375,0.10541501567363738,0.0030088994923979043,0.030222658640472216
1761506767812520200,1.237520263671875,0.08858195429444313,0.027374621398746964,0.05432447804678231
1761506767822492400,1.247492431640625,0.1134656356602907,0.040162499040365215,0.05329256858262233
1761506767832464400,1.25746435546875,0.13061316981613635,0.01898578243367374,0.06597576200705953
1761506767842435300,1.267435302734375,0.15012860214710236,0.008527297587692738,0.06331232408462092
1761506767852407600,1.277407470703125,0.14276011920571327,0.0057281683884561055,0.06296441482924856
1761506767862379300,1.287379150390625,0.12613514761924743,0.0009805354699492454,0.05712534254537895
1761506767872351500,1.2973515625,0.09243570711314678,0.021700375154614447,0.0535137735852506
1761506767882323200,1.3073232421875,0.021819033098220825,0.038305180735886096,0.04662832492045126
1761506767892294400,1.31729443359375,-0.06356324837207794,0.059254810588434334,0.04094144295703154
1761506767902266400,1.327266357421875,-0.1375958683103323,0.07846789897195994,0.035642879891186016
1761506767912238300,1.33723828125,-0.1539163039922714,0.07700089515931904,0.05688352857956197
1761506767922210600,1.34721044921875,-0.11989479192495345,0.041092546432092786,0.06895264065968804
1761506767932182300,1.357182373046875,-0.07972469410002231,-0.0029406565617769954,0.06234923750639427
1761506767942153500,1.367153564453125,-0.0405552977502346,-0.020352540742233395,0.045533862480940296
1761506767952125200,1.377125244140625,-0.04542611865699291,-0.04003821507357061,-0.0008023613248718902
1761506767962097400,1.387097412109375,-0.05622282248139381,-0.022350655756890773,-0.0320829086875543
1761506767972069400,1.3970693359375,-0.08392740648686885,0.004687719424813985,-0.05641534937880933
1761506767982041300,1.407041259765625,-0.07888648971021175,0.0016221213091164827,-0.06169117088988423
1761506767992012300,1.41701220703125,-0.04427870218753814,-0.005377747515588998,-0.05860250699243042
1761506768001984300,1.426984375,0.0029828152030706404,-0.022158932577073572,-0.06983241003574803
1761506768011956500,1.43695654296875,0.050473465174436564,-0.03761851364597678,-0.06478270259785932
1761506768021928200,1.44692822265625,0.14584522573947906,-0.05924070899784565,-0.06557462472710758
1761506768031900400,1.456900390625,0.2446469607532024,-0.08815605703257023,-0.06854300954602659
1761506768041871400,1.466871337890625,0.323470322099328,-0.09711560855768621,-0.05813815915000159
1761506768051843300,1.47684326171875,0.39014322692453857,-0.10989135737009346,-0.04744624000748154
1761506768061815300,1.486815185546875,0.4468804286688566,-0.1519376243304461,-0.08609251209888606
1761506768071787300,1.496787353515625,0.49049219138026234,-0.15191504717245696,-0.12679408645201473
1761506768081759500,1.506759521484375,0.44502632523477076,-0.10711173658892512,-0.12389250152530148
1761506768091730400,1.51673046875,0.23215163631737232,-0.04705035885795951,-0.19196701677674427
1761506768101702400,1.526702392578125,-0.023117256215214727,-0.02344765721336007,-0.2688188771205023
1761506768111674400,1.53667431640625,-0.13607611139714718,-0.006395546256005764,-0.25688865748783574
1761506768121646300,1.546646240234375,-0.16412264070808885,0.03611205460578203,-0.1610449685621075
1761506768131618300,1.556618408203125,-0.17795184409618375,0.012792773012444376,-0.0848352329136338
1761506768141589500,1.566589599609375,-0.21446517297923565,0.008950345305353402,-0.06305642222794704
1761506768151561200,1.576561279296875,-0.2774818933844566,0.058841992003843185,-0.06904647468929179
1761506768161533400,1.586533447265625,-0.32090719361305237,0.07589395683072507,-0.03895340637839399
1761506768171505400,1.59650537109375,-0.2849725414007902,0.06478511831723154,0.006760561909805983
1761506768181477400,1.606477294921875,-0.24895371803641317,0.066700085093081,0.036175968421157445
1761506768191448600,1.616448486328125,-0.250063725104928,0.06256473885402083,0.07498092450588009
1761506768201420300,1.626420166015625,-0.27754677531421185,0.08389240823872388,0.11655127191701903
1761506768211392500,1.636392578125,-0.27001579528748987,0.10801409225612878,0.14735866250973195
1761506768221364200,1.6463642578125,-0.21939152346551416,0.0977765566844493,0.16122282761335371
1761506768231336400,1.65633642578125,-0.1128694233328104,0.04162899139635265,0.1794572254241444
1761506768241307100,1.66630712890625,-0.029739304703474044,0.009433379581943154,0.18252342632804064
1761506768251279400,1.676279296875,0.045505613633990284,-0.013716755989566445,0.1734639946250245
1761506768261251300,1.686251220703125,0.10711772793829441,-0.036991321658343075,0.1730550484979525
1761506768271223300,1.696223388671875,0.14539280579686165,-0.02112812822461128,0.15347710885740815
1761506768281195500,1.706195556640625,0.15609890872836113,-0.012249167655035852,0.14232034868211485
1761506768291166200,1.716166259765625,0.1863952627927065,-0.020723127620294688,0.1320144149161875
1761506768301138400,1.726138427734375,0.20919161649048326,-0.034072803863137956,0.1312473486669827
1761506768311110100,1.736110107421875,0.1861380731612444,-0.05689626476354897,0.09266328705763444
1761506768321082400,1.746082275390625,0.11673369754552841,-0.05934036998003721,0.048249432449415326
1761506768331054300,1.756054443359375,0.1110433769494295,-0.07077288748994469,0.02160150875686668
1761506768341025300,1.766025390625,0.13177110767960548,-0.08208229007683694,-0.0028603761334903537
1761506768350997500,1.77599755859375,0.14399872108995915,-0.07098784541487693,-0.024665362440049646
1761506768360969200,1.78596923828125,0.16081716942191124,-0.07243380643948912,-0.04371611813502386
1761506768370941400,1.79594140625,0.15322539911866187,-0.08732318640500307,-0.06934711073683575
1761506768380913200,1.8059130859375,0.08766951562464237,-0.06964505250379442,-0.11005964487539603
1761506768390884400,1.81588427734375,-0.033303134664893146,-0.05309073500074446,-0.12654052268289961
1761506768400856300,1.825856201171875,-0.22149404870271683,0.00470766623429954,-0.1557424234408885
1761506768410828300,1.835828369140625,-0.4129232140094042,0.08014964151382446,-0.15933381726266815
1761506768420800500,1.845800537109375,-0.4705255081504583,0.0982382559120655,-0.13452668086490593
1761506768430772200,1.855772216796875,-0.3915191914528608,0.09042363663837313,-0.08833970650378614
1761506768440743400,1.865743408203125,-0.23679975438416004,0.04266184157542884,-0.04756162371519022
1761506768450715400,1.87571533203125,-0.03710252694785595,-0.0532928334441036,-0.007248117097886279
1761506768460687400,1.885687255859375,0.03397241222858429,-0.09863061623051762,0.021081887063244355
1761506768470659300,1.895659423828125,0.006436755049228668,-0.07280505090467632,0.01695443186969496
1761506768480631300,1.90563134765625,-0.10857377196550369,-0.024144115044921637,0.043181536334287375
1761506768490602200,1.915602294921875,-0.2242354563653469,0.021668007254973053,0.0673953099487815
1761506768500574500,1.925574462890625,-0.27614158469140526,0.009270371039956808,0.10540248498562722
1761506768510546400,1.93554638671875,-0.36771804462671276,0.0011574994720518587,0.1989794162894599
1761506768520518400,1.945518310546875,-0.4893003512471914,0.07790566197931766,0.14365516834929584
1761506768530490400,1.955490478515625,-0.4517085794776678,0.06590761954113841,0.07260185648277402
1761506768540461300,1.96546142578125,-0.21131927616894244,0.03525894490778446,0.13072605560608208
1761506768550433300,1.975433349609375,0.014015081349015236,0.01132043543756008,0.15128747159233316
1761506768560405200,1.9854052734375,0.05207856228351593,0.05827602868415415,0.09225977515750564
1761506768570377500,1.99537744140625,-0.0900643018066883,0.08946472847834229,0.0011854743243660778
1761506768580349400,2.005349365234375,-0.18887246656119822,0.1314174719363451,-0.04592872528373264
1761506768590320400,2.0153203125,-0.09331424351334572,0.159013188739866,-0.007951634857896715
1761506768600292400,2.025292236328125,0.1595686306655407,0.09516147881522774,0.07857033643312752
1761506768610264300,2.035264404296875,0.4503478125184774,-0.014483794839307665,0.16660433798860758
1761506768620236300,2.045236328125,0.616380670762062,-0.07058057978823781,0.1819672354836948
1761506768630208300,2.055208251953125,0.6273889715105295,-0.1294902302008122,0.2089919291999191
1761506768640179500,2.065179443359375,0.3617641046583652,-0.07757197304554284,-0.03880761383268982
1761506768650151200,2.075151123046875,0.0583452214628458,0.029923867490142583,-0.09251222468176856
1761506768660123400,2.085123291015625,-0.1117711067020893,0.050120121692121024,-0.12073308764630927
1761506768670095400,2.095095458984375,-0.11837795762121676,0.0629668899141252,-0.09407200307808816
1761506768680067300,2.1050673828125,-0.027630349725484848,-0.001116582939773798,-0.0767926592361182
1761506768690038500,2.11503857421875,0.03223521317243576,-0.03512180145941674,-0.06760348193990066
1761506768700010200,2.12501025390625,0.07688742484748363,-0.041045346289500594,-0.09867644639993085
1761506768709982500,2.134982421875,0.17343816606402396,-0.044105391447246074,-0.11740257325042039
1761506768719954200,2.1449541015625,0.2625730780661106,-0.04073839923217892,-0.12756583800949156
1761506768729926400,2.154926513671875,0.28789456632733346,-0.051869157316535706,-0.1608688996091485
1761506768739897300,2.1648974609375,0.16379297036230564,-0.024274390361085533,-0.18112123137991876
1761506768749869300,2.174869384765625,0.05583002377152443,0.019333280697092413,-0.1895518088611774
1761506768759841500,2.184841552734375,0.06827391028106213,0.04586107600815594,-0.14253008244265802
1761506768769813200,2.194813232421875,0.2016045223623514,0.03275989463366568,-0.07887708256104961
1761506768779785500,2.204785400390625,0.34676118131577965,-0.02674808699823916,-0.014320448370603844
1761506768789756400,2.21475634765625,0.49650516805946826,-0.09396781205125153,0.01965135193662718
1761506768799728400,2.224728271484375,0.5309849452883005,-0.12102876439094543,0.01566459298855625
1761506768809700400,2.234700439453125,0.4332821114271879,-0.09643749010041355,-0.007843708370858803
1761506768819672300,2.24467236328125,0.27482231878638264,-0.038891967647895216,-0.03595353044266812
1761506768829644500,2.25464453125,0.132833183953166,0.021760800104960797,-0.04112912471597083
1761506768839615200,2.264615234375,0.02319032145142555,0.035539734610542655,-0.027012884547421706
1761506768849587500,2.27458740234375,-0.07180149988532065,0.02827171636894345,-0.012607543505495413
1761506768859559400,2.284559326171875,-0.13695640136301518,0.047054961967840786,0.006108756070723757
1761506768869531400,2.294531494140625,-0.1666881072819233,0.052243835847824806,0.01639847848736681
1761506768879503400,2.30450341796875,-0.12175298701226711,0.03945603127144277,0.02426365890451707
1761506768889474300,2.314474365234375,-0.01131225213110447,0.01938983318991959,0.036547523413598536
1761506768899446300,2.3244462890625,0.0731283645749092,-0.015058818248286842,0.04680770920850336
1761506768909418200,2.334418212890625,0.11757365550100803,-0.03835091957375407,0.04575496701886877
1761506768919390500,2.344390380859375,0.10664134259819984,-0.037432781815528865,0.03258667522491887
1761506768929362200,2.354362060546875,0.015201660785079002,-0.031310864869132635,0.02002239547241479
1761506768939333400,2.36433349609375,-0.17456278617978094,0.013019202179461717,-0.017754048681631683
1761506768949305300,2.374305419921875,-0.405845822969079,0.06291165259554982,-0.08875201363172382
1761506768959277300,2.38427734375,-0.5396329466462135,0.09169307205229997,-0.10899530357951298
1761506768969249300,2.394249267578125,-0.4942588504374027,0.07507759894654155,-0.05865976730473339
1761506768979221200,2.40422119140625,-0.3459463578015566,0.034573373796418304,0.012544552138727157
1761506768989192200,2.414192138671875,-0.14156243385374545,-0.022347148625552652,0.07186974281594156
1761506768999164400,2.424164306640625,0.02483691961467266,-0.11152188118137418,0.07107934135692194
1761506769009136400,2.434136474609375,0.09099486065506934,-0.13707527850233017,0.020027199511695654
1761506769019108400,2.4441083984375,0.051435003682971,-0.16581790031865237,-0.1939010718455538
1761506769029080300,2.454080322265625,0.12104045482873915,-0.11213723660074174,-0.2325823924174532
1761506769039051300,2.46405126953125,0.0469166494756937,-0.10708630988672375,-0.1133493249373976
1761506769049023500,2.4740234375,-0.06677461163401603,-0.10501184170022607,-0.08230857311338186
1761506769058995200,2.4839951171875,-0.053607087025046345,-0.04083930232338607,-0.08967667246228084
1761506769068967400,2.493967529296875,-0.027866496568918226,-0.06175057292692363,-0.08571069144075735
1761506769078939400,2.503939453125,0.03207973034977913,-0.07606346817873418,-0.016189123752736484
1761506769088910300,2.513910400390625,0.12096505150496958,-0.06274447933509945,-0.0004974098618142306
1761506769098882600,2.523882568359375,0.19743220511376858,-0.04338043817356228,0.005735369880800135
1761506769108854300,2.533854248046875,0.21930793683528899,-0.0256270470790565,0.012352920290455222
1761506769118826500,2.543826416015625,0.16686054123938082,0.012481807367131113,-0.006055911638634279
1761506769128798200,2.553798095703125,0.10172025280892848,0.04711027235165238,-0.003639114554179832
1761506769138769400,2.563769287109375,0.030811902371048926,0.08023731979727744,0.010671059017581865
1761506769148741000,2.5737412109375,-0.03297287979722023,0.11550393655486405,0.04340872811970766
1761506769158713300,2.58371337890625,-0.013092121285200119,0.11452325495444238,0.07459136806586757
1761506769168685300,2.593685302734375,0.024495558831095693,0.10023023344688117,0.09321915824157186
1761506769178657300,2.6036572265625,0.04493044409453869,0.08605813490524887,0.0948955396217294
1761506769188628500,2.61362841796875,0.06798983264267444,0.07504618089497089,0.08560117578483187
1761506769198600200,2.62360009765625,0.08273907348513602,0.05542078538350761,0.052664673342090094
1761506769208572400,2.633572509765625,0.03620879297852516,0.0465446743581444,0.015471897127781993
1761506769218544000,2.643544189453125,-0.03389057916402816,0.05661598651744425,-0.02736344241760671
1761506769228516400,2.653516357421875,-0.06159165603816509,0.054476855596899985,-0.028102972205914557
1761506769238487600,2.663487548828125,-0.0445201097279787,0.044196942188218236,-0.015988267418392932
1761506769248459300,2.673459228515625,-0.02312193239033222,0.01908902361243963,-0.007615703734685666
1761506769258431500,2.683431396484375,-0.02241875255703926,0.014298866726458071,0.00420063916076906
1761506769268403200,2.6934033203125,-0.02581190212666988,0.014785846525803208,0.023432053218851796
1761506769278375400,2.70337548828125,-0.08544950148761273,0.04083637971393764,0.008603673592419363
1761506769288346400,2.713346435546875,-0.13343231889009474,0.06804375478699803,0.009513527579489164
1761506769298318300,2.723318359375,-0.08482114045619964,0.04437354086413979,0.00393575484661851
1761506769308290600,2.73329052734375,0.02100187149643898,0.026154870345443487,-0.001300579470861703
1761506769318262300,2.74326220703125,0.125574591127038,-0.014776713371276855,0.008613099007890559
1761506769328234500,2.753234375,0.17463409785032272,-0.0341068522632122,-0.0009177587323123588
1761506769338205400,2.763205322265625,0.19331834005415438,-0.03164404234625399,-0.02527416482104454
1761506769348177400,2.773177490234375,0.20854922693371772,-0.0451580423053354,-0.0341191911549773
1761506769358149400,2.7831494140625,0.17842296873927116,-0.05575396286062896,-0.05433880796623416
1761506769368121300,2.793121337890625,0.0066571198016405105,-0.017212489150837063,-0.10335121501162647
1761506769378093600,2.803093505859375,-0.18107728264033793,0.01522014628984034,-0.1318016489483416
1761506769388064500,2.813064453125,-0.2772422394096851,0.018308248498290776,-0.11389967969600111
1761506769398036500,2.823036376953125,-0.23889117370545862,0.009613558454439043,-0.07406873243125155
1761506769408008400,2.833008544921875,-0.15940028836131095,-0.019300766666978598,-0.025943131857481785
1761506769417980400,2.84298046875,-0.0449865581959486,-0.04719758530892432,0.009533467539108824
1761506769427952400,2.852952392578125,0.06255261002480983,-0.08307444291934371,0.016115026470064183
1761506769437923300,2.86292333984375,0.124968441927433,-0.10145422228388487,-0.012408025178289971
1761506769447895300,2.872895263671875,0.12619418433010576,-0.10083901299498975,-0.040517486490495504
1761506769457867300,2.8828671875,0.013814590340852737,-0.05183773926496506,-0.05169812986487522
1761506769467839500,2.892839599609375,-0.1096843635559082,0.02155344096459448,-0.03922939660844858
1761506769477811500,2.9028115234375,-0.14444471129179,0.0467883469209075,0.006478954789717681
1761506769487782400,2.912782470703125,-0.09210895937681197,0.015496771274134517,0.04541790795107372
1761506769497754400,2.92275439453125,-0.014168810606002807,0.00013005612045526504,0.07738330033933744
1761506769507726300,2.932726318359375,0.09470014491379261,-0.006764087307453155,0.10571250078286976
1761506769517698300,2.9426982421875,0.1883721158236265,-0.007934884652495384,0.11821093049123882
1761506769527670300,2.952670166015625,0.20882629030942915,0.004490516352280974,0.0881331328147091
1761506769537641200,2.96264111328125,0.203500126850605,0.012095730658993125,0.0395979467930505
1761506769547613400,2.972613525390625,0.2177612919151783,0.022406696793064475,0.031542614098661576
1761506769557585400,2.98258544921875,0.18768588712513445,0.036905908397212625,0.021745664184622
1761506769567557400,2.992557373046875,0.13672083904147148,0.03644508595243096,0.018453946287516735
1761506769577529300,3.002529296875,0.09885083485245703,0.02968311753682792,0.03540210482169641
1761506769587500300,3.012500244140625,0.035437808606028555,0.023059900004789233,0.03228743198344018
1761506769597472500,3.022472412109375,-0.009558686462044715,0.0429484764970839,0.01041876818187884
1761506769607444200,3.0324443359375,-0.02644377028942108,0.02937587821856141,0.0003060736994200852
1761506769617416400,3.04241650390625,-0.00797813927233219,0.00990348131172359,-0.026414372948289383
1761506769627388400,3.052388427734375,-0.006556582036614417,-0.00044672085419297217,-0.05400287684302311
1761506769637359600,3.062359619140625,-0.050370004799962044,0.0073125880356878035,-0.07600876514969859
1761506769647331800,3.072331787109375,-0.08526654613614082,-0.007358180743083358,-0.0778736502727028
1761506769657303600,3.082303466796875,-0.0951098947584629,-0.014577172211185097,-0.06335629109051079
1761506769667275800,3.09227587890625,-0.08783142818808555,-0.006690656745061278,-0.04494396116323769
1761506769677247500,3.10224755859375,-0.0767407098531723,-0.020757468281313775,-0.06081515524033457
1761506769687218700,3.11221875,-0.04817278701663017,-0.03436141154617071,-0.06354049311757554
1761506769697190400,3.1221904296875,-0.003304302242398262,-0.04204224837236106,-0.03866489459348377
1761506769707162600,3.13216259765625,0.05684358472824096,-0.05647350930683315,-0.0016290242614719317
1761506769717134600,3.142134521484375,0.1190343757033348,-0.06381203550137579,0.006630241498691612
1761506769727106600,3.1521064453125,0.1711924329638481,-0.0764814743950963,0.008659586764429695
1761506769737077800,3.162077880859375,0.18594108928442,-0.07585311336368322,0.0006785614152671769
1761506769747049500,3.172049560546875,0.14169453580081462,-0.06812310363352299,-0.02750295135299675
1761506769757021700,3.182021728515625,0.04197802402973175,-0.0011439093381166458,-0.05181684260740876
1761506769766993400,3.191993408203125,-0.053901101535558694,0.042886078785359855,-0.058892498348373915
1761506769776965600,3.201965576171875,-0.08956512011289595,0.03260178146250546,-0.03653107231900794
1761506769786936600,3.2119365234375,-0.04237316082715988,0.019449965879321098,-0.011049004934902767
1761506769796908500,3.221908447265625,0.012495908957719803,0.008652312206849455,-0.00489124606521218
1761506769806880800,3.231880859375,0.04865852470695972,-0.014467282095924018,0.018166306718863778
1761506769816852500,3.2418525390625,0.08758008377552032,-0.018605404813960193,0.05425389702860266
1761506769826824700,3.25182470703125,0.10591711997687817,-0.011585881440714001,0.03803267023770604
1761506769836795600,3.261795654296875,0.034036125114560126,-0.00655417088381946,0.0454448827229673
1761506769846767600,3.271767578125,-0.05988719020783901,0.016769933015108106,0.023765625704906413
1761506769856739600,3.281739501953125,-0.21721651751399038,0.05832863565422594,-0.004250481068307999
1761506769866711600,3.291711669921875,-0.3323679143041372,0.10673062831684946,-0.0063978181281941935
1761506769876683800,3.301683837890625,-0.34541152027249333,0.1381825821571052,0.024103111747675574
1761506769886654700,3.31165478515625,-0.21041618984937666,0.13074666000269353,0.08439166299775243
1761506769896626700,3.321626708984375,-0.02515022334754467,0.08024652601704,0.12779450479936785
1761506769906598700,3.3315986328125,0.15002514177262782,0.009203077957406639,0.10568037947840056
1761506769916570600,3.341570556640625,0.24351240376532077,-0.06416289476566016,0.049114278250979256
1761506769926542600,3.35154248046875,0.2424830607175827,-0.09803184661976992,-0.031425559023674575
1761506769936513500,3.361513427734375,0.16618541845679283,-0.0931736659988761,-0.08868538726945407
1761506769946485500,3.371485595703125,0.09796937584280967,-0.08243344160206616,-0.11268107028701342
1761506769956457700,3.381457763671875,0.03380523896813392,-0.06632109571285545,-0.09958245532894507
1761506769966429700,3.3914296875,-0.031956980752944945,-0.060523515349999064,-0.0806517001512926
1761506769976400600,3.401400634765625,-0.10092179590761662,-0.08407916298247874,-0.09385498106023296
1761506769986372600,3.41137255859375,-0.11209142469763755,-0.09359759049937129,-0.11037980760731733
1761506769996344600,3.421344482421875,-0.04741407760381698,-0.11630129747763275,-0.12171597947012633
1761506770006316500,3.431316650390625,0.036436171993613244,-0.13832732439003884,-0.12144640528112649
1761506770016288500,3.44128857421875,0.07932078947424888,-0.1488292830515653,-0.1252053559558466
1761506770026260700,3.4512607421875,0.051478258302807806,-0.13602211618758736,-0.12479395301020703
1761506770036231400,3.4612314453125,0.03350830184817314,-0.09423530388101935,-0.09640715889423154
1761506770046203600,3.47120361328125,0.044969022539258004,-0.06613879794850945,-0.06042468091829214
1761506770056175600,3.481175537109375,0.04780862987935543,-0.043320378549396986,0.0032368447630666194
1761506770066147600,3.491147705078125,0.035678631624579425,-0.031987741217389704,0.04759911074794363
1761506770076119600,3.50111962890625,0.03814297591149807,-0.014050956379994749,0.0741412862108089
1761506770086090500,3.511090576171875,0.05447919368445873,-0.006975099709630012,0.09808972342000342
1761506770096062700,3.521062744140625,0.018272738793492317,0.025196838968247173,0.10135543808452785
1761506770106034400,3.531034423828125,-0.07489595876932144,0.0791986974645406,0.08930237752348184
1761506770116006700,3.541006591796875,-0.14188976611196993,0.1319914724320173,0.11809313106415793
1761506770125977600,3.5509775390625,-0.10800503216683864,0.13311353526450692,0.15370273430682718
1761506770135949600,3.560949462890625,-0.03871989901661873,0.12696348820216952,0.17129642306128515
1761506770145921800,3.570921875,0.043296120890974996,0.10830679159238935,0.19119429710488764
1761506770155893500,3.5808935546875,0.1320493400990963,0.05806815808713436,0.2141708844740875
1761506770165865700,3.59086572265625,0.18658347884118556,0.04339906980879604,0.1950955240608193
1761506770175836700,3.600836669921875,0.1329109253644943,0.05429682285487652,0.1548451823402196
1761506770185808600,3.61080859375,0.02225099477469921,0.07820954029671848,0.10513462782967835
1761506770195780600,3.620780517578125,-0.09202186561524868,0.10461604731567203,0.051766322563146235
1761506770205752600,3.630752685546875,-0.14323942715525625,0.1094488012343645,0.02765399089597631
1761506770215724800,3.640724853515625,-0.0993453403711319,0.05708974150903522,0.03197889119065366
1761506770225695500,3.650695556640625,0.02217208431959152,-0.0072322162758558985,0.04161635111048818
1761506770235667700,3.660667724609375,0.1198755027025938,-0.07537519365362823,0.039699827131791966
1761506770245639700,3.6706396484375,0.1815893238157034,-0.10664674942567944,0.017713250880362463
1761506770255611600,3.680611572265625,0.2022889974951744,-0.09751900172680616,-0.029249349779041946
1761506770265583600,3.69058349609375,0.18194237503707408,-0.07793013883344829,-0.06083378687556833
1761506770275554600,3.700554443359375,0.0514390953361988,-0.0440279422968626,-0.10833466598000377
1761506770285526500,3.710526611328125,-0.08707154973149299,-0.012110197575762868,-0.11878648362318053
1761506770295498500,3.72049853515625,-0.14271978719532488,-0.011482055740058422,-0.09642110522119328
1761506770305470700,3.730470703125,-0.16807050155103206,-0.014246990408748387,-0.09173597047911025
1761506770315442700,3.740442626953125,-0.14649872121214866,0.0006920008521527052,-0.07129640904054976
1761506770325413600,3.75041357421875,-0.078962477555871,-0.016973711958900094,-0.02689159397202311
1761506770335385600,3.760385498046875,0.026332711130380628,-0.03065415452606976,-0.014372452552476897
1761506770345357600,3.770357666015625,0.10473170958459377,-0.03509462119154632,-0.01875035710944794
1761506770355329500,3.78032958984375,0.08994739742875099,-0.016144129266962407,-0.044587019218038766
1761506770365301500,3.790301513671875,0.01150865148603916,0.017352993600070477,-0.06918799291867762
1761506770375272400,3.8002724609375,-0.04689794477522373,0.04831387598775327,-0.07908146429304033
1761506770385244700,3.81024462890625,-0.0874590877443552,0.06667253949902952,-0.06897908114204183
1761506770395216600,3.820216552734375,-0.1117103164255619,0.06926708603687584,-0.06928300512521528
1761506770405188600,3.830188720703125,-0.08956278202533721,0.0574925501562655,-0.05606499243802391
1761506770415160600,3.84016064453125,-0.060492170363664624,0.062475526200607416,-0.04190997289535589
1761506770425131500,3.850131591796875,-0.004241290831565857,0.06442695252932608,-0.04932066927696578
1761506770435103700,3.860103759765625,0.09366554116904735,0.03479198498316109,-0.035694030123110856
1761506770445075500,3.870075439453125,0.20836510253846643,-0.007239157473295926,-0.03549472414174815
1761506770455047700,3.880047607421875,0.2528121470302343,-0.03982179584391415,-0.04350565828869585
1761506770465019600,3.89001953125,0.21649112584888933,-0.034251813691854475,-0.05621698639565147
1761506770474990600,3.899990478515625,0.11861644255220889,-0.01087656412757933,-0.07542924822869244
1761506770484962800,3.909962890625,0.02591828511059284,0.005465206603333354,-0.09276504866536706
1761506770494934500,3.9199345703125,-0.030539515170454976,0.009920505511760712,-0.06685213384963572
1761506770504906800,3.92990673828125,-0.02039572229683399,0.018844912658259272,-0.035327041707932945
1761506770514878500,3.93987841796875,0.03215104202032089,-0.002175371277704835,-0.017795652483787852
1761506770524849700,3.949849609375,0.10731588085889816,-0.034476708488911385,-0.0026399839816149324
1761506770534821600,3.959821533203125,0.13365969790518284,-0.056277986734732985,-0.003868548529036343
1761506770544793600,3.969793701171875,0.07644611082077025,-0.045116760446876285,-0.01630000367361936
1761506770554765800,3.979765869140625,-0.009306173005700111,-0.03264408623427152,-0.02670025666798465
1761506770564737500,3.989737548828125,-0.09587269582450389,-0.019798487056046723,-0.024382314564834813
1761506770574708700,3.999708740234375,-0.1405056182771921,-0.01845423284024,-0.00898242779391585
1761506770584679700,4.0096796875,-0.11313304270505904,-0.022395444746688007,0.03176846559365513
1761506770594651600,4.019651611328125,-0.03747545191347599,-0.045094913941249246,0.07682176659959368
1761506770604622600,4.02962255859375,0.026651860082149505,-0.07051818207651377,0.08672283675852231
1761506770614594800,4.0395947265625,0.06195639769732952,-0.07276354985050856,0.08286004211683758
1761506770624566500,4.04956640625,0.032682956939935684,-0.07572481080889701,0.0453597480230499
1761506770634538800,4.059538818359375,-0.04057750958204269,-0.050040845910832285,0.005521602120067109
1761506770644510700,4.0695107421875,-0.11060557005405425,-0.019536109792813658,-0.013540182429819832
1761506770654481700,4.079481689453125,-0.13787117812037467,-0.013516557242348789,0.0050498986633116145
1761506770664453600,4.08945361328125,-0.13259879067540167,-0.019926862676069138,0.020413180321711116
1761506770674425900,4.09942578125,-0.08593465465605259,-0.018387670410051942,0.04895737065621651
1761506770684397800,4.109397705078125,-0.025551205363869664,-0.021266879108175634,0.06427098108290229
1761506770694369800,4.119369873046875,-0.030475802284479138,-0.011600275292247534,0.035023613198392554
1761506770704340700,4.1293408203125,-0.0483586649775505,0.018013503335416316,0.022756049086851998
1761506770714312700,4.139312744140625,-0.02666471956372261,0.013118643965944646,0.020215086766611785
1761506770724284700,4.14928466796875,0.008670213189721106,0.02126118001975119,0.016682766188308596
1761506770734256600,4.159256591796875,0.040620179679989814,0.008270473282411693,0.007926363990144455
1761506770744228900,4.169228759765625,0.09570610708594321,0.0058219841517508026,0.010027101983170724
1761506770754199800,4.17919970703125,0.13038286819159983,0.005700184402987361,0.020623318224342074
1761506770764171800,4.189171875,0.16141630435883997,-0.0017257278140634298,0.02999265841003507
1761506770774143700,4.199143798828125,0.17906068212091922,0.0008040829245001077,0.041101693286350924
1761506770784115700,4.20911572265625,0.18452888439893722,0.0037094489771872757,0.029314740882162002
1761506770794087700,4.219087646484375,0.15357611225247383,-0.00871222570054233,0.02969226210779743
1761506770804059000,4.229058837890625,0.0944388636291027,-0.01257379649952054,0.012789238481642677
1761506770814030600,4.239030517578125,0.006580547434091567,0.01682341676801443,-0.006406495766638545
1761506770824002800,4.2490029296875,-0.08733400005996227,0.04066694143116474,-0.0076227351220266425
1761506770833974800,4.258974853515625,-0.1696890426635742,0.051030149209126824,-0.007519015594292432
1761506770843946800,4.26894677734375,-0.20943536211848257,0.0690541008733213,-0.007347591421232209
1761506770853918000,4.27891796875,-0.19312018713355064,0.04626468837298452,0.009713311909820185
1761506770863889700,4.2888896484375,-0.1318786597073078,0.017187646970525383,0.03522441701709758
1761506770873862000,4.29886181640625,-0.06706687257885932,-0.008084887582436204,0.029016680384194478
1761506770883833600,4.30883349609375,-0.0197591779589653,-0.012317995107546447,0.037222271736850956
1761506770893805800,4.318805908203125,0.02122574338018894,-0.015186097889766097,0.03393555538349319
1761506770903776800,4.32877685546875,0.06551379791796207,-0.012400631889700888,0.019501999743946362
1761506770913748700,4.338748779296875,0.08045534646213054,-0.003957651584595442,-0.004436460064750281
1761506770923721000,4.348720947265625,0.07527765156328678,-0.005348229160159826,-0.005288307674956741
1761506770933692700,4.358692626953125,0.0761392368286848,-0.0014753332495689392,-0.026089986132399642
1761506770943665000,4.368664794921875,0.07308861708641051,0.011747501743212341,-0.03669219258129597
1761506770953635600,4.378635498046875,0.07268471246063708,0.021730331901460884,-0.014019699300272623
1761506770963609600,4.388609619140625,0.08870587293505668,0.010986965699493884,-0.022570878945407456
1761506770973580800,4.398580810546875,0.1092266829162836,0.007487213950231671,-0.03405195743793156
1761506770983552800,4.408552734375,0.12505027499198912,0.007991729406267405,-0.04994992535752244
1761506770993524700,4.418524658203125,0.12347031232416629,0.007550853770971298,-0.072157980606216
1761506771003496700,4.42849658203125,0.09876900178790092,0.024148498959094284,-0.07046184877939522
1761506771013468700,4.43846875,0.055691492083668706,0.04983896666318178,-0.05528191576893441
1761506771023439600,4.448439697265625,0.030007600250840184,0.053592035586386914,-0.05081066123954951
1761506771033411800,4.458411865234375,-0.021604513564705847,0.05059468040131032,-0.06023293033901136
1761506771043383800,4.4683837890625,-0.07613748326301574,0.047374037854373455,-0.07209777941815555
1761506771053355800,4.478355712890625,-0.10097732548713684,0.044594124812260265,-0.06702294210558757
1761506771063327700,4.48832763671875,-0.1023643959313631,0.03280665638484061,-0.06514794658052268
1761506771073298700,4.498298583984375,-0.10884206751286983,0.01174026828482747,-0.06576834806776605
1761506771083271000,4.50827099609375,-0.10317688135802745,-0.026794994879886506,-0.05786020985830109
1761506771093242600,4.51824267578125,-0.10106617281436919,-0.05242262648083269,-0.0415163567681564
1761506771103214800,4.52821484375,-0.13759002309143542,-0.05053155203722417,-0.0183951778630726
1761506771113186800,4.538186767578125,-0.17538345491290092,-0.05309139258787036,-0.0113603153567994
1761506771123157800,4.54815771484375,-0.19746844547092912,-0.039964492250233886,-0.011061190846329554
1761506771133129700,4.558129638671875,-0.16108254235982894,-0.025732114888727665,0.005736002351751085
1761506771143101700,4.568101806640625,-0.05640928496420383,-0.04099230092801153,0.007724787849059793
1761506771153073700,4.57807373046875,0.07411679109036921,-0.05482786099165678,0.023300818921462633
1761506771163045600,4.588045654296875,0.168195589235425,-0.06422653458639979,0.03619559557023458
1761506771173016800,4.598016845703125,0.20568156254291534,-0.048543227764219044,0.0398874540918041
1761506771182988500,4.607988525390625,0.1970604491919279,-0.029008798471838234,0.03843543778574094
1761506771192960800,4.617960693359375,0.15744038646519184,-0.01139927282743156,0.024890207004756665
1761506771202932700,4.6279326171875,0.09017302287817001,0.011653612914681434,-0.0016658120370819233
1761506771212904700,4.63790478515625,0.02448445291519165,0.03838723299615085,-0.004584167718794196
1761506771222876000,4.6478759765625,0.026663550519943235,0.04579992040544748,0.014331323674356099
1761506771232847600,4.65784765625,0.05885141741931438,0.05024557470269501,0.0339389894495951
1761506771242819800,4.66781982421875,0.09190028506219386,0.047782618655264376,0.04094813299272209
1761506771252791600,4.67779150390625,0.1447059925764799,0.03483443588539958,0.044276272768434134
1761506771262763800,4.687763671875,0.18622633596658705,0.0401266240093857,0.027638110623543613
1761506771272734700,4.697734619140625,0.1805985592126846,0.036790976780653,0.009435706253058743
1761506771282706700,4.707706787109375,0.1269026248604059,0.033420185173302884,-0.022011509763286446
1761506771292679000,4.717678955078125,0.07835808192193508,0.022458353915065527,-0.02935392896494595
1761506771302650600,4.727650634765625,0.013409516671299934,0.0049036271978169675,-0.06100523901891429
1761506771312622800,4.737622802734375,-0.038058220237493515,-0.005336684852838516,-0.07699518693774007
1761506771322593800,4.74759375,-0.058719315472245216,-0.01898768212981522,-0.07768531549321488
1761506771332565800,4.757565673828125,-0.07477963891327381,-0.018034546123445034,-0.058917504925467074
1761506771342537700,4.767537841796875,-0.09718728555440902,-0.036931627360358835,-0.05340561876934953
1761506771352509700,4.777509765625,-0.14046177913546562,-0.03237345259934664,-0.060438791642035354
1761506771362482000,4.78748193359375,-0.14328443534076213,-0.034539252331107856,-0.04921683444315567
1761506771372452600,4.79745263671875,-0.12148586050868034,-0.0409137557990849,-0.03498774730056757
1761506771382424800,4.8074248046875,-0.074579732427001,-0.04814911388009786,-0.012819400724465958
1761506771392396800,4.817396728515625,-0.026332126608490942,-0.0441164242979139,0.006826880028110463
1761506771402368800,4.82736865234375,0.01717033050954342,-0.050871962972730396,0.019648959050141274
1761506771412340700,4.8373408203125,0.03360883961319923,-0.04077632008977234,0.030740997125883584
1761506771422311700,4.847311767578125,0.025658757391571998,-0.034598727433383464,0.026508026598091237
1761506771432283600,4.85728369140625,0.018014380118250847,-0.040913536603376266,0.021587685727491042
1761506771442255600,4.867255615234375,0.020571663385629654,-0.03388685283698142,0.02720158008651342
1761506771452227800,4.877227783203125,0.02794131537079811,-0.02367233281470835,0.03217300497366814
1761506771462198800,4.88719873046875,0.033193829071521755,-0.0050024844624102114,0.04179308678372763
1761506771472170800,4.897170654296875,0.0451736052006483,0.01688026152178645,0.047336559954774565
1761506771482142700,4.907142822265625,0.05084522109627723,0.01851794572621584,0.02222452689288184
1761506771492114700,4.91711474609375,0.03751110774874687,0.010753741465508938,0.013527795588993467
1761506771502086700,4.927086669921875,0.02430968087017536,0.009458587088435888,0.008633997948735487
1761506771512058600,4.93705859375,0.014071779972314834,0.01043517703562975,0.023598345129890366
1761506771522029600,4.947029541015625,0.002944236758351326,0.023001593946292996,0.04320308144581504
1761506771532001800,4.957001708984375,-0.000014028525352478027,0.03148519852273166,0.05245155574779491
1761506771541973800,4.966973876953125,-0.03521159863471985,0.04462437382005155,0.03876722702337429
1761506771551945700,4.97694580078125,-0.057822074371576306,0.05366137449555099,0.012073869311989983
1761506771561917700,4.986917724609375,-0.05591945562064647,0.06357369670085608,-0.011465396866202354
1761506771571888600,4.996888671875,-0.03717500766217709,0.07508234818689524,-0.03219042874921579
1761506771581860900,5.00686083984375,-0.019592004698514937,0.06193206697367131,-0.029705655878910327
1761506771591832600,5.01683251953125,-0.015098200410604477,0.04088708698786795,-0.028193267138139345
1761506771601804800,5.0268046875,0.011175474008917809,0.04583689141497016,-0.0047730413543991745
1761506771611776800,5.03677685546875,0.06696691933572292,0.03855309108234942,0.026870085393113547
1761506771621747700,5.046747802734375,0.09339607657790183,0.015512845626100898,0.021607139346632175
1761506771631720000,5.056719970703125,0.11261983248591423,0.016558043830096722,-0.011824487386003602
1761506771641691000,5.06669091796875,0.13881401192843912,0.0002063362270593643,-0.027714036820409817
1761506771651663000,5.0766630859375,0.13155191197097302,-0.017401143590733407,-0.04378091786638833
1761506771661634800,5.086634765625,0.07580313674211502,0.005883285884931683,-0.05400665340241976
1761506771671606000,5.09660595703125,-0.01852700581550598,0.01928067372702062,-0.033404667943762616
1761506771681578000,5.106577880859375,-0.03128594962358475,0.019562486343085765,-0.011412011294707189
1761506771691550000,5.116550048828125,0.0001876315265893936,0.014071122385188936,-0.004472905347065534
1761506771701522200,5.126522216796875,0.0517050527960062,-0.007950301417335867,-0.015007165692863055
1761506771711494000,5.136493896484375,0.0971487071096897,-0.030030834995955227,-0.03314292543476913
1761506771721465000,5.146465087890625,0.1389724173605442,-0.06611337124630809,-0.04609140503215603
1761506771731437000,5.15643701171875,0.15893383989334106,-0.06563041003495454,-0.060345651732175605
1761506771741409000,5.166408935546875,0.11207973425984381,-0.05455832333527505,-0.05439227345283143
1761506771751381000,5.176381103515625,0.043380292043089866,-0.018834537394717334,-0.051354248330648986
1761506771761352000,5.18635205078125,0.013808745121955871,0.003343099882826209,-0.01055190902527538
1761506771771324000,5.196323974609375,0.005279986229538917,0.005784209424629807,0.013640955373574978
1761506771781296000,5.206296142578125,0.021676409757137298,-0.018311536433920264,0.004145479474007152
1761506771791268000,5.21626806640625,0.06246960791647434,-0.04036715476699173,-0.024710961997311095
1761506771801240000,5.226239990234375,0.10276888507902622,-0.06940364496335387,-0.03259710985396523
1761506771811212000,5.2362119140625,0.07407996621131896,-0.05737381914742291,-0.06699267026490997
1761506771821183000,5.246182861328125,-0.051072600111365316,-0.02050663532540202,-0.0690162896135822
1761506771831155000,5.256155029296875,-0.1704378152042627,0.020911928190663457,-0.050458610098599456
1761506771841127000,5.266126953125,-0.2625409293621778,0.06409077937752009,-0.01875283219432458
1761506771851099100,5.27609912109375,-0.2509299865454435,0.059662514606490726,0.019076451825234108
1761506771861069800,5.28606982421875,-0.186019415217638,0.036062151049450035,0.034771179657150056
1761506771871042000,5.2960419921875,-0.12838380332887173,0.01408471251912415,0.028989568614983
1761506771881014000,5.306013916015625,-0.04129121080935001,0.008215747420489788,0.021873592280072626
1761506771890986000,5.315986083984375,0.047668344625830646,0.0047075201038271185,0.019995859091938472
1761506771900958000,5.3259580078125,0.09289514131844043,0.010601327382773161,0.014190974488749633
1761506771910930000,5.335929931640625,0.06128770465552807,0.01007401557303965,0.0014237686007574665
1761506771920901000,5.345901123046875,0.007111293309926986,0.02541998019963503,0.0034054393706901462
1761506771930872800,5.355872802734375,-0.019878420424461363,0.033199747355654834,-0.008904800547019111
1761506771940845000,5.365844970703125,-0.01205985562801361,0.030983532610908148,-0.009341746642580256
1761506771950817000,5.375817138671875,0.03955810340642929,0.005774345617741346,0.021183726302790456
1761506771960788000,5.3857880859375,0.12950608535706995,-0.0063625207692384715,0.039067630175477826
1761506771970760200,5.39576025390625,0.21161095259189605,-0.018562953911721705,0.03759668997323606
1761506771980732000,5.40573193359375,0.2702583718717098,-0.04748027470782399,0.0250816653230926
1761506771990704000,5.4157041015625,0.24026129301488397,-0.07848528849817812,0.00492651145812706
1761506772000675800,5.42567578125,0.11421849985420703,-0.06388415088951588,-0.04602786110953893
1761506772010647000,5.43564697265625,-0.06506079345345497,-0.014426073302701115,-0.07267164291650988
1761506772020619000,5.445618896484375,-0.19538520945608615,0.02173961118645966,-0.058382320336531845
1761506772030591000,5.455591064453125,-0.23150632415115832,0.03833937526643276,-0.03682328074821271
1761506772040563200,5.465563232421875,-0.20323183130323885,0.029348917146399617,-0.006244598615393625
1761506772050535000,5.475534912109375,-0.17235387795865534,0.008930325430631637,0.020879450693167746
1761506772060506000,5.485506103515625,-0.1289507895618677,0.014233765600994229,0.033980065812077374
1761506772070478000,5.49547802734375,-0.06648293521106242,0.03474595388434827,0.024276780964282804
1761506772080450000,5.505449951171875,0.009036708414554595,0.03749072254784405,0.011755530927685321
1761506772090422000,5.515422119140625,0.051914896154403686,0.02827529656551778,0.0038384684846037996
1761506772100394000,5.52539404296875,0.08633563667237758,0.0014448650460690258,0.005754959926437004
1761506772110365000,5.535364990234375,0.0790460641860962,0.010196399843692779,0.008864699148782528
1761506772120337000,5.5453369140625,0.026810850036144255,0.026685616221278904,0.02156211974468315
1761506772130309000,5.55530908203125,-0.028622867894172666,0.032858240441605444,0.02520356553655583
1761506772140281000,5.565281005859375,-0.04844108256399631,0.034278482503071424,0.020331424888968466
1761506772150253000,5.575253173828125,-0.013783610680699348,0.02402728373222053,0.024240892233571502
1761506772160224000,5.58522412109375,0.05553425569534302,0.003642886546999216,0.04128345676115714
1761506772170196000,5.595196044921875,0.11050970846414565,-0.021937033454701303,0.03826095571838086
1761506772180168000,5.60516796875,0.13324819449484349,-0.029346213732659814,0.018052490488800685
1761506772190140000,5.615139892578125,0.11437106006741524,-0.03574117546677589,-0.011314227175770792
1761506772200112000,5.625112060546875,0.04724456625580788,-0.00912234087139368,-0.060462894036830396
1761506772210083000,5.6350830078125,-0.024371640190482137,0.006426525916159153,-0.06746317385348957
1761506772220055000,5.645054931640625,-0.0970838251799345,0.018491861436888576,-0.044777381557831536
1761506772230027000,5.655027099609375,-0.09809037187397479,0.022366072521731256,-0.011723785224196035
1761506772239999000,5.6649990234375,-0.06567220335006714,0.01085968605801463,0.003810574689036002
1761506772249971000,5.674970947265625,0.012915011152625083,-0.022897549049928783,0.008515612858120584
1761506772259942100,5.684942138671875,0.09258359115123749,-0.05885609359443188,0.015264432956138625
1761506772269913900,5.694913818359375,0.15840426306128502,-0.06164367848634719,0.029763315766723825
1761506772279886000,5.704885986328125,0.15853344239890574,-0.05882065695486963,0.010753755165240726
1761506772289858000,5.714858154296875,0.06032032092809677,-0.018609496467188,0.003491513643879443
1761506772299830000,5.724830078125,-0.031308745977282525,0.020877514464408158,-0.0034263976770394946
1761506772309801200,5.73480126953125,-0.08410743922889233,0.02248904131427407,-0.003972065985726658
1761506772319773000,5.74477294921875,-0.08315291498303413,0.01601458460316062,0.015086681219458114
1761506772329745200,5.7547451171875,-0.03783259478807449,-0.007691065959259867,0.03922373405264225
1761506772339716900,5.764716796875,0.002212415352463722,-0.0324818814098835,0.040748651198134755
1761506772349689000,5.774689208984375,0.026434417939186095,-0.036487902180850504,0.04563890745772514
1761506772359660000,5.784659912109375,-0.011252630898356437,-0.02301080016605556,-0.005740889731066999
1761506772369632000,5.794632080078125,-0.06267126796841621,-0.015295476548373698,-0.03743213792813476
1761506772379604200,5.804604248046875,-0.09284604147970676,-0.011537366123870015,-0.0495309921259759
1761506772389576000,5.814575927734375,-0.09597790976464748,-0.0074298577398061744,-0.03359690258023329
1761506772399548200,5.824548095703125,-0.0824175864458084,-0.010034852606430649,-0.009702473138686036
1761506772409518800,5.834518798828125,-0.04856324763894081,-0.023676278337463736,-0.010917297996766865
1761506772419491000,5.844490966796875,-0.009236614900827408,-0.013989143190160393,-0.014192600190255325
1761506772429463000,5.854463134765625,0.0375356576681137,-0.01825805268101394,-0.017299381983000784
1761506772439435000,5.86443505859375,0.0966214683651924,-0.026768837525323032,-0.0245538626063033
1761506772449407000,5.874406982421875,0.11481588122546672,-0.014390709728375077,-0.028157730033877303
1761506772459378000,5.8843779296875,0.10184534049332142,-0.002513371060416102,-0.02101072608975228
1761506772469350100,5.89435009765625,0.07740414219796657,0.011625409733504056,-0.007381838467417401
1761506772479321900,5.90432177734375,0.04950783501267433,0.030396234242245555,-0.015043946047784992
1761506772489294000,5.914294189453125,0.05432254181802273,0.029803236785158515,0.0004117520033891196
1761506772499266000,5.92426611328125,0.09427695106565952,0.011981310499086975,0.02030892992937006
1761506772509237000,5.934237060546875,0.11256547195017337,0.010095789013430476,0.0006586893834843067
1761506772519209200,5.944209228515625,0.11069149477183818,0.013153642214089632,-0.008094894665686296
1761506772529181000,5.954180908203125,0.07668459575176238,0.013060703233629465,-0.03492376041995594
1761506772539153200,5.964153076171875,0.01772095012962818,0.026058205037936568,-0.059000721662933936
1761506772549124900,5.974124755859375,-0.04141746753752231,0.04385053990334272,-0.05047114991976413
1761506772559096000,5.984095947265625,-0.07738602201938628,0.061178837453573935,-0.036379521319374906
1761506772569068000,5.994068115234375,-0.08075579071342945,0.03446523724682629,-0.005205115482842666
1761506772579040000,6.0040400390625,-0.07592880894839764,-0.0027967911116778847,-0.010908826995943673
1761506772589012200,6.01401220703125,-0.08236497947573661,0.00022036475241184232,-0.02990580896035535
1761506772598984000,6.02398388671875,-0.05487023882865905,-0.00816094849333167,-0.021823028853326102
1761506772608955100,6.033955078125,-0.017635025411844252,-0.00877791134789586,-0.024451196816272565
1761506772618927000,6.043927001953125,-0.008845569756627081,0.026545184837281702,-0.03740432290602475
1761506772628899000,6.053899169921875,-0.026280688682198523,0.031483956413716076,-0.03127692835020134
1761506772638871000,6.06387109375,-0.0454395626604557,0.030592195205762982,-0.02652585679901531
1761506772648843500,6.073843505859375,-0.011219897672533988,0.0264412130061537,-0.0066989051252428905
1761506772658814500,6.083814453125,0.021506898409128186,0.025233298521116374,0.005443581576703582
1761506772668786400,6.093786376953125,0.054583238580822944,0.007724456772208213,0.01223267317796126
1761506772678758700,6.103758544921875,0.09879705883860587,-0.009025091041997075,0.01355277248333441
1761506772688730400,6.11373046875,0.13819558776915072,-0.00369563964754343,-0.018451020253135355
1761506772698702600,6.12370263671875,0.09629998132586479,-0.006057619538530707,-0.029927584684034808
1761506772708673500,6.133673583984375,-0.0028939678758382794,0.017624065626412628,-0.0397415656479774
1761506772718645500,6.1436455078125,-0.07676467525064945,0.043386502588167786,-0.06257358888075687
1761506772728617500,6.153617431640625,-0.07877835316061974,0.032805852667242286,-0.05063494847961701
1761506772738589400,6.16358935546875,-0.04975274968445301,0.026203166466578838,-0.03427933873630827
1761506772748561700,6.173561767578125,-0.015680384212732313,0.01915463619455695,-0.015231162015843437
1761506772758532600,6.18353271484375,0.03130173171460628,-0.0018353256683796644,-0.011869542378926417
1761506772768504600,6.193504638671875,0.06669862378835678,-0.001822612317278981,-0.035066308412514624
1761506772778476500,6.2034765625,0.06389467228353023,-0.00377462316788733,-0.07101886617422569
1761506772788448500,6.213448486328125,0.04142097466886043,0.000667670128494501,-0.10217080958802252
1761506772798420500,6.22342041015625,-0.006938274830579757,0.011534808840602635,-0.1112423427207861
1761506772808391700,6.2333916015625,-0.039161213043332095,0.0009772475343197585,-0.08195717499298043
1761506772818363400,6.24336328125,-0.08039747879505157,-0.005883505080640315,-0.0789225839368999
1761506772828335600,6.253335693359375,-0.0811626179486513,0.00045373511686921117,-0.03655221785502508
1761506772838307600,6.2633076171875,-0.05831248823702335,0.005452274056524038,-0.001409371324290987
1761506772848279600,6.273279541015625,-0.02139876185953617,-0.004327434745058417,-0.0047214356063923334
1761506772858250500,6.28325048828125,0.0006827215671539307,-0.010916823072731494,-0.010264369921322214
1761506772868222500,6.293222412109375,0.01511281345784664,0.014152151732146739,-0.023815657125401776
1761506772878194700,6.303194580078125,0.020792028138041495,0.029720307742059228,-0.021048414051905273
1761506772888166400,6.31316650390625,0.04614741866886615,0.04001286143660545,-0.004530036082738661
1761506772898138600,6.323138671875,0.11741700363457203,0.013312632168084383,0.016095575134211684
1761506772908109300,6.333109375,0.1981932526141405,-0.009053440353646873,0.05130002935880329
1761506772918081500,6.34308154296875,0.21941724242866037,-0.015212401374801992,0.06459982487820089
1761506772928053500,6.353053466796875,0.20745967813134192,-0.018117475166544317,0.0618090981811285
1761506772938025500,6.363025390625,0.17157471027970314,-0.006891586144641041,0.04489715374629013
1761506772947997700,6.372997802734375,0.09103694623112678,0.009430676168203353,0.03250504537305096
1761506772957968400,6.382968505859375,-0.04187748626470566,0.0239757727406919,0.0069440755253483075
1761506772967940600,6.392940673828125,-0.188249950748682,0.0461105937898159,-0.017113570237450765
1761506772977912300,6.402912353515625,-0.2371457913428545,0.056476870307698844,0.005042886113101849
1761506772987884500,6.412884521484375,-0.21812369548678398,0.05021466810777783,0.01588864182717516
1761506772997856500,6.4228564453125,-0.16659867543280124,0.037836394180357454,0.01957784830899909
1761506773007827500,6.432827392578125,-0.08561316761672497,0.009189414758235216,0.03018353220648132
1761506773017799700,6.442799560546875,-0.030747604963183402,-0.019474515798687933,0.01751828314739978
1761506773027771400,6.452771484375,0.005782090532779693,-0.017207520714774726,-0.007369632577215088
1761506773037743600,6.46274365234375,-0.012566051584482192,-0.02691452960632741,-0.017888334594276967
1761506773047714600,6.472714599609375,-0.042589433926343914,-0.028057196835428476,-0.018559572361258322
1761506773057686500,6.4826865234375,-0.07404664846360683,-0.014294848138466477,-0.013593563434737733
1761506773067658500,6.492658447265625,-0.05531622903048992,-0.012531564792990684,0.014420911928749409
1761506773077630500,6.50263037109375,0.0016863456517457961,-0.015763678582012653,0.023418748495995532
1761506773087602700,6.512602783203125,0.07232464697659015,-0.015633111004903912,0.0259694513255381
1761506773097574400,6.522574462890625,0.13121814997196196,-0.025205679861828683,0.009827251437469386
1761506773107545600,6.532545654296875,0.17420155165195464,-0.017065262699872255,-0.009454937251558293
1761506773117517600,6.542517578125,0.16311258688271044,-0.00476801811940968,-0.024654964343621393
1761506773127489500,6.552489501953125,0.09982289475500583,0.006224938929453492,-0.03375990198906511
1761506773137461500,6.56246142578125,0.05070902749598026,0.05612425747774541,-0.017262379007437264
1761506773147432400,6.572432373046875,0.050344285836815834,0.06508943502604961,-0.02337741640518652
1761506773157404400,6.582404296875,0.023340543577075004,0.04745638237558305,0.006883614613206009
1761506773167376600,6.592376708984375,0.0017728548914194106,0.03345679085664451,-0.00514254481200478
1761506773177348600,6.6023486328125,-0.028841479080915448,0.039647169929370285,-0.0319413858915912
1761506773187320600,6.612320556640625,-0.03890110080242157,0.04074614414721727,-0.04331778473351151
1761506773197291500,6.62229150390625,-0.04070668891966343,0.04322809715606272,-0.04149877544569317
1761506773207263500,6.632263427734375,-0.05913841766715049,0.06024703649617731,-0.04782374525009654
1761506773217235500,6.6422353515625,-0.11015782628655434,0.05822086443081498,-0.026470619480439925
1761506773227207400,6.65220751953125,-0.14606500597000122,0.06611359044201671,-0.019530771463993003
1761506773237179400,6.662179443359375,-0.10400807148516178,0.04482376884967088,0.002917438370504533
1761506773247150300,6.672150390625,-0.035823008531332017,0.03286006707251072,0.026179758191527798
1761506773257122600,6.68212255859375,0.055419689404964445,0.0211856305655092,0.026688292235555126
1761506773267094500,6.692094482421875,0.13448153568208218,-0.011552198366820811,0.027795817369327413
1761506773277066500,6.70206640625,0.16209785688221454,-0.03894267492182553,-0.00020908473574963863
1761506773287038500,6.71203857421875,0.12146774033010005,-0.02761032985076308,-0.03319207778914133
1761506773297009400,6.722009521484375,0.06477028607428073,-0.021207842397317288,-0.055438051612139674
1761506773306981600,6.731981689453125,0.0053664954692125314,-0.0004473053760826587,-0.06192516687542665
1761506773316953300,6.741953369140625,-0.046809681969881056,0.02371602582596242,-0.05071099112420342
1761506773326925600,6.751925537109375,-0.09179156399071216,0.0316069982714951,-0.021083540164213627
1761506773336897500,6.7618974609375,-0.0695388156503439,0.014736162165179848,-0.005898723199369851
1761506773346868500,6.771868408203125,-0.02846855411529541,0.0032167700894176958,-0.013738815982680534
1761506773356840700,6.7818408203125,-0.01268120239675045,0.006583323913067579,-0.026754941430711186
1761506773366812400,6.7918125,0.018255787658691406,0.006551540535315871,-0.02013812167341821
1761506773376784600,6.80178466796875,0.07130348723530769,-0.006261471547558903,-0.007545089608820854
1761506773386756400,6.81175634765625,0.10366261904835701,-0.00996741339340806,0.012263809243385913
1761506773396727600,6.8217275390625,0.07610591908097267,-0.00433035735450685,0.033396416138648057
1761506773406699500,6.831699462890625,0.031228081956505775,0.01691211796477437,0.04869517148949671
1761506773416671500,6.84167138671875,-0.041107670935988425,0.029100130017101763,0.0324103505436331
1761506773426643700,6.851643798828125,-0.09424830949306487,0.05176087463647127,0.008565489014988997
1761506773436615400,6.861615478515625,-0.12090952192544936,0.05533391081765294,-0.007914526851056144
1761506773446586600,6.871586669921875,-0.09950900650024413,0.062190498714148994,-0.02490700515921926
1761506773456558600,6.88155859375,-0.0281944133490324,0.04863930854983627,-0.02228015237052459
1761506773466530600,6.891530517578125,0.06214753635525703,0.02254486315473914,0.009622453005303396
1761506773476502500,6.90150244140625,0.1322585989356041,-0.00007496493235230446,0.03108326437504729
1761506773486474500,6.911474609375,0.15778759246766566,-0.01334434248059988,0.04078523861516733
1761506773496445400,6.921445556640625,0.14605448457598685,-0.007858677611127496,0.053586784022534265
1761506773506417400,6.93141748046875,0.09986498033106327,0.017826456330716608,0.03604314723816933
1761506773516389600,6.9413896484375,0.05638064339160919,0.034550285181775685,0.020301769536221398
1761506773526361300,6.951361328125,0.0028238252490758895,0.04070573907159269,0.0031789591150896738
1761506773536333600,6.96133349609375,-0.027166239345073697,0.0291246799364686,-0.014106108075246447
1761506773546304500,6.971304443359375,-0.05277297428846359,0.04130575079135596,-0.020643707991822156
1761506773556276500,6.9812763671875,-0.07554419354498386,0.02960691049546003,0.005406570609629852
1761506773566248400,6.99124853515625,-0.03526128299534321,0.021765622410550713,0.0341414395194035
1761506773576220400,7.001220458984375,0.03494505665302276,0.0067685442868620155,0.06519593217440414
1761506773586192600,7.011192626953125,0.0992576620876789,-0.022842530927062035,0.06542906507684383
1761506773596163600,7.02116357421875,0.12571136924922466,-0.05033244926854968,0.044707540325168514
1761506773606135600,7.031135498046875,0.09742050978839396,-0.06383410120271146,0.013502574382768943
1761506773616107500,7.041107421875,0.04994096573293209,-0.05447502896599471,-0.0037430287322698856
1761506773626079500,7.05107958984375,-0.01965513306260109,-0.028387524768337606,-0.01333985810172744
1761506773636051500,7.061051513671875,-0.12045768650472163,0.0071141428541392085,-0.008778040353703545
1761506773646022400,7.0710224609375,-0.18195815712809563,0.019534648488089442,-0.004504099350939214
1761506773655994400,7.080994384765625,-0.18441548715233802,0.017370383126288653,0.010694790377974276
1761506773665966300,7.09096630859375,-0.12813070535063742,-0.002226005486398935,-0.0021805153842862635
1761506773675938300,7.100938232421875,-0.04384031077027321,-0.017639920782670376,-0.011115781994222198
1761506773685910500,7.11091064453125,0.04873451255261898,-0.0375734323952347,-0.012307721450348617
1761506773695881500,7.120881591796875,0.14077332930266856,-0.06593801467940211,-0.00934825458600244
1761506773705853400,7.130853515625,0.19180442835986614,-0.06270801978223026,-0.012708640676236244
1761506773715825400,7.140825439453125,0.1588409009128809,-0.0347596170835197,-0.03418751171741169
1761506773725797400,7.15079736328125,0.04772913490235805,0.0069407590486109255,-0.06018861170667223
1761506773735769300,7.160769287109375,-0.06630173342525959,0.04930296009033918,-0.06574999499374534
1761506773745740300,7.170740234375,-0.15973288131654262,0.07389613407701254,-0.04077406876718159
1761506773755712300,7.180712158203125,-0.18296411930024623,0.08593575063459574,-0.023035439133679027
1761506773765684500,7.1906845703125,-0.13313304368257523,0.07981500273197889,-0.005406310885548009
1761506773775656400,7.200656494140625,-0.03253916455507278,0.05917385430671274,0.018077212796459206
1761506773785628400,7.21062841796875,0.06333996101021766,0.030672493900358675,0.006333252433914458
1761506773795599400,7.220599365234375,0.13769056085646153,0.014569281165674328,-0.004380321988809737
1761506773805571300,7.2305712890625,0.16378069540262222,0.006614230507984757,-0.016283482938725502
1761506773815543300,7.240543212890625,0.18183833014070985,0.004203954495862126,-0.024387372049153783
1761506773825515300,7.250515380859375,0.1663391477137804,0.000021700375154614448,-0.023923138371156526
1761506773835487500,7.260487548828125,0.11942775893509387,0.007373889768868685,-0.007874467693659244
1761506773845458200,7.270458251953125,0.0597439823448658,0.014836992191150783,0.0006380451720273413
1761506773855430400,7.280430419921875,-0.03358955039083957,0.033857992068678136,-0.005220072735846042
1761506773865402400,7.29040234375,-0.07726034981310367,0.045225481518357986,0.0009468065875778847
1761506773875374300,7.300374267578125,-0.05518704969286918,0.041599034649506206,0.0015306606153397296
1761506773885346300,7.31034619140625,0.027511107259988784,0.013497560280933976,0.004798268839667434
1761506773895317200,7.320317138671875,0.08589432264566421,-0.01796235767006874,0.006997604944027261
1761506773905289500,7.33028955078125,0.0939770913362503,-0.028014599802717564,0.005613930891640484
1761506773915261200,7.34026123046875,0.037063948503136636,-0.022191154346242546,-0.012229190021153772
1761506773925233400,7.3502333984375,-0.07000292603075504,0.019070903433859348,-0.03896255779922939
1761506773935205400,7.360205322265625,-0.14917875407636164,0.0369172335088253,-0.03962966167214326
1761506773945176300,7.37017626953125,-0.17355097878873346,0.027986688882485032,-0.047893531683832404
1761506773955148500,7.3801484375,-0.13937924459576606,0.0009382306981831789,-0.05779615447903052
1761506773965120300,7.390120361328125,-0.06502630666196346,-0.03703815647475421,-0.04595282767852768
1761506773975092500,7.400092529296875,0.018656185153126715,-0.06331161169856786,-0.039910501607251354
1761506773985064200,7.410064208984375,0.04551905763745308,-0.04873151687793433,-0.05173360303705558
1761506773995035400,7.420035400390625,0.01778057136237621,-0.03731492758952081,-0.04977202977365814
1761506774005007400,7.43000732421875,0.023436405166983604,-0.03513911792039871,-0.05172295377887785
1761506774014979300,7.439979248046875,0.053196168136596673,-0.025016075573861596,-0.06284395765420049
1761506774024951600,7.44995166015625,0.0838818137794733,-0.027903832904621957,-0.05081890391150955
1761506774034923300,7.45992333984375,0.11607786398530005,-0.044558907368406654,-0.02386885546722915
1761506774044894500,7.46989453125,0.1412865395218134,-0.034157559537142515,-0.00984578146635904
1761506774054866400,7.479866455078125,0.14429039751291275,-0.024696415165439245,0.01633844626266509
1761506774064838400,7.48983837890625,0.11909341241419315,-0.01905782475657761,0.01332360679489211
1761506774074810400,7.499810302734375,0.03883329626321792,0.016770736732706428,0.0051580460585246325
1761506774084782300,7.5097822265625,-0.0371177245169878,0.04183401244916021,-0.00625717553999857
1761506774094753300,7.519753173828125,-0.04609656526446342,0.05111651231832802,-0.002013685901480494
1761506774104725200,7.529725341796875,-0.027151626297831535,0.03839607388973236,-0.0022099334177211856
1761506774114697500,7.539697509765625,0.04189619096517563,0.026095322177931663,0.013770111878309397
1761506774124669400,7.54966943359375,0.10172785159349441,-0.005392141367122531,0.04302935971356928
1761506774134641400,7.559641357421875,0.14267127187848092,-0.029533406867831943,0.060206814083643256
1761506774144612400,7.5696123046875,0.11463701752722262,-0.020857640720158815,0.06954798077091108
1761506774154584300,7.579584228515625,0.0013788871377706526,0.013118132509291171,0.060474200882134024
1761506774164556300,7.589556396484375,-0.12318740372955798,0.05304638440236449,0.03531085547482362
1761506774174528300,7.5995283203125,-0.17502397395074368,0.07456782279349863,0.03907916078306734
1761506774184499200,7.609499267578125,-0.1607353363573551,0.06561360503062605,0.05420913087169174
1761506774194471400,7.619471435546875,-0.07368658297955989,0.02927987049818039,0.07187841017958707
1761506774204443400,7.629443359375,0.0007329904496669769,-0.01002162779867649,0.08483743400387465
1761506774214415400,7.639415283203125,0.06292144333720207,-0.03026742023080587,0.07934890132388099
1761506774224387300,7.64938720703125,0.07252981415987014,-0.04414988817609846,0.07383388706233818
1761506774234359300,7.659359375,0.058462125840783113,-0.04083097288645804,0.051524307667929675
1761506774244330500,7.66933056640625,0.018293781581521035,-0.029429654232412575,0.030524673794349654
1761506774254302200,7.67930224609375,-0.0424900652050972,-0.01615245870389044,0.02234986117244698
1761506774264274400,7.6892744140625,-0.08946049069464206,-0.0012199702490121125,0.01634985585595714
1761506774274246400,7.699246337890625,-0.10816285307705402,-0.00001242109015583992,0.004684352715726709
1761506774284217300,7.70921728515625,-0.08436638242602348,-0.023898250525072214,0.0059853774278715716
1761506774294189600,7.719189453125,-0.027263269978761672,-0.03695888069346547,0.008695194650639313
1761506774304161300,7.729161376953125,0.010972644913196564,-0.05798647115305066,-0.006738787327770842
1761506774314133500,7.739133544921875,0.031600422400236125,-0.06037614276856184,-0.014969669526955111
1761506774324105200,7.749105224609375,0.05873509756326675,-0.047362493547052145,-0.04076991774844937
1761506774334076400,7.759076416015625,0.11098375571668147,-0.04894815530329943,-0.05341894404180347
1761506774344048400,7.76904833984375,0.1486795723825693,-0.05197232543006539,-0.044419581096107136
1761506774354020400,7.779020263671875,0.1495037482470274,-0.053054786904528736,-0.025005405766086185
1761506774363992600,7.78899267578125,0.12901099531650542,-0.03804039231985807,-0.010523613370908423
1761506774373964300,7.79896435546875,0.04314706780910492,-0.0076758683901280165,-0.014965057283919303
1761506774383935500,7.808935546875,-0.06344049877524376,0.031071210894361136,-0.03537016389702912
1761506774393907200,7.8189072265625,-0.13409282862544059,0.06810929430387913,-0.033338212828140236
1761506774403879400,7.82887939453125,-0.12703180419802665,0.08445873688459396,-0.01112574854909908
1761506774413851100,7.83885107421875,-0.1067430494070053,0.06385952790491282,0.011425914239184931
1761506774423823400,7.8488232421875,-0.0821872848212719,0.06674290132150054,0.02619208338356111
1761506774433794300,7.858794189453125,-0.025627777731418607,0.060380161356553434,0.03277768830197165
1761506774443766300,7.868766357421875,0.04324760557413101,0.0550548746805638,0.03306689192333724
1761506774453738500,7.878738525390625,0.08604512929320335,0.045928880547359587,0.017381591790181117
1761506774463710200,7.888710205078125,0.12190320913791655,0.04348630970083177,0.007745903702324721
1761506774473682400,7.898682373046875,0.11998480829596518,0.033331191715598105,-0.002588745843077777
1761506774483653400,7.9086533203125,0.09490297400951385,0.04337810008600354,-0.0093646708604414
1761506774493625300,7.918625244140625,0.04617021502256393,0.04632679382376372,-0.00899684333669138
1761506774503597300,7.928597412109375,0.0003489595681428909,0.04755049039982259,-0.00860032743292977
1761506774513569300,7.9385693359375,-0.012456161469221114,0.03286861570514738,-0.010019086498429532
1761506774523541500,7.94854150390625,0.0019376900643110274,0.022424743906408546,-0.021744173197145573
1761506774533512400,7.958512451171875,0.03084872725009918,0.0070211308084428305,-0.028955616113031282
1761506774543484400,7.968484375,0.06921440600156784,-0.012262100201845169,-0.031352781481831335
1761506774553456400,7.978456298828125,0.09689794721901417,-0.024830416808649895,-0.04466870615212246
1761506774563428400,7.988428466796875,0.08022270675003527,-0.018485577826574444,-0.0612602686593309
1761506774573400300,7.998400390625,0.011356675794720649,-0.008286766830086707,-0.06705098088998347
1761506774583371500,8.00837158203125,-0.0656301177740097,0.004113499733433127,-0.07650731208925135
1761506774593342200,8.01834228515625,-0.0862520500421524,0.01295461251065135,-0.07173587360347156
1761506774603314400,8.028314453125,-0.09301204569637775,0.001851619216054678,-0.05732000203437637
1761506774613285400,8.038285400390626,-0.07350128954052924,-0.008899199640005826,-0.040194300684425976
1761506774623257300,8.04825732421875,-0.025588614764809607,-0.012023980597034096,-0.03772688537429785
1761506774633229300,8.058229248046874,0.036869887235760686,-0.03026983138360083,-0.03225414848505752
1761506774643201300,8.068201171875,0.07288578799068927,-0.022619681956619023,-0.053988405359676105
1761506774653172700,8.0781728515625,0.07647358334958552,-0.018096724639460444,-0.06358744209841825
1761506774663144000,8.08814404296875,0.053474400556087494,-0.02184087960384786,-0.05943383411688264
1761506774673115600,8.09811572265625,0.014493804776668548,-0.0116709293756634,-0.04670944103237707
1761506774683088000,8.108087890625,-0.020609657308459282,-0.010038140542060136,-0.03574150426033884
1761506774693059600,8.1180595703125,-0.020271219134330748,-0.025097762507945296,-0.01145281137926504
1761506774703031800,8.12803173828125,-0.0027396540969610215,-0.022049042461812496,-0.0027399566327047068
1761506774713002800,8.138002685546875,0.03063479223847389,-0.021804639246687293,0.0159073008618725
1761506774722974700,8.147974609375,0.06178805539309978,-0.027625892746075985,0.03244194897500565
1761506774732947000,8.157947021484375,0.06439911467432975,-0.015428528343513607,0.021332720019156114
1761506774742918700,8.167918701171875,0.052794017076492304,0.01053651851825416,0.010159332936047576
1761506774752891000,8.177890869140626,0.016617957323789595,0.028574644838273523,-0.005528932047396665
1761506774762861800,8.18786181640625,0.0047989247143268585,0.042172523688524956,-0.01810728713267017
1761506774772833800,8.197833740234374,0.013467968860268593,0.03733239018097519,-0.0051511745013878675
1761506774782805800,8.2078056640625,0.051067923936247824,0.01671776443645358,0.02411496429896215
1761506774792777700,8.21777783203125,0.06269231075644492,0.005059986803308129,0.05240629640053957
1761506774802750000,8.22775,0.052263855722546576,-0.005896218431740999,0.049346027480508196
1761506774812721000,8.237720947265625,-0.0004851531684398651,0.020731822383403778,0.025754009343415964
1761506774822692900,8.24769287109375,-0.08275777818560599,0.05035188462138176,0.0046501207963287015
1761506774832664800,8.257664794921874,-0.13101064470112322,0.06405271238945424,0.013394341935054399
1761506774842636800,8.26763671875,-0.12073299631476402,0.05256335012577474,0.011837112830491969
1761506774852607700,8.277607666015625,-0.05278817185759544,0.03318747239597142,0.021512732211581894
1761506774862579700,8.287579833984376,0.03057517100572586,0.0026703151877969502,0.05152018861523829
1761506774872551700,8.2975517578125,0.06762976715862751,-0.022208690002933143,0.061510019336431285
1761506774882523600,8.307523681640625,0.04250760086178779,-0.029122487979382276,0.02988707229384454
1761506774892496000,8.317495849609376,-0.03872574423551559,-0.015110694565996527,-0.001572463777134544
1761506774902467800,8.3274677734375,-0.10102876341342926,-0.0004970628019422292,-0.018360618006344885
1761506774912438800,8.337438720703124,-0.11779109764397144,0.0016501783598214387,-0.004797957741591381
1761506774922410800,8.34741064453125,-0.07806231384575367,-0.007307327338680625,0.01177799049630994
1761506774932382700,8.3573828125,-0.030453005930781363,-0.01875146222114563,0.02029201989376452
1761506774942354700,8.367354736328124,0.05862579196989536,-0.04283179131485521,0.020034238890546837
1761506774952326000,8.377325927734375,0.1128168163627386,-0.06744863843806087,0.0222446837649215
1761506774962297600,8.387297607421875,0.13051204752922058,-0.07695764053948223,-0.003183769718825351
1761506774972269800,8.397269775390624,0.11468436380028724,-0.05739530032686889,-0.022983135840995237
1761506774982241800,8.40724169921875,0.018954291316866875,-0.0336876039378345,-0.04343654314181767
1761506774992213800,8.4172138671875,-0.06940612918138504,0.009254369753226637,-0.0539085039573023
1761506775002185000,8.42718505859375,-0.08475508948266505,0.020736279362812637,-0.03288405301958555
1761506775012156700,8.43715673828125,-0.025440146204829213,-0.006184387723356485,0.00732856078131008
1761506775022129000,8.44712890625,0.06497720682322979,-0.03317833924144506,0.024645420197141357
1761506775032100600,8.4571005859375,0.10203647915124893,-0.02458206807076931,0.023472309880715327
1761506775042072800,8.46707275390625,0.11421207011342048,0.003745689334347844,0.025617980139900465
1761506775052043800,8.477043701171874,0.14260054472982883,0.02661861539967358,0.0050036923220963215
1761506775062015700,8.487015625,0.11893792959153651,0.03430420146621763,-0.01085589922381914
1761506775071988000,8.496988037109375,0.05227086998522281,0.039420594631880516,-0.026432696339557877
1761506775081959700,8.506959716796874,-0.016847089904546735,0.060054509598761796,-0.030794359864492433
1761506775091932000,8.516931884765626,-0.07726444146633148,0.07373568281829357,0.0020881131193600595
1761506775101902800,8.52690283203125,-0.11000760416090488,0.08169073347598314,0.012712680955469841
1761506775111874800,8.536874755859374,-0.1210603285729885,0.07147825928032397,0.020293611345940734
1761506775121846800,8.5468466796875,-0.09853519303202629,0.053492739930376405,0.018155721392767735
1761506775131818800,8.55681884765625,-0.03784896140098572,0.04354739223830402,-0.006633615057644783
1761506775141791000,8.566791015625,0.031737785044312475,0.023889409631490707,-0.02460751532256836
1761506775151761700,8.57676171875,0.07674538602828979,0.00252915315143764,-0.0319858255382278
1761506775161734000,8.58673388671875,0.07891103962957859,-0.010450228474289178,-0.05590671943665947
1761506775171705600,8.59670556640625,0.05970248129069805,-0.009009966538101434,-0.05909081566575914
1761506775181677800,8.606677734375,0.06264671804904938,-0.014662147080898283,-0.06451211462870705
1761506775191649800,8.61664990234375,0.0269482126802206,-0.008132087725028395,-0.07165188511444721
1761506775201620700,8.626620849609376,0.0028647417813539504,-0.005520005530491471,-0.06042758069485426
1761506775211592700,8.6365927734375,0.011516250270605087,-0.017065043504163623,-0.06667148005310446
1761506775221564700,8.646564697265624,0.03691314185559749,-0.0254744868658483,-0.06556149125089869
1761506775231537000,8.656536865234376,0.07567512644827365,-0.030923984443396328,-0.058824739474942905
1761506775241508600,8.666508544921875,0.08582651810646057,-0.049395606809854505,-0.05274370709478389
1761506775251479800,8.676479736328124,0.052695232877135276,-0.056729456829279656,-0.05343873102108482
1761506775261451800,8.68645166015625,0.022768881168961523,-0.037470921868830914,-0.05667118273682426
1761506775271423700,8.696423828125,0.0007739069819450377,-0.018519333965703842,-0.04317788763905409
1761506775281395700,8.706395751953124,-0.01645779832601547,-0.0018683511551469563,-0.03121638923542341
1761506775291367700,8.71636767578125,-0.05832476319670677,0.020523659525439143,-0.007588473234465346
1761506775301338600,8.726338623046875,-0.10345336021184921,0.030515988164395092,0.0036164617622547663
1761506775311310800,8.736310791015624,-0.1192524023681879,0.03783705176748335,-0.000053440798538940725
1761506775321282800,8.74628271484375,-0.09536182369291782,0.03479688035398722,0.009766816212324192
1761506775331254800,8.7562548828125,-0.04363455906510353,0.024233985285460946,0.034565247572178485
1761506775341226800,8.766226806640624,0.029113281759619712,0.024908742741867898,0.055270681988867
1761506775351197700,8.77619775390625,0.08026070067286491,0.012626987991482019,0.0710731079789577
1761506775361170000,8.786169921875,0.11176116982996463,-0.00011873100884258747,0.04683207646477967
1761506775371141600,8.7961416015625,0.14994155514240265,-0.016687077037245035,0.022914618915738538
1761506775381113900,8.80611376953125,0.16064765807390213,-0.028614903783425686,0.0041617633177054815
1761506775391085800,8.8160859375,0.1413520059734583,-0.03713511404320598,-0.012331178816105239
1761506775401056800,8.826056884765626,0.073180971544981,-0.02858165910094976,-0.02601029250929132
1761506775411028700,8.83602880859375,0.004406126004457473,-0.009967997915297747,-0.042255758692300874
1761506775421000700,8.846000732421874,-0.06799918499290943,0.02086100172102451,-0.05330293927958701
1761506775430973000,8.855972900390626,-0.15736264505386352,0.035485593270510436,-0.08129153242479079
1761506775440944600,8.865944580078125,-0.19191373395323752,0.046009909894317386,-0.06350133928412105
1761506775450915800,8.875915771484374,-0.1109866783261299,0.03979841496832669,-0.03281741752416128
1761506775460887600,8.885887451171875,-0.003347556862235069,0.009776274735480546,0.032758310031355355
1761506775470859800,8.89585986328125,0.10454232449233532,-0.01217171850465238,0.07319067095508798
1761506775480831700,8.905831787109374,0.1604471670657396,-0.02012041248679161,0.08663801715243608
1761506775490803700,8.9158037109375,0.1295645375460386,-0.007951032069697975,0.07114781718298327
1761506775500775000,8.92577490234375,0.04544306979179382,0.04081972084008157,0.03887638648627326
1761506775510746600,8.93574658203125,-0.0531342088162899,0.059508566153794525,0.02030162797232624
1761506775520718800,8.94571875,-0.1663736345052719,0.08283866140209138,0.013322062150132841
1761506775530690600,8.955690673828125,-0.220218037417531,0.0781010384209454,0.025897363336861597
1761506775540662800,8.965662841796876,-0.17756138347387312,0.04923091776743531,0.0631612297427142
1761506775550633700,8.9756337890625,-0.08211421958506107,0.010089505403116344,0.08289515909599139
1761506775560605700,8.985605712890624,0.03586392506361007,-0.011369827537238596,0.08209999013030901
1761506775570578000,8.995577880859376,0.1575467694491148,-0.033284210768714545,0.07139329354376532
1761506775580549600,9.005549560546875,0.22724399053156374,-0.04686681898459792,0.03895481288419105
1761506775590521900,9.01552197265625,0.22450609000027177,-0.04196969459280371,-0.0016383292334678117
1761506775600492800,9.025492919921875,0.15270283654928207,-0.02504844347350299,-0.041937938614515585
1761506775610464800,9.03546484375,0.02362520573735237,0.0021280980698764325,-0.05944720962168649
1761506775620436700,9.045436767578124,-0.055744683575630186,0.016924831315875053,-0.055760639196587726
1761506775630408700,9.05540869140625,-0.08083703925609588,0.010915727094188333,-0.03306624803594314
1761506775640381000,9.065380859375,-0.06117547645270824,-0.0065743368890136475,-0.006630549171834718
1761506775650352400,9.075352294921874,-0.018088029876351355,-0.010072115876898168,0.007742310947662917
1761506775660324600,9.08532470703125,0.009016834670305252,-0.01836282822974026,0.0016154175736941396
1761506775670296300,9.09529638671875,0.027678280520439146,-0.006112345400452614,-0.03575950114133302
1761506775680268500,9.1052685546875,0.033091537740826606,0.006650543930381536,-0.051358837740798476
1761506775690240500,9.115240478515625,0.07476502586603165,-0.00904613383002579,-0.04606209673928097
1761506775700211500,9.12521142578125,0.08685995280742645,-0.018987389868870375,-0.0006010974235075991
1761506775710183700,9.13518359375,0.051226329368352884,-0.025716113601997492,0.0006652121682825964
1761506775720155400,9.1451552734375,-0.009001637101173401,-0.0015424071364104747,0.005599047274695476
1761506775730127600,9.155127685546875,-0.05237783749103546,0.008845862017571926,-0.003344008631701581
1761506775740099300,9.165099365234376,-0.030828853505849838,0.006998188324272632,-0.011131662266654893
1761506775750070500,9.175070556640625,0.019193360769748688,-0.015192966021969914,-0.015955479393643328
1761506775760042500,9.18504248046875,0.06753975078761577,-0.04250723553560674,-0.04007489382214844
1761506775770014500,9.195014404296876,0.10026245521605014,-0.05204714423194527,-0.06465461467220447
1761506775779986700,9.204986572265625,0.13966624484360218,-0.06923135713636874,-0.09366790665606968
1761506775789958400,9.21495849609375,0.15686170979440212,-0.08654248435609042,-0.10072612720504402
1761506775799929600,9.2249296875,0.061652446314692494,-0.01981507286466658,-0.16196780076175926
1761506775809901600,9.234901611328125,0.035793782436847686,0.022609160562604664,-0.1778255691017024
1761506775819873500,9.24487353515625,0.10853168638944626,0.01669197240807116,-0.17309380960576234
1761506775829845500,9.254845458984375,0.2150064402490854,0.009273732040822505,-0.16885167852398006
1761506775839817500,9.2648173828125,0.3487204986900091,-0.019034224685281514,-0.12985508145783095
1761506775849788400,9.274788330078126,0.4713490994930267,-0.04106383179426193,-0.09307892778697423
1761506775859760600,9.2847607421875,0.4417828132688999,-0.02256181428954005,-0.0865855197802186
1761506775869732600,9.294732666015625,0.21004969462454318,0.04881934129185974,-0.13678622329472565
1761506775879704600,9.30470458984375,0.058254036048054694,0.08089234963990748,-0.11790075029721483
1761506775889676500,9.314676513671875,-0.13642156383395193,0.05506861094497144,-0.033270483637461434
1761506775899647500,9.3246474609375,-0.2386310614645481,0.1787991816405207,-0.07371908787651918
1761506775909619500,9.334619384765626,-0.2599006439864635,0.1490340849086642,-0.019329316908027975
1761506775919591400,9.34459130859375,-0.22561025184988975,0.07230623453706503,0.058513810362247745
1761506775929563600,9.354563720703124,-0.16954466575682162,0.05646941765360534,0.09966218776796013
1761506775939535600,9.36453564453125,-0.11214286262392997,0.03299187675863504,0.1782180572843179
1761506775949506600,9.374506591796875,-0.08670622355043887,0.00655146747007966,0.2278131139227189
1761506775959478500,9.384478515625,-0.09969897611439227,-0.0009832388836890458,0.22375952768297866
1761506775969450500,9.394450439453125,-0.14925824905335902,-0.016497107423096895,0.25031236610375346
1761506775979422500,9.40442236328125,-0.16336100868582726,-0.04327734312526881,0.29360821300009265
1761506775989394400,9.41439453125,-0.10939034904539585,-0.05664272839389741,0.3488131819421425
1761506775999365600,9.42436572265625,-0.03164367702007294,-0.10675642034523189,0.42135158126726746
1761506776009337300,9.43433740234375,0.07218377720117569,-0.14480309627540408,0.4826906142512336
1761506776019309600,9.4443095703125,0.14066577727496624,-0.1697922838423401,0.5312066252149641
1761506776029281500,9.454281494140625,0.12208324187994003,-0.20132402492053805,0.35717641154192387
1761506776039253500,9.46425341796875,0.17345277911126614,-0.17203253704980015,0.22580613974817096
1761506776049224700,9.474224609375,0.041837154254317284,-0.1953139708507806,0.05287433403739705
1761506776059196400,9.484196533203125,-0.09106441875994205,-0.2324688125077635,-0.10008013005224056
1761506776069168600,9.494168701171875,-0.23870354217886924,-0.12249927533492445,-0.17167327528335152
1761506776079140400,9.504140380859376,-0.4432295049458742,-0.0995478772059083,-0.23087116805277763
1761506776089112600,9.514112548828125,-0.5708230346798896,0.01831139030344784,-0.24227411240832877
1761506776099083500,9.52408349609375,-0.6220102010816335,0.07512896380759775,-0.29030221199095246
1761506776109055500,9.534055419921875,-0.6154290691256523,0.12962569314874708,-0.3220134012892842
1761506776119027700,9.54402783203125,-0.5245820925086736,0.1950499861523509,-0.3931872707955539
1761506776128999400,9.55399951171875,-0.39479660568833347,0.22228395697139203,-0.42422724630143493
1761506776138971600,9.5639716796875,-0.26350597500205036,0.24801994431763885,-0.4188525675257668
1761506776148942600,9.573942626953125,-0.13262275607287882,0.2621816675957292,-0.43143414547294373
1761506776158914600,9.58391455078125,-0.024418401941657064,0.2485486443668604,-0.42197899245060977
1761506776168886500,9.593886474609375,0.056281859192252155,0.23691592810973525,-0.4338328771777451
1761506776178858500,9.6038583984375,0.1341103642821312,0.22669943532608447,-0.44491106482464815
1761506776188830700,9.613830810546874,0.2351449729144573,0.19004136421009898,-0.3986647158259526
1761506776198801400,9.623801513671875,0.33712884509563446,0.14314970304518937,-0.31721922581531103
1761506776208773600,9.633773681640625,0.4230687604486942,0.11342676495462656,-0.183580588964466
1761506776218745300,9.643745361328126,0.4719330368608236,0.06952551777735352,-0.03360616816550027
1761506776228717600,9.653717529296875,0.466076127526164,0.04387340932227671,0.08395779249197803
1761506776238689500,9.663689453125,0.4006353948444128,0.015820523335784674,0.1421031714006327
1761506776248660500,9.673660400390625,0.3226449771910906,0.007662789712846279,0.14694743309402838
1761506776258632400,9.683632568359375,0.2995972790807485,-0.03616546529345214,0.1640984561149031
1761506776268604400,9.6936044921875,0.2876443909585476,-0.07787694734148681,0.19267719260640442
1761506776278576600,9.70357666015625,0.27143793704509733,-0.10468765124715865,0.17019629806596784
1761506776288548400,9.71354833984375,0.16854045715034008,-0.08930398495867847,0.13706267474908382
1761506776298519600,9.72351953125,0.014831658428907393,-0.05684161196686327,0.10285574137857183
1761506776308491500,9.733491455078125,-0.11266484067142009,-0.03166355076432228,0.04821837972402572
1761506776318463500,9.74346337890625,-0.21322014135420322,-0.01082863333262503,0.01868565099291736
1761506776328435500,9.753435546875,-0.2948287495046854,-0.001777604131773114,0.017965965266106648
1761506776338407400,9.763407470703125,-0.3344891442418098,0.01680010895766318,0.025812573413527568
1761506776348378400,9.77337841796875,-0.34807051034867764,0.020290143030509352,0.029026053284027145
1761506776358350600,9.7833505859375,-0.3177718181967735,0.01565240022726357,0.056587372344313186
1761506776368322600,9.793322509765625,-0.24508944382369516,0.0031743191871792076,0.08474385570259764
1761506776378294500,9.80329443359375,-0.1608276908159256,-0.018867197555303573,0.14191796929314732
1761506776388266500,9.8132666015625,-0.10143149899542331,-0.055872328543290495,0.1757115543561056
1761506776398237400,9.823237548828125,-0.06705401309728622,-0.08818659830130636,0.1734771281012334
1761506776408209700,9.833209716796874,-0.0424199225783348,-0.09177030200697481,0.1619551970085129
1761506776418181400,9.843181396484376,-0.004601940837502479,-0.10877740477882325,0.15246162993824108
1761506776428153600,9.853153564453125,0.03955518079698086,-0.10478234379328787,0.16509999784026294
1761506776438125600,9.86312548828125,0.10169044219255446,-0.0928773864660412,0.17980114349098875
1761506776448096500,9.873096435546875,0.17767711880803108,-0.09489968607388437,0.18794868451347574
1761506776458068700,9.88306884765625,-0.11185820046365261,-0.05009644855558872,0.18939535792414097
1761506776468040400,9.89304052734375,0.5045791689217091,0.11927373741716146,-0.058646903256583026
1761506776478012700,9.9030126953125,1.992113728415966,0.1519119053672999,-0.43358365165702994
1761506776487984400,9.912984375,1.6808359484136104,-0.40518955101743337,0.028329200443532317
1761506776497955600,9.92295556640625,1.3943985951572655,-0.2881752098996192,0.6102768739942461
1761506776507927300,9.93292724609375,0.7001198612004518,0.19318967217318714,0.6470464426606893
