time,seconds_elapsed,z,y,x
1761506766645819400,0.0708193359375,-0.022741885855793953,-0.0934806615114212,0.1635793298482895
1761506766655791600,0.08079150390625,-0.04696162790060043,-0.054232072085142136,0.14702215790748596
1761506766665763300,0.090763427734375,-0.07670646905899048,-0.009167923592031002,0.1219405084848404
1761506766675735600,0.100735595703125,-0.11025574803352356,0.04082201421260834,0.08485041558742523
1761506766685706500,0.11070654296875,-0.14015212655067444,0.0857950896024704,0.04123876243829727
1761506766695678500,0.120678466796875,-0.15836192667484283,0.10887589305639267,0.005275945644825697
1761506766705650700,0.130650634765625,-0.16034704446792603,0.12178876250982285,-0.01237814873456955
1761506766715622400,0.140622314453125,-0.15149860084056854,0.11831273883581161,-0.016887953504920006
1761506766725594600,0.1505947265625,-0.1412896364927292,0.09137886017560959,-0.018445901572704315
1761506766735565300,0.1605654296875,-0.12825244665145874,0.0514678992331028,-0.019990647211670876
1761506766745537500,0.17053759765625,-0.12361535429954529,0.016620434820652008,-0.02789943665266037
1761506766755509500,0.180509521484375,-0.1257997453212738,-0.014413063414394855,-0.04826868698000908
1761506766765481500,0.1904814453125,-0.13106481730937958,-0.030728651210665703,-0.08142158389091492
1761506766775453400,0.200453369140625,-0.141645610332489,-0.03202391788363457,-0.11956911534070969
1761506766785424400,0.21042431640625,-0.13261163234710693,-0.023765189573168755,-0.1499379277229309
1761506766795396600,0.220396728515625,-0.12322558462619781,-0.008186621591448784,-0.1721465289592743
1761506766805368300,0.230368408203125,-0.10191071033477783,0.008957210928201675,-0.18561626970767975
1761506766815340500,0.240340576171875,-0.08162544667720795,0.02518540434539318,-0.1713898479938507
1761506766825312300,0.250312255859375,-0.05996968224644661,0.03209657222032547,-0.14086522161960602
1761506766835283500,0.260283447265625,-0.036694079637527466,0.03340856358408928,-0.10219139605760574
1761506766845255400,0.27025537109375,-0.014617802575230598,0.01410757191479206,-0.06478889286518097
1761506766855227400,0.280227294921875,0.007025588303804398,0.0010835484135895967,-0.02584056928753853
1761506766865199600,0.29019970703125,0.026504747569561005,-0.008100362494587898,0.010427157394587994
1761506766875171300,0.30017138671875,0.03427577763795853,-0.0021331096068024635,0.03932235762476921
1761506766885142500,0.310142578125,0.04073208197951317,0.008243365213274956,0.052220579236745834
1761506766895114500,0.320114501953125,0.03658321499824524,0.017031745985150337,0.03618708252906799
1761506766905086500,0.33008642578125,0.03064436838030815,0.038626786321401596,0.011391187086701393
1761506766915058400,0.340058349609375,0.02790161781013012,0.07181526720523834,-0.009856163524091244
1761506766925030400,0.350030517578125,0.039851486682891846,0.09448995441198349,-0.02009415253996849
1761506766935001300,0.36000146484375,0.054299287497997284,0.09430568665266037,-0.014682252891361713
1761506766944973600,0.3699736328125,0.07336565852165222,0.07762524485588074,0.0033358957152813673
1761506766954945500,0.379945556640625,0.08242819458246231,0.03682970628142357,0.03204939514398575
1761506766964917500,0.38991748046875,0.0776294469833374,-0.0030657779425382614,0.05752652511000633
1761506766974889500,0.399889404296875,0.06653251498937607,-0.027572281658649445,0.08519613742828369
1761506766984860400,0.4098603515625,0.052267029881477356,-0.01826959289610386,0.10285928845405579
1761506766994832600,0.41983251953125,0.04956163838505745,-0.021052086725831032,0.11182525753974915
1761506767004804400,0.429804443359375,0.06485244631767273,-0.045678868889808655,0.12731607258319855
1761506767014776600,0.439776611328125,0.08113972842693329,-0.06264381110668182,0.14493125677108765
1761506767024748500,0.44974853515625,0.08404923230409622,-0.06177482008934021,0.14580078423023224
1761506767034719500,0.459719482421875,0.07563749700784683,-0.03872853145003319,0.13549521565437317
1761506767044691500,0.46969140625,0.07403373718261719,-0.020541537553071976,0.13166771829128265
1761506767054663400,0.479663330078125,0.07596044987440109,0.01165256928652525,0.134506493806839
1761506767064635400,0.489635498046875,0.06998565047979355,0.048358384519815445,0.12689705193042755
1761506767074607400,0.499607421875,0.06523290276527405,0.07591335475444794,0.12026803195476532
1761506767084578600,0.50957861328125,0.06325177848339081,0.08573375642299652,0.10416416823863983
1761506767094550300,0.51955029296875,0.0622420534491539,0.08049507439136505,0.08586008101701736
1761506767104522500,0.5295224609375,0.058050770312547684,0.07206244021654129,0.07670706510543823
1761506767114494500,0.539494384765625,0.059985943138599396,0.06139152869582176,0.08419974148273468
1761506767124466400,0.549466552734375,0.06322860717773438,0.047387029975652695,0.09249948710203171
1761506767134437600,0.559437744140625,0.06527532637119293,0.029212497174739838,0.10440041869878769
1761506767144409300,0.569409423828125,0.06894835829734802,0.017832010984420776,0.11385463923215866
1761506767154381600,0.579381591796875,0.0680716410279274,0.0025958006735891104,0.11310948431491852
1761506767164353300,0.589353271484375,0.06274984776973724,-0.015685735270380974,0.09299542754888535
1761506767174325500,0.599325439453125,0.042457010596990585,-0.01575024425983429,0.06958175450563431
1761506767184296400,0.60929638671875,0.024320082738995552,-0.004290128126740456,0.05137000232934952
1761506767194268400,0.619268310546875,0.006276518572121859,0.008825164288282394,0.049890175461769104
1761506767204240600,0.62924072265625,0.005495679564774036,0.004772632382810116,0.05791933834552765
1761506767214212400,0.63921240234375,0.01314785610884428,0.0019395380513742566,0.07556082308292389
1761506767224184600,0.6491845703125,0.02472115494310856,-0.004690401256084442,0.0819723829627037
1761506767234156300,0.65915625,0.030693909153342247,-0.012342935428023338,0.07607316970825195
1761506767244127500,0.66912744140625,0.03650732338428497,-0.022676533088088036,0.06309931725263596
1761506767254099700,0.679099609375,0.040364403277635574,-0.028776416555047035,0.05752643942832947
1761506767264071400,0.689071533203125,0.04118678718805313,-0.022144345566630363,0.06721208989620209
1761506767274043600,0.699043701171875,0.043362416326999664,-0.028760278597474098,0.08570946007966995
1761506767284015400,0.709015380859375,0.04634435474872589,-0.039154332131147385,0.09754481166601181
1761506767293986600,0.718986572265625,0.04777808487415314,-0.025462983176112175,0.09001249074935913
1761506767303958500,0.72895849609375,0.050577327609062195,-0.013711254112422466,0.06691516190767288
1761506767313930500,0.738930419921875,0.05801493301987648,0.0036728479899466038,0.03930984064936638
1761506767323902700,0.74890283203125,0.0631505697965622,0.017678411677479744,0.015884410589933395
1761506767333874400,0.75887451171875,0.07074464857578278,0.02279694192111492,0.0032722039613872766
1761506767343845600,0.768845703125,0.08082765340805054,0.01814786158502102,0.013031357899308205
1761506767353817300,0.7788173828125,0.09131962060928345,-0.0033798599615693092,0.02333969622850418
1761506767363789600,0.78878955078125,0.09152122586965561,-0.018428051844239235,0.03687920793890953
1761506767373761500,0.798761474609375,0.09363116323947906,-0.030530449002981186,0.04342686012387276
1761506767383733500,0.8087333984375,0.0988411158323288,-0.03493132442235947,0.044088657945394516
1761506767393704400,0.818704345703125,0.10285837948322296,-0.03471588343381882,0.029051870107650757
1761506767403676400,0.828676513671875,0.10592047870159149,-0.023171082139015198,0.005856535397469997
1761506767413648600,0.838648681640625,0.1145390048623085,-0.026551559567451477,-0.014248963445425034
1761506767423620400,0.848620361328125,0.11604848504066467,-0.036172494292259216,-0.02728433720767498
1761506767433592600,0.858592529296875,0.10981189459562302,-0.055478282272815704,-0.03572149947285652
1761506767443563500,0.8685634765625,0.0991286188364029,-0.07830770313739777,-0.04797656834125519
1761506767453535500,0.878535400390625,0.09189928323030472,-0.10151147842407227,-0.06327667087316513
1761506767463507500,0.888507568359375,0.08843983709812164,-0.11787740141153336,-0.07872620224952698
1761506767473479400,0.8984794921875,0.0886065810918808,-0.12667284905910492,-0.07787430286407471
1761506767483451600,0.90845166015625,0.08492982387542725,-0.11723379790782928,-0.07276955246925354
1761506767493422600,0.918422607421875,0.06492096185684204,-0.10176363587379456,-0.0608799047768116
1761506767503394600,0.92839453125,0.03880973532795906,-0.08642090111970901,-0.03818098455667496
1761506767513366500,0.938366455078125,0.021322956308722496,-0.054883506149053574,-0.01987854391336441
1761506767523338500,0.94833837890625,0.018782300874590874,-0.0212927907705307,-0.004394927062094212
1761506767533310500,0.958310546875,0.02817455306649208,0.009021756239235401,0.00001629337202757597
1761506767543281700,0.96828173828125,0.034396231174468994,0.03677269071340561,-0.0032170505728572607
1761506767553253400,0.97825341796875,0.043906450271606445,0.04746990650892258,0.006807450670748949
1761506767563225600,0.9882255859375,0.0472567081451416,0.049865420907735825,0.02057732455432415
1761506767573197600,0.998197509765625,0.04688828065991402,0.03190106898546219,0.028183335438370705
1761506767583169500,1.00816943359375,0.042960118502378464,0.01090523973107338,0.042570799589157104
1761506767593140500,1.018140380859375,0.04508474841713905,0.008110614493489265,0.06472495198249817
1761506767603112400,1.028112548828125,0.050688840448856354,0.01620236411690712,0.08775170892477036
1761506767613084700,1.038084716796875,0.05325274169445038,0.03833303973078728,0.10470754653215408
1761506767623056400,1.048056396484375,0.052150458097457886,0.056724295020103455,0.11101923882961273
1761506767633028600,1.058028564453125,0.04459591954946518,0.07760430127382278,0.10702507197856903
1761506767642999300,1.067999267578125,0.03971727564930916,0.08841167390346527,0.10772335529327393
1761506767652971300,1.07797119140625,0.04554007574915886,0.09323195368051529,0.09397278726100922
1761506767662943500,1.087943603515625,0.04639681428670883,0.08605580031871796,0.08738759160041809
1761506767672915500,1.09791552734375,0.04966568946838379,0.06604732573032379,0.07852160185575485
1761506767682887400,1.107887451171875,0.05023187771439552,0.03769318014383316,0.07189592719078064
1761506767692858400,1.1178583984375,0.046273358166217804,0.010807893238961697,0.06875868886709213
1761506767702830300,1.127830322265625,0.03542817011475563,-0.005901045631617308,0.061256565153598785
1761506767712802300,1.13780224609375,0.02296365052461624,-0.007670112885534763,0.055128324776887894
1761506767722774300,1.147774169921875,0.01470598578453064,0.012126228772103786,0.05710918456315994
1761506767732746200,1.157746337890625,0.015738196671009064,0.033438362181186676,0.05477920174598694
1761506767742717200,1.16771728515625,0.012273158878087997,0.04494960978627205,0.042369671165943146
1761506767752689400,1.177689453125,0.010180111974477768,0.051282644271850586,0.026023322716355324
1761506767762661400,1.187661376953125,0.009000597521662712,0.05120807886123657,0.017051931470632553
1761506767772633300,1.19763330078125,0.005186143331229687,0.050463348627090454,0.011794956400990486
1761506767782605300,1.207605224609375,0.0018489360809326172,0.04045092687010765,0.008368534035980701
1761506767792576300,1.217576171875,-0.0006242557428777218,0.02971670776605606,0.010511768981814384
1761506767802548500,1.227548583984375,0.0034487824887037277,0.02003558538854122,0.016277246177196503
1761506767812520200,1.237520263671875,0.006912673823535442,0.01638459786772728,0.02430884912610054
1761506767822492400,1.247492431640625,0.0106909004971385,0.008180729113519192,0.024357054382562637
1761506767832464400,1.25746435546875,0.014831122010946274,-0.0002677881857380271,0.014586277306079865
1761506767842435300,1.267435302734375,0.01529078371822834,-0.0006784477736800909,-0.0013695190427824855
1761506767852407600,1.277407470703125,0.014040695503354073,0.0012126630172133446,-0.01866328902542591
1761506767862379300,1.287379150390625,0.015281994827091694,0.004053456708788872,-0.0337439700961113
1761506767872351500,1.2973515625,0.01181083358824253,0.007564424071460962,-0.04289329797029495
1761506767882323200,1.3073232421875,0.010743172839283943,0.009755140170454979,-0.04046102613210678
1761506767892294400,1.31729443359375,0.013178745284676552,0.01837031915783882,-0.023304468020796776
1761506767902266400,1.327266357421875,0.021199654787778854,0.01859429106116295,-0.007725776173174381
1761506767912238300,1.33723828125,0.028319843113422394,0.019317172467708588,0.006763536483049393
1761506767922210600,1.34721044921875,0.03321952745318413,0.005972603335976601,0.009689019061625004
1761506767932182300,1.357182373046875,0.03796912357211113,-0.0061943382024765015,0.005938931368291378
1761506767942153500,1.367153564453125,0.03594032675027847,-0.011851158924400806,-0.0006233635940589011
1761506767952125200,1.377125244140625,0.03078494407236576,-0.009651966392993927,-0.011211474426090717
1761506767962097400,1.387097412109375,0.02938918210566044,0.0050782435573637486,-0.01026099268347025
1761506767972069400,1.3970693359375,0.027641231194138527,0.017982224002480507,-0.009859263896942139
1761506767982041300,1.407041259765625,0.028275329619646072,0.02545345574617386,-0.004366493318229914
1761506767992012300,1.41701220703125,0.02719081938266754,0.022016288712620735,0.0006116569275036454
1761506768001984300,1.426984375,0.02500995807349682,0.0109146349132061,0.006516683846712112
1761506768011956500,1.43695654296875,0.02087262086570263,-0.0018299001967534423,0.009811105206608772
1761506768021928200,1.44692822265625,0.016764694824814796,-0.014454349875450134,0.003103401744738221
1761506768031900400,1.456900390625,0.009497919119894505,-0.02747795358300209,-0.014895901083946228
1761506768041871400,1.466871337890625,0.007137026637792587,-0.03284502401947975,-0.039680611342191696
1761506768051843300,1.47684326171875,0.0061161695048213005,-0.04083286225795746,-0.06714513152837753
1761506768061815300,1.486815185546875,-0.002897033002227545,-0.02303469367325306,-0.11045824736356735
1761506768071787300,1.496787353515625,-0.012878652662038803,-0.010548897087574005,-0.1569869965314865
1761506768081759500,1.506759521484375,-0.021306226029992104,0.0008198710856959224,-0.18646551668643951
1761506768091730400,1.51673046875,-0.03705869987607002,-0.004231798462569714,-0.16831733286380768
1761506768101702400,1.526702392578125,-0.057775963097810745,-0.0013702318537980318,-0.1284940093755722
1761506768111674400,1.53667431640625,-0.07180006057024002,-0.02249043807387352,-0.08722782880067825
1761506768121646300,1.546646240234375,-0.07508213818073273,-0.04883921891450882,-0.05506882444024086
1761506768131618300,1.556618408203125,-0.07320324331521988,-0.07067416608333588,-0.035691484808921814
1761506768141589500,1.566589599609375,-0.07680969685316086,-0.06071527302265167,-0.03298065438866615
1761506768151561200,1.576561279296875,-0.06919822096824646,-0.026747195050120354,-0.03042166866362095
1761506768161533400,1.586533447265625,-0.05847260355949402,0.004288218915462494,-0.027144914492964745
1761506768171505400,1.59650537109375,-0.05283393710851669,0.02348906174302101,-0.03641142696142197
1761506768181477400,1.606477294921875,-0.0490352064371109,0.03401147574186325,-0.040923357009887695
1761506768191448600,1.616448486328125,-0.03769097477197647,0.0371977798640728,-0.028573624789714813
1761506768201420300,1.626420166015625,-0.026960568502545357,0.032652031630277634,-0.0037316579837352037
1761506768211392500,1.636392578125,-0.014959445223212242,0.01906134933233261,0.02790946513414383
1761506768221364200,1.6463642578125,-0.0044857654720544815,0.0029340432956814766,0.05511072650551796
1761506768231336400,1.65633642578125,0.004769287072122097,-0.021732376888394356,0.06505700945854187
1761506768241307100,1.66630712890625,0.0067911590449512005,-0.030800441280007362,0.06782643496990204
1761506768251279400,1.676279296875,0.012765845283865929,-0.031172996386885643,0.052335187792778015
1761506768261251300,1.686251220703125,0.015035390853881836,-0.01953285001218319,0.040529392659664154
1761506768271223300,1.696223388671875,0.020108144730329514,-0.00001565227285027504,0.026250939816236496
1761506768281195500,1.706195556640625,0.029267555102705956,0.013794967904686928,0.02074591815471649
1761506768291166200,1.716166259765625,0.040322478860616684,0.009272042661905289,0.02597496286034584
1761506768301138400,1.726138427734375,0.04302452132105827,-0.012093965895473957,0.02332032471895218
1761506768311110100,1.736110107421875,0.03553389385342598,-0.03289656713604927,0.033364251255989075
1761506768321082400,1.746082275390625,0.03169228509068489,-0.04749921336770058,0.04211726039648056
1761506768331054300,1.756054443359375,0.026632653549313545,-0.0646318644285202,0.03610621765255928
1761506768341025300,1.766025390625,0.023331664502620697,-0.06530777364969254,0.021523013710975647
1761506768350997500,1.77599755859375,0.022863559424877167,-0.056711550801992416,0.0028992900624871254
1761506768360969200,1.78596923828125,0.024674242362380028,-0.05053328350186348,-0.026298541575670242
1761506768370941400,1.79594140625,0.018880993127822876,-0.044961102306842804,-0.051554158329963684
1761506768380913200,1.8059130859375,0.009770319797098637,-0.04284628853201866,-0.06964661180973053
1761506768390884400,1.81588427734375,0.004360640421509743,-0.0387551374733448,-0.077391617000103
1761506768400856300,1.825856201171875,-0.0028357538394629955,-0.018010975793004036,-0.06175193935632706
1761506768410828300,1.835828369140625,-0.00586662208661437,0.008274107240140438,-0.019510146230459213
1761506768420800500,1.845800537109375,0.0036182254552841187,0.025356687605381012,0.019607428461313248
1761506768430772200,1.855772216796875,0.006054756231606007,0.02464214153587818,0.04593271017074585
1761506768440743400,1.865743408203125,0.007776756305247545,0.002697960939258337,0.048498932272195816
1761506768450715400,1.87571533203125,0.001822387333959341,-0.0287238247692585,0.01844749227166176
1761506768460687400,1.885687255859375,-0.004596363287419081,-0.04577844217419624,-0.027683252468705177
1761506768470659300,1.895659423828125,-0.0054330965504050255,-0.03426647558808327,-0.07101346552371979
1761506768480631300,1.90563134765625,0.00562621233984828,-0.01006366778165102,-0.09788715839385986
1761506768490602200,1.915602294921875,0.024108774960041046,0.0039330823346972466,-0.11448728293180466
1761506768500574500,1.925574462890625,0.040773507207632065,-0.021096371114253998,-0.13518722355365753
1761506768510546400,1.93554638671875,0.05663023889064789,-0.02897043339908123,-0.14632786810398102
1761506768520518400,1.945518310546875,0.06751671433448792,-0.012267088517546654,-0.1273360699415207
1761506768530490400,1.955490478515625,0.07142523676156998,0.006110144779086113,-0.10837747156620026
1761506768540461300,1.96546142578125,0.08946016430854797,-0.003984833601862192,-0.10294035822153091
1761506768550433300,1.975433349609375,0.0881180465221405,-0.006925252731889486,-0.08898601680994034
1761506768560405200,1.9854052734375,0.07949712872505188,-0.016847390681505203,-0.052797384560108185
1761506768570377500,1.99537744140625,0.06000804156064987,-0.019199976697564125,0.012443605810403824
1761506768580349400,2.005349365234375,0.04761502146720886,-0.014690181240439415,0.09207051992416382
1761506768590320400,2.0153203125,0.04741311073303223,-0.009966148994863033,0.14212296903133392
1761506768600292400,2.025292236328125,0.0561663880944252,-0.018195848912000656,0.14171123504638672
1761506768610264300,2.035264404296875,0.0702773854136467,-0.01575019210577011,0.09825462102890015
1761506768620236300,2.045236328125,0.0899304449558258,-0.020395010709762573,0.03665544092655182
1761506768630208300,2.055208251953125,0.08016441017389297,-0.01830001175403595,-0.025331420823931694
1761506768640179500,2.065179443359375,0.06985931098461151,0.004265219438821077,-0.030222849920392036
1761506768650151200,2.075151123046875,0.06164843589067459,0.023609153926372528,-0.0030977479182183743
1761506768660123400,2.085123291015625,0.053900234401226044,0.025033678859472275,0.03781905770301819
1761506768670095400,2.095095458984375,0.0503876656293869,0.009062354452908039,0.06721096485853195
1761506768680067300,2.1050673828125,0.047105319797992706,-0.01322244480252266,0.07426461577415466
1761506768690038500,2.11503857421875,0.043542712926864624,-0.01607431098818779,0.07441606372594833
1761506768700010200,2.12501025390625,0.03973492234945297,-0.005269866436719894,0.0649767518043518
1761506768709982500,2.134982421875,0.03660954162478447,0.009985527023673058,0.050589606165885925
1761506768719954200,2.1449541015625,0.028831779956817627,0.01933109387755394,0.025085581466555595
1761506768729926400,2.154926513671875,0.020653370767831802,0.02144470624625683,0.007814701646566391
1761506768739897300,2.1648974609375,0.007978055626153946,0.03744950518012047,0.016975177451968193
1761506768749869300,2.174869384765625,0.006293719634413719,0.051090069115161896,0.042241062968969345
1761506768759841500,2.184841552734375,0.0032878099009394646,0.054578009992837906,0.062110643833875656
1761506768769813200,2.194813232421875,0.007171571720391512,0.03640614449977875,0.07083761692047119
1761506768779785500,2.204785400390625,0.0023864037357270718,0.004455403424799442,0.050951261073350906
1761506768789756400,2.21475634765625,-0.0014748810790479183,-0.03296181932091713,0.010500188916921616
1761506768799728400,2.224728271484375,-0.011923527345061302,-0.04486561566591263,-0.033675793558359146
1761506768809700400,2.234700439453125,-0.020018815994262695,-0.03502489626407623,-0.07010436803102493
1761506768819672300,2.24467236328125,-0.020367957651615143,-0.01387806423008442,-0.08690012246370316
1761506768829644500,2.25464453125,-0.020575711503624916,0.00251694000326097,-0.09645077586174011
1761506768839615200,2.264615234375,-0.0198124498128891,0.0043827504850924015,-0.09494689106941223
1761506768849587500,2.27458740234375,-0.016275161877274513,0.00031857448630034924,-0.09368745237588882
1761506768859559400,2.284559326171875,-0.01198560930788517,-0.002490794053301215,-0.07934526354074478
1761506768869531400,2.294531494140625,-0.006248472724109888,-0.005740766879171133,-0.05885777249932289
1761506768879503400,2.30450341796875,0.0006882622838020325,-0.008521373383700848,-0.04851751774549484
1761506768889474300,2.314474365234375,-0.0008244575001299381,-0.019884970039129257,-0.0522039420902729
1761506768899446300,2.3244462890625,0.0005060574039816856,-0.03474940359592438,-0.06348882615566254
1761506768909418200,2.334418212890625,-0.0022325501777231693,-0.045938070863485336,-0.07780890166759491
1761506768919390500,2.344390380859375,-0.0024658427573740482,-0.0534130297601223,-0.09915973246097565
1761506768929362200,2.354362060546875,-0.00513984402641654,-0.04401480406522751,-0.10925338417291641
1761506768939333400,2.36433349609375,-0.008481046184897423,-0.017183460295200348,-0.09340278059244156
1761506768949305300,2.374305419921875,-0.011675702407956123,0.01775651052594185,-0.051557764410972595
1761506768959277300,2.38427734375,-0.0092474315315485,0.04893520101904869,-0.0002096220850944519
1761506768969249300,2.394249267578125,-0.006080323364585638,0.0565364696085453,0.04257968068122864
1761506768979221200,2.40422119140625,0.004969398025423288,0.04744390398263931,0.07094714045524597
1761506768989192200,2.414192138671875,0.012561501935124397,0.01752377487719059,0.0746021494269371
1761506768999164400,2.424164306640625,0.010212060995399952,-0.008057751692831516,0.055716607719659805
1761506769009136400,2.434136474609375,-0.007209844421595335,0.012974658980965614,0.03615980222821236
1761506769019108400,2.4441083984375,-0.02879982441663742,0.11049242317676544,-0.007766108959913254
1761506769029080300,2.454080322265625,-0.04500983655452728,0.1372104287147522,-0.050192251801490784
1761506769039051300,2.46405126953125,-0.039665669202804565,0.16903147101402283,-0.05504186823964119
1761506769049023500,2.4740234375,-0.03385785222053528,0.17077146470546722,-0.04010709375143051
1761506769058995200,2.4839951171875,-0.04296213388442993,0.14427566528320312,-0.021827423945069313
1761506769068967400,2.493967529296875,-0.04628705233335495,0.08904998749494553,0.009531676769256592
1761506769078939400,2.503939453125,-0.05158567428588867,0.030920907855033875,0.04522256180644035
1761506769088910300,2.513910400390625,-0.05449247360229492,-0.008585852570831776,0.05319355055689812
1761506769098882600,2.523882568359375,-0.05797296017408371,-0.02168887108564377,0.040173355489969254
1761506769108854300,2.533854248046875,-0.05715180188417435,-0.01130186952650547,0.019751183688640594
1761506769118826500,2.543826416015625,-0.05535869300365448,0.015986742451786995,-0.0008206701604649425
1761506769128798200,2.553798095703125,-0.05283496528863907,0.0411762073636055,-0.013658862560987473
1761506769138769400,2.563769287109375,-0.04852011054754257,0.055235300213098526,-0.01358163170516491
1761506769148741000,2.5737412109375,-0.03637491166591644,0.056150998920202255,-0.0003572992864064872
1761506769158713300,2.58371337890625,-0.023982958868145943,0.037257734686136246,0.011505485512316227
1761506769168685300,2.593685302734375,-0.019087430089712143,0.009802156127989292,0.017913896590471268
1761506769178657300,2.6036572265625,-0.011039623990654945,-0.011563852429389954,0.027095410972833633
1761506769188628500,2.61362841796875,-0.0030201179906725883,-0.030276382341980934,0.027122214436531067
1761506769198600200,2.62360009765625,-0.003404412418603897,-0.03848930448293686,0.01828371360898018
1761506769208572400,2.633572509765625,-0.004766846541315317,-0.025817813351750374,0.009305812418460846
1761506769218544000,2.643544189453125,-0.00397375738248229,-0.00021551467943936586,0.0037781554274260998
1761506769228516400,2.653516357421875,-0.0023790239356458187,0.022900648415088654,0.002645995235070586
1761506769238487600,2.663487548828125,0.0001850672997534275,0.03429045528173447,0.001250232569873333
1761506769248459300,2.673459228515625,-0.0005754525773227215,0.029522793367505074,0.005576531868427992
1761506769258431500,2.683431396484375,-0.0006912997923791409,0.012285483069717884,0.009226394817233086
1761506769268403200,2.6934033203125,-0.0007245861925184727,-0.005049174651503563,0.014640565030276775
1761506769278375400,2.70337548828125,0.0071549080312252045,-0.001910106628201902,0.03580577298998833
1761506769288346400,2.713346435546875,0.015316588804125786,0.00037116638850420713,0.049372732639312744
1761506769298318300,2.723318359375,0.019230369478464127,0.005160328932106495,0.049017202109098434
1761506769308290600,2.73329052734375,0.019017042592167854,0.0061325388960540295,0.04041822627186775
1761506769318262300,2.74326220703125,0.017410092055797577,0.003640619106590748,0.028232133015990257
1761506769328234500,2.753234375,0.01401163637638092,0.0025889193639159203,0.007140361703932285
1761506769338205400,2.763205322265625,0.01159881241619587,0.0007534687174484134,-0.004675018601119518
1761506769348177400,2.773177490234375,0.007895566523075104,-0.012036054395139217,-0.021029064431786537
1761506769358149400,2.7831494140625,-0.0027994224801659584,-0.018801815807819366,-0.034842349588871
1761506769368121300,2.793121337890625,-0.009163960814476013,-0.005761889740824699,-0.0317511260509491
1761506769378093600,2.803093505859375,-0.008796710520982742,0.024096939712762833,-0.01294148713350296
1761506769388064500,2.813064453125,-0.007475430145859718,0.04329318553209305,0.005193233489990234
1761506769398036500,2.823036376953125,0.0007441500201821327,0.050132714211940765,0.022280074656009674
1761506769408008400,2.833008544921875,0.0004989029839634895,0.04326475039124489,0.035718634724617004
1761506769417980400,2.84298046875,0.004037977196276188,0.02112242951989174,0.039267297834157944
1761506769427952400,2.852952392578125,-0.0007614200003445148,-0.0021402568090707064,0.034272629767656326
1761506769437923300,2.86292333984375,-0.00998847559094429,-0.01267918385565281,0.022290002554655075
1761506769447895300,2.872895263671875,-0.017023857682943344,-0.0024363980628550053,0.0030518833082169294
1761506769457867300,2.8828671875,-0.017012139782309532,0.032052602618932724,-0.000421411357820034
1761506769467839500,2.892839599609375,-0.008326506242156029,0.0689493715763092,0.015559951774775982
1761506769477811500,2.9028115234375,-0.0010760496370494366,0.08001027256250381,0.03062971495091915
1761506769487782400,2.912782470703125,0.0006728107109665871,0.07093964517116547,0.04621172323822975
1761506769497754400,2.92275439453125,0.005977560766041279,0.047530192881822586,0.05065041407942772
1761506769507726300,2.932726318359375,0.010275597684085369,0.020446740090847015,0.05106279253959656
1761506769517698300,2.9426982421875,0.014565950259566307,-0.0038335658609867096,0.040815215557813644
1761506769527670300,2.952670166015625,0.015757227316498756,-0.007292857393622398,0.02870030514895916
1761506769537641200,2.96264111328125,0.02125771902501583,-0.0019484254298731685,0.019209863618016243
1761506769547613400,2.972613525390625,0.01720609702169895,0.00395952258259058,0.00343327596783638
1761506769557585400,2.98258544921875,0.01676774024963379,0.006868493743240833,-0.0033993299584835768
1761506769567557400,2.992557373046875,0.01779637113213539,-0.0012151615228503942,-0.011157510802149773
1761506769577529300,3.002529296875,0.02170376107096672,-0.013278216123580933,-0.016695819795131683
1761506769587500300,3.012500244140625,0.02049361728131771,-0.014293272979557514,-0.021787747740745544
1761506769597472500,3.022472412109375,0.03011641651391983,-0.013121216557919979,-0.01718341000378132
1761506769607444200,3.0324443359375,0.03171750530600548,-0.008441755548119545,-0.019171126186847687
1761506769617416400,3.04241650390625,0.03429970517754555,-0.00814055185765028,-0.021879293024539948
1761506769627388400,3.052388427734375,0.028486790135502815,-0.003843998070806265,-0.020730620250105858
1761506769637359600,3.062359619140625,0.026447076350450516,-0.002329458249732852,-0.014137167483568192
1761506769647331800,3.072331787109375,0.020961947739124298,-0.0018889022758230567,-0.007186843082308769
1761506769657303600,3.082303466796875,0.020108139142394066,0.0027069146744906902,0.0007435177685692906
1761506769667275800,3.09227587890625,0.020877975970506668,0.012388790026307106,0.008736501447856426
1761506769677247500,3.10224755859375,0.01716846041381359,0.017197394743561745,0.016708940267562866
1761506769687218700,3.11221875,0.013337481766939163,0.01761927828192711,0.017986638471484184
1761506769697190400,3.1221904296875,0.011120932176709175,0.014309768564999104,0.017389824613928795
1761506769707162600,3.13216259765625,0.006445487029850483,0.010958447121083736,0.01152421161532402
1761506769717134600,3.142134521484375,0.010204343125224113,0.0015597038436681032,-0.000334213487803936
1761506769727106600,3.1521064453125,0.004428636282682419,-0.009279617108404636,-0.016634337604045868
1761506769737077800,3.162077880859375,-0.000755739863961935,-0.016580142080783844,-0.03161009028553963
1761506769747049500,3.172049560546875,-0.0061615826562047005,-0.012117085047066212,-0.039751358330249786
1761506769757021700,3.182021728515625,-0.008552303537726402,0.008005226962268353,-0.041134338825941086
1761506769766993400,3.191993408203125,-0.0048748645931482315,0.027896424755454063,-0.028898021206259727
1761506769776965600,3.201965576171875,-0.0022820113226771355,0.04367538541555405,-0.024470249190926552
1761506769786936600,3.2119365234375,-0.004056242294609547,0.04881429672241211,-0.02312050759792328
1761506769796908500,3.221908447265625,-0.007552173919975758,0.04677164927124977,-0.030881492421030998
1761506769806880800,3.231880859375,-0.004357712343335152,0.049146126955747604,-0.053845662623643875
1761506769816852500,3.2418525390625,-0.0015387563034892082,0.04490930214524269,-0.07781092077493668
1761506769826824700,3.25182470703125,0.001669442281126976,0.05217961221933365,-0.09986396878957748
1761506769836795600,3.261795654296875,0.009186480194330215,0.0539170578122139,-0.11214939504861832
1761506769846767600,3.271767578125,0.013333823531866074,0.050616197288036346,-0.09608177840709686
1761506769856739600,3.281739501953125,0.017310721799731255,0.04149273782968521,-0.05194893851876259
1761506769866711600,3.291711669921875,0.021496672183275223,0.02336115762591362,0.006568502634763718
1761506769876683800,3.301683837890625,0.03039535880088806,0.0014313573483377695,0.0632815808057785
1761506769886654700,3.31165478515625,0.04646475985646248,-0.023105265572667122,0.0957447737455368
1761506769896626700,3.321626708984375,0.05737919360399246,-0.04680686444044113,0.0973019227385521
1761506769906598700,3.3315986328125,0.06330065429210663,-0.05830154940485954,0.07010272890329361
1761506769916570600,3.341570556640625,0.05127834901213646,-0.051505427807569504,0.03310663253068924
1761506769926542600,3.35154248046875,0.036415472626686096,-0.02826843224465847,-0.005140436347573996
1761506769936513500,3.361513427734375,0.020835446193814278,-0.0006218916969373822,-0.027650538831949234
1761506769946485500,3.371485595703125,0.013825330883264542,0.02404332160949707,-0.037590716034173965
1761506769956457700,3.381457763671875,0.01309935376048088,0.030887380242347717,-0.031688086688518524
1761506769966429700,3.3914296875,0.014065309427678585,0.02010551653802395,-0.014356214553117752
1761506769976400600,3.401400634765625,0.010116374120116234,0.0006950661190785468,0.011752883903682232
1761506769986372600,3.41137255859375,0.00472971610724926,-0.015138928778469563,0.038324180990457535
1761506769996344600,3.421344482421875,-0.0028629563748836517,-0.027154844254255295,0.04750889167189598
1761506770006316500,3.431316650390625,-0.015208115801215172,-0.02965988591313362,0.03547510504722595
1761506770016288500,3.44128857421875,-0.02783576026558876,-0.013562142848968506,0.009808357805013657
1761506770026260700,3.4512607421875,-0.03850068897008896,0.01878696121275425,-0.008967109955847263
1761506770036231400,3.4612314453125,-0.03996409848332405,0.044329870492219925,-0.022866947576403618
1761506770046203600,3.47120361328125,-0.04016212001442909,0.05746082961559296,-0.029388319700956345
1761506770056175600,3.481175537109375,-0.03924306482076645,0.052652761340141296,-0.033237919211387634
1761506770066147600,3.491147705078125,-0.03667627274990082,0.03960411250591278,-0.030131958425045013
1761506770076119600,3.50111962890625,-0.029747527092695236,0.022443771362304688,-0.02023671753704548
1761506770086090500,3.511090576171875,-0.03274962678551674,0.0035234009847044945,-0.02155955135822296
1761506770096062700,3.521062744140625,-0.032726190984249115,0.0004549067234620452,-0.014884071424603462
1761506770106034400,3.531034423828125,-0.02780395932495594,0.01322606299072504,0.000685675535351038
1761506770116006700,3.541006591796875,-0.010262249037623405,0.02788090519607067,0.01944791153073311
1761506770125977600,3.5509775390625,-0.0019787070341408253,0.03452043607831001,0.028070474043488503
1761506770135949600,3.560949462890625,0.01142445020377636,0.026731222867965698,0.0310651995241642
1761506770145921800,3.570921875,0.021686069667339325,0.008745742961764336,0.02522505447268486
1761506770155893500,3.5808935546875,0.03332221880555153,-0.00864443276077509,0.0020001588854938745
1761506770165865700,3.59086572265625,0.0397186279296875,-0.018144790083169937,-0.016811592504382133
1761506770175836700,3.600836669921875,0.04526066780090332,-0.012833114713430405,-0.025864742696285248
1761506770185808600,3.61080859375,0.050119269639253616,-0.0011085172882303596,-0.01646231673657894
1761506770195780600,3.620780517578125,0.055769700556993484,0.01046957541257143,0.0064443303272128105
1761506770205752600,3.630752685546875,0.06293313950300217,0.005550807807594538,0.03552667796611786
1761506770215724800,3.640724853515625,0.06465140730142593,-0.010555190965533257,0.048550866544246674
1761506770225695500,3.650695556640625,0.06163389980792999,-0.03481462597846985,0.045790109783411026
1761506770235667700,3.660667724609375,0.05933719128370285,-0.04837730526924133,0.02384246699512005
1761506770245639700,3.6706396484375,0.05408843606710434,-0.041176557540893555,-0.0042596436105668545
1761506770255611600,3.680611572265625,0.04930007457733154,-0.02639840915799141,-0.03495310992002487
1761506770265583600,3.69058349609375,0.044920094311237335,-0.0022606225684285164,-0.058955539017915726
1761506770275554600,3.700554443359375,0.03991415351629257,0.02031872235238552,-0.05968684330582619
1761506770285526500,3.710526611328125,0.03887037932872772,0.0329526849091053,-0.0478091724216938
1761506770295498500,3.72049853515625,0.032639648765325546,0.023418832570314407,-0.021427366882562637
1761506770305470700,3.730470703125,0.02823127806186676,0.01018955186009407,0.002860283013433218
1761506770315442700,3.740442626953125,0.026436839252710342,-0.0022362247109413147,0.022734656929969788
1761506770325413600,3.75041357421875,0.02294825203716755,-0.023168789222836494,0.028503384441137314
1761506770335385600,3.760385498046875,0.018596380949020386,-0.031781718134880066,0.013991286978125572
1761506770345357600,3.770357666015625,0.015567300841212273,-0.026168840005993843,-0.012240050360560417
1761506770355329500,3.78032958984375,0.010295839980244637,-0.003746356349438429,-0.025950269773602486
1761506770365301500,3.790301513671875,0.009079155512154102,0.014840229414403439,-0.029804985970258713
1761506770375272400,3.8002724609375,0.008344123139977455,0.024254770949482918,-0.021879419684410095
1761506770385244700,3.81024462890625,0.007540525868535042,0.023140285164117813,-0.00847903173416853
1761506770395216600,3.820216552734375,0.003870956366881728,0.01496571209281683,0.007975841872394085
1761506770405188600,3.830188720703125,0.0004972303286194801,0.0011405167169868946,0.022407561540603638
1761506770415160600,3.84016064453125,-0.001566985622048378,-0.003945854492485523,0.03054565005004406
1761506770425131500,3.850131591796875,0.006215606816112995,0.0015464298194274306,0.03552434220910072
1761506770435103700,3.860103759765625,0.004096795804798603,0.0009421585127711296,0.018877189606428146
1761506770445075500,3.870075439453125,-0.0015907231718301773,-0.0026766383089125156,-0.004109447821974754
1761506770455047700,3.880047607421875,-0.005677344277501106,-0.006239947862923145,-0.027641670778393745
1761506770465019600,3.89001953125,-0.010667311027646065,-0.00665126321837306,-0.0434858500957489
1761506770474990600,3.899990478515625,-0.01598244719207287,-0.0010245367884635925,-0.04478360712528229
1761506770484962800,3.909962890625,-0.018758827820420265,0.004043146036565304,-0.034795068204402924
1761506770494934500,3.9199345703125,-0.021509608253836632,-0.000641087768599391,-0.018726885318756104
1761506770504906800,3.92990673828125,-0.01707479916512966,-0.0068613141775131226,-0.006915024947375059
1761506770514878500,3.93987841796875,-0.014559177681803703,-0.021422680467367172,-0.0020931055769324303
1761506770524849700,3.949849609375,-0.0186556875705719,-0.037440575659275055,-0.011526471003890038
1761506770534821600,3.959821533203125,-0.01798883266746998,-0.035744938999414444,-0.02170666866004467
1761506770544793600,3.969793701171875,-0.020250501111149788,-0.02384871616959572,-0.031103843823075294
1761506770554765800,3.979765869140625,-0.022323505952954292,-0.0050808885134756565,-0.029616201296448708
1761506770564737500,3.989737548828125,-0.025807343423366547,0.009615760296583176,-0.017306027933955193
1761506770574708700,3.999708740234375,-0.024786822497844696,0.011418987065553665,-0.006517828442156315
1761506770584679700,4.0096796875,-0.019717872142791748,0.005033938679844141,0.003898383118212223
1761506770594651600,4.019651611328125,-0.018729573115706444,-0.012090187519788742,0.008695002645254135
1761506770604622600,4.02962255859375,-0.01625317521393299,-0.02598450519144535,0.004573199898004532
1761506770614594800,4.0395947265625,-0.016140524297952652,-0.03164079412817955,-0.002464735647663474
1761506770624566500,4.04956640625,-0.01677854172885418,-0.025414779782295227,-0.009590261615812778
1761506770634538800,4.059538818359375,-0.019709615036845207,-0.011059810407459736,-0.0029336903244256973
1761506770644510700,4.0695107421875,-0.02494843490421772,0.0023548214230686426,0.002548784017562866
1761506770654481700,4.079481689453125,-0.022015230730175972,0.012159515172243118,0.006342989858239889
1761506770664453600,4.08945361328125,-0.023156708106398582,0.017856819555163383,0.0173745546489954
1761506770674425900,4.09942578125,-0.018102293834090233,0.010391445830464363,0.022272374480962753
1761506770684397800,4.109397705078125,-0.015945235267281532,-0.004519760608673096,0.024384181946516037
1761506770694369800,4.119369873046875,-0.018188416957855225,-0.013733764179050922,0.03879721090197563
1761506770704340700,4.1293408203125,-0.017179615795612335,-0.018084818497300148,0.045234668999910355
1761506770714312700,4.139312744140625,-0.013006709516048431,-0.021856920793652534,0.05123317614197731
1761506770724284700,4.14928466796875,-0.010832199826836586,-0.012966853566467762,0.043382588773965836
1761506770734256600,4.159256591796875,-0.013698559254407883,-0.004478826187551022,0.03601468726992607
1761506770744228900,4.169228759765625,-0.008917005732655525,-0.002714239526540041,0.02423916570842266
1761506770754199800,4.17919970703125,-0.008772661909461021,0.0015611994313076138,0.012484505772590637
1761506770764171800,4.189171875,-0.005145856644958258,-0.0016816116403788328,0.0060917967930436134
1761506770774143700,4.199143798828125,-0.002409458626061678,-0.009720630012452602,-0.0020409640856087208
1761506770784115700,4.20911572265625,-0.0012573753483593464,-0.011656215414404869,-0.014288309030234814
1761506770794087700,4.219087646484375,-0.0021537947468459606,-0.01111692562699318,-0.02391590178012848
1761506770804059000,4.229058837890625,-0.004557036329060793,-0.010826347395777702,-0.031131936237215996
1761506770814030600,4.239030517578125,-0.00532056437805295,-0.003364703617990017,-0.027050908654928207
1761506770824002800,4.2490029296875,-0.0004022284410893917,0.0069115920923650265,-0.01722664386034012
1761506770833974800,4.258974853515625,0.004412500187754631,0.0180185716599226,-0.005805944092571735
1761506770843946800,4.26894677734375,0.007797565311193466,0.019057538360357285,0.020941786468029022
1761506770853918000,4.27891796875,0.009089730679988861,0.011965273879468441,0.0406758114695549
1761506770863889700,4.2888896484375,0.010365115478634834,-0.002230029320344329,0.0458168089389801
1761506770873862000,4.29886181640625,0.006604732014238834,-0.008006159216165543,0.045898303389549255
1761506770883833600,4.30883349609375,0.008722906932234764,-0.0069781881757080555,0.04206596687436104
1761506770893805800,4.318805908203125,0.011504312045872211,0.003425982780754566,0.025518149137496948
1761506770903776800,4.32877685546875,0.010234697721898556,0.018263068050146103,0.008862017653882504
1761506770913748700,4.338748779296875,0.013100791722536087,0.028015565127134323,-0.0012761043617501855
1761506770923721000,4.348720947265625,0.015382363460958004,0.029606830328702927,-0.012441027909517288
1761506770933692700,4.358692626953125,0.012523992918431759,0.030394593253731728,-0.011476697400212288
1761506770943665000,4.368664794921875,0.009732428938150406,0.02125844918191433,-0.0068421452306210995
1761506770953635600,4.378635498046875,0.01384701207280159,0.012577608227729797,-0.003318250644952059
1761506770963609600,4.388609619140625,0.011629622429609299,0.0027981880120933056,-0.0018110144883394241
1761506770973580800,4.398580810546875,0.010529737919569016,-0.005756950471550226,-0.005453153513371944
1761506770983552800,4.408552734375,0.003088595811277628,-0.004504852928221226,-0.0174581166356802
1761506770993524700,4.418524658203125,0.001525586936622858,-0.0012621881905943155,-0.027959760278463364
1761506771003496700,4.42849658203125,-0.0016282000578939915,0.0096414964646101,-0.030057363212108612
1761506771013468700,4.43846875,0.007368491031229496,0.01225991640239954,-0.036858007311820984
1761506771023439600,4.448439697265625,0.00461376179009676,0.007709527853876352,-0.03820815682411194
1761506771033411800,4.458411865234375,0.0017402111552655697,-0.00007116328924894333,-0.030649039894342422
1761506771043383800,4.4683837890625,-0.0007143947295844555,-0.0013773820828646421,-0.020192950963974
1761506771053355800,4.478355712890625,-0.0034020566381514072,-0.0007443486247211695,-0.014193648472428322
1761506771063327700,4.48832763671875,-0.005075400695204735,0.010343795642256737,-0.01103992760181427
1761506771073298700,4.498298583984375,-0.006531617604196072,0.018024085089564323,-0.011805586516857147
1761506771083271000,4.50827099609375,-0.010536815971136093,0.026353025808930397,-0.017984747886657715
1761506771093242600,4.51824267578125,-0.01749964989721775,0.027780480682849884,-0.019605549052357674
1761506771103214800,4.52821484375,-0.016635192558169365,0.022725146263837814,-0.013275712728500366
1761506771113186800,4.538186767578125,-0.01437496766448021,0.02100980281829834,0.00009868165943771601
1761506771123157800,4.54815771484375,-0.012448213994503021,0.02126000076532364,0.02036285772919655
1761506771133129700,4.558129638671875,-0.00527871772646904,0.0186916496604681,0.03621106594800949
1761506771143101700,4.568101806640625,-0.0032631498761475086,0.012934715487062931,0.045410048216581345
1761506771153073700,4.57807373046875,-0.003956104163080454,0.003094601910561323,0.043727196753025055
1761506771163045600,4.588045654296875,-0.005181657616049051,-0.005006277933716774,0.030377518385648727
1761506771173016800,4.598016845703125,-0.004214929882436991,-0.006484598852694035,0.017025496810674667
1761506771182988500,4.607988525390625,-0.0036392235197126865,-0.004382799379527569,0.0009638392366468906
1761506771192960800,4.617960693359375,-0.004437106195837259,0.0016055844025686383,-0.01030506007373333
1761506771202932700,4.6279326171875,-0.00856412760913372,0.005679091904312372,-0.0037688720040023327
1761506771212904700,4.63790478515625,-0.005063669290393591,0.005337141919881105,-0.0003823963925242424
1761506771222876000,4.6478759765625,-0.0002083941362798214,-0.0048799715004861355,0.011049123480916023
1761506771232847600,4.65784765625,0.0009902948513627052,-0.019404318183660507,0.018239926546812057
1761506771242819800,4.66781982421875,0.006583808921277523,-0.03351873159408569,0.020084459334611893
1761506771252791600,4.67779150390625,0.009408890269696712,-0.04247574135661125,0.014562927186489105
1761506771262763800,4.687763671875,0.012898583896458149,-0.047668762505054474,0.0024573185946792364
1761506771272734700,4.697734619140625,0.010974982753396034,-0.04385538026690483,-0.013409794308245182
1761506771282706700,4.707706787109375,0.014246181584894657,-0.033643852919340134,-0.021838286891579628
1761506771292679000,4.717678955078125,0.008593888953328133,-0.025894854217767715,-0.02648896537721157
1761506771302650600,4.727650634765625,0.004490528721362352,-0.02133987843990326,-0.03321223333477974
1761506771312622800,4.737622802734375,-0.0030627287924289703,-0.015395703725516796,-0.03080287203192711
1761506771322593800,4.74759375,-0.003151030745357275,-0.0113461222499609,-0.02743486315011978
1761506771332565800,4.757565673828125,-0.008085601031780243,-0.006114875432103872,-0.023543717339634895
1761506771342537700,4.767537841796875,-0.010094653815031052,-0.005098567344248295,-0.01788964681327343
1761506771352509700,4.777509765625,-0.014757582917809486,-0.002214097883552313,-0.007099582348018885
1761506771362482000,4.78748193359375,-0.015217626467347145,0.0028238275554031134,0.0031363677699118853
1761506771372452600,4.79745263671875,-0.016781434416770935,0.007377566769719124,0.00613801646977663
1761506771382424800,4.8074248046875,-0.02152281068265438,0.01328336913138628,0.009604031220078468
1761506771392396800,4.817396728515625,-0.017628736793994904,0.013547288253903389,0.008266590535640717
1761506771402368800,4.82736865234375,-0.015358390286564827,0.010770267806947231,0.002522384049370885
1761506771412340700,4.8373408203125,-0.01345769315958023,0.0075987097807228565,-0.0006931167445145547
1761506771422311700,4.847311767578125,-0.013085002079606056,0.009481949731707573,0.001547877211123705
1761506771432283600,4.85728369140625,-0.017356978729367256,0.004973218310624361,0.0019161924719810486
1761506771442255600,4.867255615234375,-0.016564499586820602,0.004196034278720617,-0.0014876218046993017
1761506771452227800,4.877227783203125,-0.017184749245643616,0.008340178988873959,-0.0039060383569449186
1761506771462198800,4.88719873046875,-0.01033475436270237,0.011531910859048367,-0.0027478362899273634
1761506771472170800,4.897170654296875,-0.0066172475926578045,0.008735857903957367,-0.0009217067854478955
1761506771482142700,4.907142822265625,-0.006507909391075373,0.004076821263879538,-0.0004850890254601836
1761506771492114700,4.91711474609375,-0.011859266087412834,0.0008948765462264419,0.003929899539798498
1761506771502086700,4.927086669921875,-0.013288166373968124,-0.003816231619566679,0.004049832001328468
1761506771512058600,4.93705859375,-0.016606731340289116,-0.008045332506299019,0.005753456614911556
1761506771522029600,4.947029541015625,-0.01039973646402359,-0.01543898694217205,0.0025688984896987677
1761506771532001800,4.957001708984375,-0.007173315156251192,-0.014007271267473698,-0.010222263634204865
1761506771541973800,4.966973876953125,-0.001463539432734251,-0.001177788246423006,-0.015241369605064392
1761506771551945700,4.97694580078125,0.0064588324166834354,0.01232656929641962,-0.014032561331987381
1761506771561917700,4.986917724609375,0.009998699650168419,0.01885506510734558,-0.010046806186437607
1761506771571888600,4.996888671875,0.007869502529501915,0.016342638060450554,0.001021557254716754
1761506771581860900,5.00686083984375,0.0031623775139451027,0.0021159949246793985,0.011320928111672401
1761506771591832600,5.01683251953125,0.0028526517562568188,-0.00456268060952425,0.0206353347748518
1761506771601804800,5.0268046875,0.004829889163374901,-0.005021409131586552,0.02210967428982258
1761506771611776800,5.03677685546875,0.01282469928264618,-0.00463471794500947,0.014068258926272392
1761506771621747700,5.046747802734375,0.013863438740372658,0.0009849659400060773,-0.0002755164750851691
1761506771631720000,5.056719970703125,0.014738820493221283,0.011355048976838589,-0.013387324288487434
1761506771641691000,5.06669091796875,0.011076067574322224,0.011960238218307495,-0.0245723444968462
1761506771651663000,5.0766630859375,0.0028231977485120296,0.0040144301019608974,-0.025319360196590424
1761506771661634800,5.086634765625,-0.0007958873175084591,0.001871408079750836,-0.018663497641682625
1761506771671606000,5.09660595703125,0.002096837852150202,-0.002424270613119006,0.0002603922039270401
1761506771681578000,5.106577880859375,0.00694577069953084,-0.008667543530464172,0.008295324631035328
1761506771691550000,5.116550048828125,0.012838015332818031,-0.010379156097769737,0.013376370072364807
1761506771701522200,5.126522216796875,0.011449744924902916,-0.012737071141600609,0.0107131227850914
1761506771711494000,5.136493896484375,0.0075327674858272076,-0.012845462188124657,-0.0012335507199168205
1761506771721465000,5.146465087890625,-0.0008603688329458237,-0.011070678010582924,-0.015246346592903137
1761506771731437000,5.15643701171875,-0.0052710967138409615,-0.009666659869253635,-0.02801700122654438
1761506771741409000,5.166408935546875,-0.009660443291068077,-0.0036788592115044594,-0.03177759051322937
1761506771751381000,5.176381103515625,-0.010227164253592491,-0.0015661736251786351,-0.02810269221663475
1761506771761352000,5.18635205078125,-0.004388906992971897,-0.007857285439968109,-0.019631681963801384
1761506771771324000,5.196323974609375,0.000743271317332983,-0.01646142639219761,-0.010773742571473122
1761506771781296000,5.206296142578125,0.0007721134461462498,-0.02245919778943062,-0.007170225493609905
1761506771791268000,5.21626806640625,-0.0027832062914967537,-0.029216967523097992,-0.014247043058276176
1761506771801240000,5.226239990234375,-0.012898318469524384,-0.03134842962026596,-0.030228126794099808
1761506771811212000,5.2362119140625,-0.025768309831619263,-0.018668051809072495,-0.04251835122704506
1761506771821183000,5.246182861328125,-0.030242765322327614,-0.004118863493204117,-0.04353274032473564
1761506771831155000,5.256155029296875,-0.028213171288371086,0.009019575081765652,-0.032422833144664764
1761506771841127000,5.266126953125,-0.01730055920779705,0.02204710617661476,-0.01686643250286579
1761506771851099100,5.27609912109375,-0.011504456400871277,0.020138952881097794,-0.0035109445452690125
1761506771861069800,5.28606982421875,-0.008133960887789726,0.006127405911684036,0.009131647646427155
1761506771871042000,5.2960419921875,-0.006092115771025419,-0.010610029101371765,0.01651100069284439
1761506771881014000,5.306013916015625,-0.00878400169312954,-0.01451671589165926,0.01656707562506199
1761506771890986000,5.315986083984375,-0.008348042145371437,-0.01261921413242817,0.004382314160466194
1761506771900958000,5.3259580078125,-0.005315724294632673,-0.000902876490727067,-0.010718229226768017
1761506771910930000,5.335929931640625,-0.003965235780924559,0.007355585694313049,-0.014263163320720196
1761506771920901000,5.345901123046875,-0.0018777670338749886,0.011811116710305214,-0.01436254195868969
1761506771930872800,5.355872802734375,-0.0028173308819532394,0.008931972086429596,-0.006920604035258293
1761506771940845000,5.365844970703125,-0.0011463952250778675,0.007817400619387627,-0.0002801446244120598
1761506771950817000,5.375817138671875,0.0012432597577571869,-0.0037689474411308765,0.0024195017758756876
1761506771960788000,5.3857880859375,0.008015562780201435,-0.0130993090569973,-0.005354174878448248
1761506771970760200,5.39576025390625,0.012512309476733208,-0.02380947768688202,-0.018415382131934166
1761506771980732000,5.40573193359375,0.008119807578623295,-0.031055431813001633,-0.045462802052497864
1761506771990704000,5.4157041015625,-0.001276357565075159,-0.030947040766477585,-0.07370030134916306
1761506772000675800,5.42567578125,-0.00560871371999383,-0.00823165662586689,-0.08622109144926071
1761506772010647000,5.43564697265625,-0.005149052012711763,0.019224204123020172,-0.08087878674268723
1761506772020619000,5.445618896484375,-0.005252193659543991,0.039938993752002716,-0.06041402369737625
1761506772030591000,5.455591064453125,-0.003590380772948265,0.033495210111141205,-0.031969595700502396
1761506772040563200,5.465563232421875,-0.0027782749384641647,0.008567108772695065,0.0003132506972178817
1761506772050535000,5.475534912109375,-0.005289103835821152,-0.02206190675497055,0.021971674636006355
1761506772060506000,5.485506103515625,-0.004708032589405775,-0.04186631739139557,0.043557144701480865
1761506772070478000,5.49547802734375,-0.004018806386739016,-0.04234249144792557,0.04519205912947655
1761506772080450000,5.505449951171875,-0.0020027519203722477,-0.024555208161473274,0.03675954043865204
1761506772090422000,5.515422119140625,-0.0018687951378524303,-0.004296010360121727,0.013055010698735714
1761506772100394000,5.52539404296875,0.000025958754122257233,0.013798401691019535,-0.011479820124804974
1761506772110365000,5.535364990234375,0.00139695405960083,0.03268580883741379,-0.030156569555401802
1761506772120337000,5.5453369140625,0.005207679234445095,0.04062958061695099,-0.03633440285921097
1761506772130309000,5.55530908203125,0.009581655263900757,0.03219907730817795,-0.017197195440530777
1761506772140281000,5.565281005859375,0.013359769247472286,0.01884906366467476,-0.0013380148448050022
1761506772150253000,5.575253173828125,0.012455092743039131,-0.003524684812873602,0.013638004660606384
1761506772160224000,5.58522412109375,0.01429857686161995,-0.025132883340120316,0.013159245252609253
1761506772170196000,5.595196044921875,0.013675130903720856,-0.03327230364084244,0.009372230619192123
1761506772180168000,5.60516796875,0.013420519419014454,-0.034735001623630524,-0.007421490736305714
1761506772190140000,5.615139892578125,0.00824732892215252,-0.02122558280825615,-0.02084249258041382
1761506772200112000,5.625112060546875,0.0072228992357850075,-0.00603780522942543,-0.02514546923339367
1761506772210083000,5.6350830078125,0.004309134557843208,0.00611819326877594,-0.024166757240891457
1761506772220055000,5.645054931640625,0.012125803157687187,0.015811387449502945,-0.014263741672039032
1761506772230027000,5.655027099609375,0.015420932322740555,0.015248661860823631,0.001510694157332182
1761506772239999000,5.6649990234375,0.0217781700193882,0.0060807038098573685,0.011275107972323895
1761506772249971000,5.674970947265625,0.019206088036298752,-0.011550487950444221,0.013824285008013248
1761506772259942100,5.684942138671875,0.017098229378461838,-0.027104217559099197,0.00819590874016285
1761506772269913900,5.694913818359375,0.013253423385322094,-0.03433256968855858,-0.006604076363146305
1761506772279886000,5.704885986328125,0.00827050395309925,-0.02748190425336361,-0.025851432234048843
1761506772289858000,5.714858154296875,0.010718481615185738,-0.006508711725473404,-0.03268164023756981
1761506772299830000,5.724830078125,0.012790651991963387,0.01999395713210106,-0.025711530819535255
1761506772309801200,5.73480126953125,0.016505494713783264,0.02416340261697769,-0.013909732922911644
1761506772319773000,5.74477294921875,0.016662321984767914,0.012761959806084633,-0.000989891355857253
1761506772329745200,5.7547451171875,0.01273122988641262,-0.005586686544120312,0.0050581470131874084
1761506772339716900,5.764716796875,0.017336510121822357,-0.028583701699972153,0.005709219723939896
1761506772349689000,5.774689208984375,0.014458699151873589,-0.03031422570347786,-0.0012584085343405604
1761506772359660000,5.784659912109375,0.013454959727823734,-0.012813013978302479,-0.005925134755671024
1761506772369632000,5.794632080078125,0.010947859846055508,0.008207316510379314,-0.004374641925096512
1761506772379604200,5.804604248046875,0.011002528481185436,0.02421605959534645,-0.0054571544751524925
1761506772389576000,5.814575927734375,0.010452852584421635,0.02601928450167179,0.002887328155338764
1761506772399548200,5.824548095703125,0.011680953204631805,0.015453297644853592,0.009188507683575153
1761506772409518800,5.834518798828125,0.006791123654693365,0.006004135590046644,0.01775536499917507
1761506772419491000,5.844490966796875,0.008927732706069946,-0.002642237115651369,0.022812362760305405
1761506772429463000,5.854463134765625,0.006687215529382229,-0.005546680651605129,0.024434493854641914
1761506772439435000,5.86443505859375,0.007727982476353645,-0.005168387666344643,0.012962095439434052
1761506772449407000,5.874406982421875,0.0029228408820927143,0.00537746399641037,0.00010488578118383884
1761506772459378000,5.8843779296875,0.009843592531979084,0.015874331817030907,-0.009032618254423141
1761506772469350100,5.89435009765625,0.00990377925336361,0.019756421446800232,-0.01022518053650856
1761506772479321900,5.90432177734375,0.01323813945055008,0.018234480172395706,-0.008266733027994633
1761506772489294000,5.914294189453125,0.015004348009824753,0.006924567744135857,-0.0013779343571513891
1761506772499266000,5.92426611328125,0.0141867995262146,-0.007306003011763096,-0.0010105726541951299
1761506772509237000,5.934237060546875,0.011729500256478786,-0.016057949513196945,-0.008488995023071766
1761506772519209200,5.944209228515625,0.009635524824261665,-0.01670699566602707,-0.009275027550756931
1761506772529181000,5.954180908203125,0.006317492574453354,-0.011353244073688984,-0.018634706735610962
1761506772539153200,5.964153076171875,0.004502890631556511,-0.0012363544665277004,-0.015545944683253765
1761506772549124900,5.974124755859375,0.004715943709015846,0.0144240977242589,-0.011476368643343449
1761506772559096000,5.984095947265625,0.00887914840131998,0.01770327240228653,-0.010852831415832043
1761506772569068000,5.994068115234375,0.008353173732757568,0.008007767610251904,-0.008658653125166893
1761506772579040000,6.0040400390625,0.009997794404625893,0.0015100211603567004,-0.0008916690712794662
1761506772589012200,6.01401220703125,0.006018499378114939,0.0008405025000683963,0.003686304669827223
1761506772598984000,6.02398388671875,0.007227645721286535,-0.001838278491050005,0.005228904075920582
1761506772608955100,6.033955078125,0.0022880141623318195,0.000321811530739069,0.003027269383892417
1761506772618927000,6.043927001953125,0.006882274989038706,0.00571793457493186,0.00890417955815792
1761506772628899000,6.053899169921875,0.003110173624008894,0.007340865209698677,0.011692243628203869
1761506772638871000,6.06387109375,0.004606559872627258,0.009655271656811237,0.023167990148067474
1761506772648843500,6.073843505859375,0.007284901104867458,0.0016186503926292062,0.024069204926490784
1761506772658814500,6.083814453125,0.009563957341015339,0.0007831444381736219,0.021292030811309814
1761506772668786400,6.093786376953125,0.014571765437722206,-0.0017002533422783017,0.012098534032702446
1761506772678758700,6.103758544921875,0.014261474832892418,-0.005772686563432217,0.004100047051906586
1761506772688730400,6.11373046875,0.010582583956420422,-0.010169832035899162,-0.013007833622395992
1761506772698702600,6.12370263671875,0.0076890564523637295,-0.0062013110145926476,-0.021947233006358147
1761506772708673500,6.133673583984375,0.0083977235481143,0.010469544678926468,-0.011786740273237228
1761506772718645500,6.1436455078125,0.009322497062385082,0.013406029902398586,-0.00047862023347988725
1761506772728617500,6.153617431640625,0.006144014187157154,0.005652768537402153,0.012823603115975857
1761506772738589400,6.16358935546875,0.005191427655518055,-0.00555227417498827,0.02127969078719616
1761506772748561700,6.173561767578125,0.009983520023524761,-0.014596902765333652,0.023063210770487785
1761506772758532600,6.18353271484375,0.012109560891985893,-0.017025534063577652,0.012367037124931812
1761506772768504600,6.193504638671875,0.008609101176261902,-0.014447861351072788,0.001117844833061099
1761506772778476500,6.2034765625,0.0019199326634407043,-0.0033372947946190834,-0.009491668082773685
1761506772788448500,6.213448486328125,-0.004348082933574915,0.010104477405548096,-0.016130395233631134
1761506772798420500,6.22342041015625,-0.00815853662788868,0.01394143607467413,-0.014463221654295921
1761506772808391700,6.2333916015625,-0.018597329035401344,0.012776303105056286,-0.010498041287064552
1761506772818363400,6.24336328125,-0.017210615798830986,0.011717947199940681,-0.0030958557035773993
1761506772828335600,6.253335693359375,-0.01663057878613472,0.008422551676630974,0.004030763171613216
1761506772838307600,6.2633076171875,-0.009701041504740715,0.0047020092606544495,0.005734491627663374
1761506772848279600,6.273279541015625,-0.011143941432237625,0.0018795912619680166,0.007169402204453945
1761506772858250500,6.28325048828125,-0.011168470606207848,0.0054315137676894665,0.008818944916129112
1761506772868222500,6.293222412109375,-0.010737838223576546,0.008272839710116386,0.013872824609279633
1761506772878194700,6.303194580078125,-0.010035224258899689,0.009735533967614174,0.023712504655122757
1761506772888166400,6.31316650390625,-0.007971808314323425,0.005406831856817007,0.030250832438468933
1761506772898138600,6.323138671875,-0.005481488537043333,-0.005453130695968866,0.03032143972814083
1761506772908109300,6.333109375,-0.005753930192440748,-0.012585875578224659,0.011730711907148361
1761506772918081500,6.34308154296875,-0.0029379394836723804,-0.01729944907128811,-0.007810947485268116
1761506772928053500,6.353053466796875,-0.0009088772349059582,-0.015615000389516354,-0.02982623316347599
1761506772938025500,6.363025390625,-0.0002027633599936962,-0.009349118918180466,-0.04729393124580383
1761506772947997700,6.372997802734375,-0.00027120625600218773,-0.0047857919707894325,-0.049947503954172134
1761506772957968400,6.382968505859375,-0.0015354864299297333,0.0018757659709081054,-0.040994517505168915
1761506772967940600,6.392940673828125,0.0009114262647926807,0.0052651711739599705,-0.015962135046720505
1761506772977912300,6.402912353515625,0.005570437293499708,-0.000855499180033803,0.005388190038502216
1761506772987884500,6.412884521484375,0.009101788513362408,-0.006811925210058689,0.021427344530820847
1761506772997856500,6.4228564453125,0.012823029421269894,-0.006840705405920744,0.03413934260606766
1761506773007827500,6.432827392578125,0.015565020963549614,-0.005001792684197426,0.027381571009755135
1761506773017799700,6.442799560546875,0.016531549394130707,0.004618046805262566,0.01925160363316536
1761506773027771400,6.452771484375,0.011698178946971893,0.020758934319019318,0.010747596621513367
1761506773037743600,6.46274365234375,0.006274314131587744,0.023138374090194702,0.012348859570920467
1761506773047714600,6.472714599609375,0.006384835112839937,0.0171678327023983,0.013363524340093136
1761506773057686500,6.4826865234375,0.005185149610042572,0.011220969259738922,0.028208114206790924
1761506773067658500,6.492658447265625,0.012521092779934406,0.0048855748027563095,0.0354151576757431
1761506773077630500,6.50263037109375,0.01228560134768486,-0.005431751720607281,0.03428052365779877
1761506773087602700,6.512602783203125,0.01297216396778822,-0.001336342771537602,0.029439430683851242
1761506773097574400,6.522574462890625,0.011189861223101616,0.0010251051280647516,0.018902190029621124
1761506773107545600,6.532545654296875,0.011387467384338379,0.005045679397881031,0.006800254341214895
1761506773117517600,6.542517578125,0.004918072372674942,0.0056673819199204445,-0.002147513907402754
1761506773127489500,6.552489501953125,0.005845651496201754,0.005145135801285505,0.003508241381496191
1761506773137461500,6.56246142578125,0.00022559147328138351,-0.0006591235287487507,0.003987774718552828
1761506773147432400,6.572432373046875,0.0033129937946796417,-0.011366096325218678,0.008710358291864395
1761506773157404400,6.582404296875,0.0065529546700417995,-0.02068638801574707,0.006327248644083738
1761506773167376600,6.592376708984375,0.007565488573163748,-0.01664983481168747,-0.0028193779289722443
1761506773177348600,6.6023486328125,0.004998242482542992,-0.0012777757365256548,-0.013278830796480179
1761506773187320600,6.612320556640625,0.005603046156466007,0.013373072259128094,-0.014219192788004875
1761506773197291500,6.62229150390625,0.003181049134582281,0.020763777196407318,-0.01622043363749981
1761506773207263500,6.632263427734375,0.0035592177882790565,0.026512475684285164,-0.00914681050926447
1761506773217235500,6.6422353515625,0.004263280890882015,0.024415165185928345,0.00855599157512188
1761506773227207400,6.65220751953125,0.0095254210755229,0.014953218400478363,0.026836995035409927
1761506773237179400,6.662179443359375,0.009753620252013206,0.005060451105237007,0.03824975714087486
1761506773247150300,6.672150390625,0.011911313980817795,-0.00552960904315114,0.03840288892388344
1761506773257122600,6.68212255859375,0.013141010887920856,-0.012051179073750973,0.036294639110565186
1761506773267094500,6.692094482421875,0.019130460917949677,-0.014330845326185226,0.019255466759204865
1761506773277066500,6.70206640625,0.012783313170075417,-0.011428043246269226,-0.0016627807635813951
1761506773287038500,6.71203857421875,0.012458407320082188,0.0015689815627411008,-0.013378025963902473
1761506773297009400,6.722009521484375,0.0055525172501802444,0.006698750890791416,-0.021077001467347145
1761506773306981600,6.731981689453125,0.0037114741280674934,0.008908109739422798,-0.013373276218771935
1761506773316953300,6.741953369140625,0.0024068737402558327,0.007859678007662296,0.0018695523031055927
1761506773326925600,6.751925537109375,0.0075843255035579205,0.00249633751809597,0.017075669020414352
1761506773336897500,6.7618974609375,0.005279013887047768,-0.00649868743494153,0.025167157873511314
1761506773346868500,6.771868408203125,0.00420762412250042,-0.005007050931453705,0.028115276247262955
1761506773356840700,6.7818408203125,0.00112634664401412,-0.0022530765272676945,0.023665932938456535
1761506773366812400,6.7918125,-0.0007993853650987148,0.010446206666529179,0.01588444411754608
1761506773376784600,6.80178466796875,-0.004461042582988739,0.014273629523813725,0.0027718094643205404
1761506773386756400,6.81175634765625,-0.006401156075298786,0.011298079043626785,-0.00961694959551096
1761506773396727600,6.8217275390625,-0.004245746415108442,0.009806563146412373,-0.020157797262072563
1761506773406699500,6.831699462890625,0.002596180886030197,0.006833676248788834,-0.01705761067569256
1761506773416671500,6.84167138671875,0.006439690478146076,0.0018829080509021878,-0.003998087719082832
1761506773426643700,6.851643798828125,0.007602959405630827,-0.00009795115329325199,0.00940293911844492
1761506773436615400,6.861615478515625,0.009008128196001053,0.000822082394734025,0.026719802990555763
1761506773446586600,6.871586669921875,0.009971394203603268,0.005953460931777954,0.03733756020665169
1761506773456558600,6.88155859375,0.012267370708286762,0.004217992536723614,0.043088823556900024
1761506773466530600,6.891530517578125,0.00860951840877533,0.0017937171505764127,0.0322798490524292
1761506773476502500,6.90150244140625,0.009690347127616405,-0.006208718754351139,0.016725799068808556
1761506773486474500,6.911474609375,0.007340107578784227,-0.010609859600663185,-0.0024028876796364784
1761506773496445400,6.921445556640625,0.010398097336292267,-0.01147601567208767,-0.01891942322254181
1761506773506417400,6.93141748046875,0.014407220296561718,-0.005181900691241026,-0.022760767489671707
1761506773516389600,6.9413896484375,0.021699262782931328,0.002172175794839859,-0.020914282649755478
1761506773526361300,6.951361328125,0.0255105122923851,0.002237156964838505,-0.014334943145513535
1761506773536333600,6.96133349609375,0.019417742267251015,0.0009845136664807796,-0.005049403756856918
1761506773546304500,6.971304443359375,0.01631489209830761,-0.0029849279671907425,0.01185368001461029
1761506773556276500,6.9812763671875,0.01578586921095848,-0.004599973559379578,0.026893476024270058
1761506773566248400,6.99124853515625,0.019950255751609802,-0.007994971238076687,0.03436044603586197
1761506773576220400,7.001220458984375,0.027906835079193115,-0.01292464416474104,0.02653675153851509
1761506773586192600,7.011192626953125,0.02487029880285263,-0.021474989131093025,0.01422389317303896
1761506773596163600,7.02116357421875,0.020967354997992516,-0.019151046872138977,-0.004580946173518896
1761506773606135600,7.031135498046875,0.013148047961294651,-0.013738706707954407,-0.022507481276988983
1761506773616107500,7.041107421875,0.011795315891504288,-0.000018485472537577152,-0.031589072197675705
1761506773626079500,7.05107958984375,0.009879437275230885,0.016737591475248337,-0.031087597832083702
1761506773636051500,7.061051513671875,0.012632681988179684,0.02799287810921669,-0.012600336223840714
1761506773646022400,7.0710224609375,0.016037000343203545,0.024245545268058777,0.011689024046063423
1761506773655994400,7.080994384765625,0.01857682503759861,0.005518004298210144,0.037691380828619
1761506773665966300,7.09096630859375,0.020631985738873482,-0.013426924124360085,0.05620194971561432
1761506773675938300,7.100938232421875,0.01704314351081848,-0.023473508656024933,0.06187283247709274
1761506773685910500,7.11091064453125,0.01577121764421463,-0.022228747606277466,0.04639081284403801
1761506773695881500,7.120881591796875,0.010160587728023529,-0.018379049375653267,0.015840766951441765
1761506773705853400,7.130853515625,0.006504068151116371,-0.0062366328202188015,-0.018473796546459198
1761506773715825400,7.140825439453125,0.006861691363155842,0.015764370560646057,-0.037283048033714294
1761506773725797400,7.15079736328125,0.004273098893463612,0.030181925743818283,-0.040955014526844025
1761506773735769300,7.160769287109375,0.006390392314642668,0.02981940098106861,-0.0240322332829237
1761506773745740300,7.170740234375,0.006010891869664192,0.021699953824281693,0.005306215025484562
1761506773755712300,7.180712158203125,0.00769838597625494,0.005500190891325474,0.0350475087761879
1761506773765684500,7.1906845703125,0.010113339871168137,-0.013611185364425182,0.060256991535425186
1761506773775656400,7.200656494140625,0.012451518326997757,-0.028272759169340134,0.058243878185749054
1761506773785628400,7.21062841796875,0.008031736128032207,-0.025267915800213814,0.04467587172985077
1761506773795599400,7.220599365234375,0.008803174830973148,-0.008788740262389183,0.022039808332920074
1761506773805571300,7.2305712890625,0.008490519598126411,0.012955171056091785,-0.001179227838292718
1761506773815543300,7.240543212890625,0.008032068610191345,0.024274718016386032,-0.018066173419356346
1761506773825515300,7.250515380859375,0.003235981799662113,0.026160502806305885,-0.025021284818649292
1761506773835487500,7.260487548828125,0.005401252768933773,0.012189245782792568,-0.02161712571978569
1761506773845458200,7.270458251953125,-0.0018840902484953403,-0.0013904784573242068,-0.013451073318719864
1761506773855430400,7.280430419921875,0.0011743158102035522,-0.012382484041154385,0.0055574532598257065
1761506773865402400,7.29040234375,0.005300884135067463,-0.009483366273343563,0.020823758095502853
1761506773875374300,7.300374267578125,0.00759303430095315,-0.00587870366871357,0.024159152060747147
1761506773885346300,7.31034619140625,0.007945370860397816,-0.007695778738707304,0.018959594890475273
1761506773895317200,7.320317138671875,0.007895228452980518,-0.014374402351677418,0.007107668090611696
1761506773905289500,7.33028955078125,0.007270184811204672,-0.02127918228507042,-0.005648341029882431
1761506773915261200,7.34026123046875,0.001816794741898775,-0.013652198016643524,-0.013034001924097538
1761506773925233400,7.3502333984375,0.0022993595339357853,-0.002271445468068123,-0.005828286521136761
1761506773935205400,7.360205322265625,0.009955217130482197,0.010138319805264473,0.009916453622281551
1761506773945176300,7.37017626953125,0.01129771675914526,0.01378551870584488,0.0191405788064003
1761506773955148500,7.3801484375,0.007283616811037064,0.010003086179494858,0.033156488090753555
1761506773965120300,7.390120361328125,0.0027402639389038086,-0.004920735955238342,0.032971929758787155
1761506773975092500,7.400092529296875,-0.005726122763007879,-0.010259605012834072,0.0261093620210886
1761506773985064200,7.410064208984375,-0.007601521443575621,-0.0051356833428144455,0.021154284477233887
1761506773995035400,7.420035400390625,-0.0104901734739542,0.009024271741509438,0.022095439955592155
1761506774005007400,7.43000732421875,-0.012014299631118774,0.015074442140758038,0.01839071698486805
1761506774014979300,7.439979248046875,-0.01582992821931839,0.021329844370484352,0.018324261531233788
1761506774024951600,7.44995166015625,-0.018372448161244392,0.01909438706934452,0.014932727441191673
1761506774034923300,7.45992333984375,-0.025595277547836304,0.006111646071076393,0.013191189616918564
1761506774044894500,7.46989453125,-0.02684323489665985,-0.0011124444426968694,0.004363875836133957
1761506774054866400,7.479866455078125,-0.026186995208263397,-0.00837737787514925,-0.007058541290462017
1761506774064838400,7.48983837890625,-0.027323897927999496,-0.007167504169046879,-0.012377406470477581
1761506774074810400,7.499810302734375,-0.03149966523051262,0.003747024107724428,-0.007612648885697126
1761506774084782300,7.5097822265625,-0.025630323216319084,0.012417211197316647,-0.003089003264904022
1761506774094753300,7.519753173828125,-0.019152065739035606,0.01807199977338314,0.001970611745491624
1761506774104725200,7.529725341796875,-0.016017258167266846,0.018992120400071144,0.008720127865672112
1761506774114697500,7.539697509765625,-0.01747765950858593,0.012137218378484249,0.006794423796236515
1761506774124669400,7.54966943359375,-0.017629725858569145,-0.0029618400149047375,-0.0007175548234954476
1761506774134641400,7.559641357421875,-0.018606575205922127,-0.015537676401436329,-0.018493587151169777
1761506774144612400,7.5696123046875,-0.01862628385424614,-0.01737499237060547,-0.03205014392733574
1761506774154584300,7.579584228515625,-0.0116000697016716,-0.0019916279707103968,-0.0300426185131073
1761506774164556300,7.589556396484375,-0.006097711622714996,0.016941582784056664,-0.01963871344923973
1761506774174528300,7.5995283203125,-0.0009735613130033016,0.026759689673781395,-0.0004630362382158637
1761506774184499200,7.609499267578125,0.008077191188931465,0.019198177382349968,0.015903420746326447
1761506774194471400,7.619471435546875,0.01076968852430582,0.0029105735011398792,0.02505841664969921
1761506774204443400,7.629443359375,0.014209693297743797,-0.012360524386167526,0.02510315738618374
1761506774214415400,7.639415283203125,0.013498288579285145,-0.01959921233355999,0.017237981781363487
1761506774224387300,7.64938720703125,0.012485489249229431,-0.01550939679145813,0.007902270182967186
1761506774234359300,7.659359375,0.014467182569205761,-0.004254831001162529,-0.0063864728435873985
1761506774244330500,7.66933056640625,0.01365305483341217,0.010681774467229843,-0.010695734061300755
1761506774254302200,7.67930224609375,0.017174627631902695,0.018589716404676437,-0.007086022756993771
1761506774264274400,7.6892744140625,0.02076376974582672,0.02101718820631504,0.0030475712846964598
1761506774274246400,7.699246337890625,0.019155142828822136,0.013201802968978882,0.02397972345352173
1761506774284217300,7.70921728515625,0.02026328444480896,-0.002704725367948413,0.035692837089300156
1761506774294189600,7.719189453125,0.01838328316807747,-0.017109716311097145,0.04008299484848976
1761506774304161300,7.729161376953125,0.015494553372263908,-0.019562488421797752,0.039313606917858124
1761506774314133500,7.739133544921875,0.013618170283734798,-0.006286700256168842,0.029942471534013748
1761506774324105200,7.749105224609375,0.013153182342648506,0.006493011023849249,0.019335366785526276
1761506774334076400,7.759076416015625,0.009862192906439304,0.016364065930247307,0.0076588960364460945
1761506774344048400,7.76904833984375,0.005185415968298912,0.01499972864985466,-0.00488379318267107
1761506774354020400,7.779020263671875,0.0010141534730792046,0.007190277334302664,-0.013992290943861008
1761506774363992600,7.78899267578125,-0.0006207614205777645,-0.007686406373977661,-0.01796652562916279
1761506774373964300,7.79896435546875,-0.00600935984402895,-0.008269342593848705,-0.015035871416330338
1761506774383935500,7.808935546875,-0.003536348231136799,0.0041013071313500404,-0.004305996000766754
1761506774393907200,7.8189072265625,0.0008035716600716114,0.01006271131336689,0.008512548170983791
1761506774403879400,7.82887939453125,0.006080891937017441,0.010632362216711044,0.018250130116939545
1761506774413851100,7.83885107421875,0.006333433091640472,0.010445358231663704,0.024561617523431778
1761506774423823400,7.8488232421875,0.012527146376669407,0.0005953910876996815,0.0342070534825325
1761506774433794300,7.858794189453125,0.016939016059041023,-0.003233628813177347,0.031132197007536888
1761506774443766300,7.868766357421875,0.014294231310486794,-0.005121544003486633,0.020474227145314217
1761506774453738500,7.878738525390625,0.014980336651206017,0.0026473805774003267,0.010855750180780888
1761506774463710200,7.888710205078125,0.016715385019779205,0.0052383700385689735,0.0022904914803802967
1761506774473682400,7.898682373046875,0.013666639104485512,0.007385968696326017,-0.005079427268356085
1761506774483653400,7.9086533203125,0.0128698218613863,0.003589100204408169,-0.006131376139819622
1761506774493625300,7.918625244140625,0.015589562244713306,-0.002539402339607477,-0.002893133321776986
1761506774503597300,7.928597412109375,0.021083131432533264,-0.007560526020824909,0.008506794460117817
1761506774513569300,7.9385693359375,0.017707033082842827,-0.010989456437528133,0.011540772393345833
1761506774523541500,7.94854150390625,0.01863061636686325,-0.013093354180455208,0.01315278373658657
1761506774533512400,7.958512451171875,0.019623447209596634,-0.014200571924448013,0.012118909507989883
1761506774543484400,7.968484375,0.016372526064515114,-0.014190718531608582,0.0052301110699772835
1761506774553456400,7.978456298828125,0.01312996819615364,-0.016689419746398926,-0.0064347898587584496
1761506774563428400,7.988428466796875,0.007216685451567173,-0.010035512037575245,-0.01055416651070118
1761506774573400300,7.998400390625,0.004828025121241808,-0.004679725505411625,-0.010112444870173931
1761506774583371500,8.00837158203125,0.0026338468305766582,0.0029315887950360775,-0.003833243390545249
1761506774593342200,8.01834228515625,0.002591164782643318,0.00389316538348794,0.0008639427833259106
1761506774603314400,8.028314453125,-0.0007540318183600903,-0.0003138299798592925,0.005851244553923607
1761506774613285400,8.038285400390626,-0.0013107098639011383,-0.004359778482466936,0.011985275894403458
1761506774623257300,8.04825732421875,0.0006792042404413223,-0.009385962039232254,0.011487530544400215
1761506774633229300,8.058229248046874,-0.004930445458739996,-0.008556465618312359,0.00971061922609806
1761506774643201300,8.068201171875,-0.006129400338977575,-0.008687492460012436,0.0036553898826241493
1761506774653172700,8.0781728515625,-0.012562373653054237,-0.004587426315993071,-0.0010999635560438037
1761506774663144000,8.08814404296875,-0.01956195943057537,-0.0007593986811116338,-0.006524289958178997
1761506774673115600,8.09811572265625,-0.016209227964282036,0.005953705869615078,-0.009613528847694397
1761506774683088000,8.108087890625,-0.015832390636205673,0.009336719289422035,-0.005553539842367172
1761506774693059600,8.1180595703125,-0.016776099801063538,0.010217671282589436,-0.003175961086526513
1761506774703031800,8.12803173828125,-0.01543413382023573,0.010387581773102283,-0.0005311758141033351
1761506774713002800,8.138002685546875,-0.014649419113993645,0.003458338789641857,-0.0010055897291749716
1761506774722974700,8.147974609375,-0.017107252031564713,-0.007367144804447889,-0.004134537652134895
1761506774732947000,8.157947021484375,-0.01433737576007843,-0.012965448200702667,-0.007119170390069485
1761506774742918700,8.167918701171875,-0.01247023418545723,-0.009019176475703716,-0.0039055340457707644
1761506774752891000,8.177890869140626,-0.015154881402850151,-0.006523204036056995,-0.004080279264599085
1761506774762861800,8.18786181640625,-0.014440355822443962,-0.0005470701726153493,0.0006364453583955765
1761506774772833800,8.197833740234374,-0.013544667512178421,-0.0015228872653096914,0.00028131227008998394
1761506774782805800,8.2078056640625,-0.013569967821240425,-0.009715303778648376,-0.009271979331970215
1761506774792777700,8.21777783203125,-0.011320965364575386,-0.011377817951142788,-0.017476527020335197
1761506774802750000,8.22775,-0.01038806140422821,-0.015012766234576702,-0.02243266999721527
1761506774812721000,8.237720947265625,-0.00941433198750019,-0.013124246150255203,-0.022557543590664864
1761506774822692900,8.24769287109375,-0.0047077275812625885,-0.0019336434779688716,-0.014585637487471104
1761506774832664800,8.257664794921874,-0.0025716028176248074,0.0021472417283803225,0.00023774919100105762
1761506774842636800,8.26763671875,0.0024340744130313396,0.004348344169557095,0.009715407155454159
1761506774852607700,8.277607666015625,0.006079299375414848,-0.0002530572237446904,0.014874769374728203
1761506774862579700,8.287579833984376,0.011837853118777275,-0.011510238982737064,0.010195329785346985
1761506774872551700,8.2975517578125,0.011987598612904549,-0.011200172826647758,0.0005611057858914137
1761506774882523600,8.307523681640625,0.010605685412883759,-0.005908471532166004,-0.004454159177839756
1761506774892496000,8.317495849609376,0.005828384775668383,0.00012761983089148998,-0.0021181395277380943
1761506774902467800,8.3274677734375,0.0069775390438735485,0.010287312790751457,0.012748157605528831
1761506774912438800,8.337438720703124,0.00664864107966423,0.014577789232134819,0.019913358613848686
1761506774922410800,8.34741064453125,0.009915008209645748,0.00953003391623497,0.02612651325762272
1761506774932382700,8.3573828125,0.006847351789474487,0.004767939448356628,0.03040582686662674
1761506774942354700,8.367354736328124,0.00947882141917944,-0.0036929231137037277,0.02089541405439377
1761506774952326000,8.377325927734375,0.005550202913582325,-0.008375750854611397,0.004352417774498463
1761506774962297600,8.387297607421875,-0.0019050505943596363,-0.004712040536105633,-0.011827351525425911
1761506774972269800,8.397269775390624,-0.004278994165360928,0.007066995836794376,-0.022818181663751602
1761506774982241800,8.40724169921875,-0.007769599556922913,0.023563681170344353,-0.016747772693634033
1761506774992213800,8.4172138671875,-0.004704609047621489,0.03719025105237961,0.00007423723582178354
1761506775002185000,8.42718505859375,-0.001953297760337591,0.028321124613285065,0.018237795680761337
1761506775012156700,8.43715673828125,-0.0023930598981678486,0.0019974252209067345,0.027819519862532616
1761506775022129000,8.44712890625,-0.007062113378196955,-0.02074410580098629,0.024866605177521706
1761506775032100600,8.4571005859375,-0.007769481744617224,-0.027424031868577003,0.013480044901371002
1761506775042072800,8.46707275390625,-0.001542744692414999,-0.016139686107635498,0.001329638296738267
1761506775052043800,8.477043701171874,0.0013371948152780533,0.002862107940018177,-0.020762046799063683
1761506775062015700,8.487015625,-0.0005893358029425144,0.010379679501056671,-0.035630207508802414
1761506775071988000,8.496988037109375,0.00003795092925429344,0.019419100135564804,-0.037397272884845734
1761506775081959700,8.506959716796874,0.0017975014634430408,0.01847980171442032,-0.02594195120036602
1761506775091932000,8.516931884765626,0.00599414948374033,0.005050716456025839,-0.013255836442112923
1761506775101902800,8.52690283203125,0.0089768897742033,-0.0071548172272741795,0.006159939803183079
1761506775111874800,8.536874755859374,0.008882078342139721,-0.014561724849045277,0.02102147787809372
1761506775121846800,8.5468466796875,0.014574850909411907,-0.012763025239109993,0.024767480790615082
1761506775131818800,8.55681884765625,0.014712657779455185,-0.005659615155309439,0.02297847531735897
1761506775141791000,8.566791015625,0.015393361449241638,-0.0030893986113369465,0.00882643647491932
1761506775151761700,8.57676171875,0.009101701900362968,-0.002000934910029173,-0.0008312541758641601
1761506775161734000,8.58673388671875,0.006518435198813677,0.0036979634314775467,-0.007438290398567915
1761506775171705600,8.59670556640625,0.004324270412325859,0.0065444097854197025,-0.011882738210260868
1761506775181677800,8.606677734375,0.002772713080048561,0.0036253188736736774,-0.008613974787294865
1761506775191649800,8.61664990234375,-0.001705286093056202,0.0047394647262990475,-0.002709469525143504
1761506775201620700,8.626620849609376,-0.0018624123185873032,-0.0030505480244755745,0.0032123352866619825
1761506775211592700,8.6365927734375,-0.007376707158982754,-0.005584810394793749,0.0038390227127820253
1761506775221564700,8.646564697265624,-0.010184744372963905,-0.008346241898834705,0.005439315922558308
1761506775231537000,8.656536865234376,-0.011301489546895027,-0.011867525056004524,-0.005123539827764034
1761506775241508600,8.666508544921875,-0.015070928260684013,-0.009417151100933552,-0.01970008574426174
1761506775251479800,8.676479736328124,-0.020289842039346695,-0.0017969963373616338,-0.029460875317454338
1761506775261451800,8.68645166015625,-0.021486399695277214,0.008949657902121544,-0.033183708786964417
1761506775271423700,8.696423828125,-0.025069385766983032,0.006972717121243477,-0.03190917149186134
1761506775281395700,8.706395751953124,-0.025330372154712677,0.012524076737463474,-0.025237154215574265
1761506775291367700,8.71636767578125,-0.02145315147936344,0.00712829502299428,-0.013867915607988834
1761506775301338600,8.726338623046875,-0.021592436358332634,-0.0016769146313890815,-0.00033080141292884946
1761506775311310800,8.736310791015624,-0.02079964615404606,-0.0009521896718069911,0.015445282682776451
1761506775321282800,8.74628271484375,-0.021435342729091644,-0.003382856957614422,0.02669074572622776
1761506775331254800,8.7562548828125,-0.01651858352124691,-0.0028003575280308723,0.01503194309771061
1761506775341226800,8.766226806640624,-0.012091876938939095,0.004833327606320381,0.008771650493144989
1761506775351197700,8.77619775390625,-0.004293485544621944,0.008616697043180466,-0.0018476321129128337
1761506775361170000,8.786169921875,-0.0009829094633460045,0.0031609446741640568,-0.012310126796364784
1761506775371141600,8.7961416015625,-0.007649420294910669,-0.006977622397243977,-0.021379180252552032
1761506775381113900,8.80611376953125,-0.010533889755606651,-0.018916308879852295,-0.02877158299088478
1761506775391085800,8.8160859375,-0.012688422575592995,-0.025397956371307373,-0.03474150598049164
1761506775401056800,8.826056884765626,-0.010476134717464447,-0.016621775925159454,-0.03784409165382385
1761506775411028700,8.83602880859375,-0.008617701008915901,-0.006119668949395418,-0.03803211450576782
1761506775421000700,8.846000732421874,-0.010206809267401695,0.005252028815448284,-0.025664126500487328
1761506775430973000,8.855972900390626,-0.012430131435394287,0.010807671584188938,0.001153196906670928
1761506775440944600,8.865944580078125,-0.012714823707938194,0.0038360487669706345,0.026805032044649124
1761506775450915800,8.875915771484374,-0.014832649379968643,-0.008353968150913715,0.04118717089295387
1761506775460887600,8.885887451171875,-0.014419326558709145,-0.023844245821237564,0.040542952716350555
1761506775470859800,8.89585986328125,-0.012620130553841591,-0.036902569234371185,0.019207388162612915
1761506775480831700,8.905831787109374,-0.01219801977276802,-0.033473215997219086,-0.010889526456594467
1761506775490803700,8.9158037109375,-0.009219842031598091,-0.011360770091414452,-0.03707417473196983
1761506775500775000,8.92577490234375,-0.004072750452905893,0.01578696072101593,-0.05079051852226257
1761506775510746600,8.93574658203125,-0.0013643628917634487,0.029338719323277473,-0.04637211561203003
1761506775520718800,8.94571875,0.0031419722363352776,0.03883475437760353,-0.021961845457553864
1761506775530690600,8.955690673828125,0.007161111105233431,0.022988658398389816,0.01657804474234581
1761506775540662800,8.965662841796876,0.010310832411050797,-0.0011973708169534802,0.043977975845336914
1761506775550633700,8.9756337890625,0.010122460313141346,-0.027642201632261276,0.0579705648124218
1761506775560605700,8.985605712890624,0.016391275450587273,-0.038103632628917694,0.053803782910108566
1761506775570578000,8.995577880859376,0.017874659970402718,-0.03706727549433708,0.03473365306854248
1761506775580549600,9.005549560546875,0.01981557160615921,-0.02206702157855034,0.005189608782529831
1761506775590521900,9.01552197265625,0.014604533091187477,-0.00502072274684906,-0.023452406749129295
1761506775600492800,9.025492919921875,0.010195137932896614,0.013251491822302341,-0.0410899892449379
1761506775610464800,9.03546484375,0.0066485293209552765,0.02368355169892311,-0.033444084227085114
1761506775620436700,9.045436767578124,0.003278298769146204,0.01975805126130581,-0.016672825440764427
1761506775630408700,9.05540869140625,0.005605860613286495,-0.0010923972586169839,0.004204913042485714
1761506775640381000,9.065380859375,0.0001999097876250744,-0.02272392250597477,0.016291670501232147
1761506775650352400,9.075352294921874,0.001624549739062786,-0.028113383799791336,0.016168540343642235
1761506775660324600,9.08532470703125,0.0052618952468037605,-0.01966557279229164,0.009016888216137886
1761506775670296300,9.09529638671875,0.005978848319500685,0.0012000985443592072,-0.00035186344757676125
1761506775680268500,9.1052685546875,0.005601212382316589,0.016429917886853218,-0.005003074184060097
1761506775690240500,9.115240478515625,0.001566949300467968,0.01721913553774357,-0.010450314730405807
1761506775700211500,9.12521142578125,-0.0004274924285709858,0.0007972854073159397,-0.015319106169044971
1761506775710183700,9.13518359375,-0.008385252207517624,-0.016218524426221848,-0.01227622851729393
1761506775720155400,9.1451552734375,-0.004393971990793943,-0.025967560708522797,-0.0057900999672710896
1761506775730127600,9.155127685546875,-0.0006254450418055058,-0.021557219326496124,-0.002006490482017398
1761506775740099300,9.165099365234376,0.00004327436909079552,-0.019465573132038116,0.00009527627844363451
1761506775750070500,9.175070556640625,0.0037103290669620037,-0.017351385205984116,-0.008541763760149479
1761506775760042500,9.18504248046875,0.0014194780960679054,-0.0196001585572958,-0.022581949830055237
1761506775770014500,9.195014404296876,-0.0010727792978286743,-0.02464907430112362,-0.03290312737226486
1761506775779986700,9.204986572265625,-0.008153324946761131,-0.051579494029283524,-0.04446657374501228
1761506775789958400,9.21495849609375,-0.018846148625016212,-0.05854787304997444,-0.05393499135971069
1761506775799929600,9.2249296875,-0.023131174966692924,-0.05334432050585747,-0.04144370183348656
1761506775809901600,9.234901611328125,-0.025452230125665665,-0.045687586069107056,-0.03362300619482994
1761506775819873500,9.24487353515625,-0.03151039034128189,-0.045200228691101074,-0.039004456251859665
1761506775829845500,9.254845458984375,-0.034915775060653687,-0.046045515686273575,-0.047797150909900665
1761506775839817500,9.2648173828125,-0.03690116107463837,-0.06015334650874138,-0.07630042731761932
1761506775849788400,9.274788330078126,-0.04555293917655945,-0.0868859589099884,-0.11757148802280426
1761506775859760600,9.2847607421875,-0.051855575293302536,-0.10332325845956802,-0.1438334584236145
1761506775869732600,9.294732666015625,-0.056982800364494324,-0.09080588817596436,-0.15582837164402008
1761506775879704600,9.30470458984375,-0.04743430018424988,-0.10689617693424225,-0.1586015224456787
1761506775889676500,9.314676513671875,-0.04017030820250511,-0.10564529150724411,-0.1448519378900528
1761506775899647500,9.3246474609375,-0.03692364692687988,-0.09705580025911331,-0.1280873417854309
1761506775909619500,9.334619384765626,-0.02886302024126053,-0.09963889420032501,-0.114058718085289
1761506775919591400,9.34459130859375,-0.027202807366847992,-0.10034570097923279,-0.1066274344921112
1761506775929563600,9.354563720703124,-0.027018170803785324,-0.08490210771560669,-0.09980682283639908
1761506775939535600,9.36453564453125,-0.016085360199213028,-0.05967424437403679,-0.10247823596000671
1761506775949506600,9.374506591796875,-0.001959798391908407,-0.032198142260313034,-0.10705805569887161
1761506775959478500,9.384478515625,0.012568543665111065,-0.0012125284411013126,-0.10168459266424179
1761506775969450500,9.394450439453125,0.025049669668078423,0.0266096331179142,-0.07727360725402832
1761506775979422500,9.40442236328125,0.03720167651772499,0.04437531530857086,-0.05519147217273712
1761506775989394400,9.41439453125,0.04713727533817291,0.048082076013088226,-0.030970431864261627
1761506775999365600,9.42436572265625,0.06260731816291809,0.04985281080007553,-0.013544036075472832
1761506776009337300,9.43433740234375,0.0698384940624237,0.037065617740154266,-0.008215095847845078
1761506776019309600,9.4443095703125,0.08462463319301605,0.04401620104908943,-0.00859273225069046
1761506776029281500,9.454281494140625,0.08671501278877258,0.11276606470346451,-0.043398287147283554
1761506776039253500,9.46425341796875,0.0808483362197876,0.1345624327659607,-0.0887143686413765
1761506776049224700,9.474224609375,0.07318875193595886,0.20541441440582275,-0.12412199378013611
1761506776059196400,9.484196533203125,0.046047139912843704,0.20079649984836578,-0.14670239388942719
1761506776069168600,9.494168701171875,0.024298589676618576,0.1796993464231491,-0.12436322122812271
1761506776079140400,9.504140380859376,0.002310467418283224,0.12373727560043335,-0.07655096054077148
1761506776089112600,9.514112548828125,-0.014455541968345642,0.0642753466963768,-0.0105737941339612
1761506776099083500,9.52408349609375,-0.024394191801548004,0.02220779098570347,0.05813256651163101
1761506776109055500,9.534055419921875,-0.03576478362083435,0.003194714430719614,0.11136180907487869
1761506776119027700,9.54402783203125,-0.049791119992733,0.01592355966567993,0.1377345621585846
1761506776128999400,9.55399951171875,-0.06243886426091194,0.04543157294392586,0.1411321461200714
1761506776138971600,9.5639716796875,-0.06485302001237869,0.07758311927318573,0.13593178987503052
1761506776148942600,9.573942626953125,-0.06659577786922455,0.09739447385072708,0.12308166921138763
1761506776158914600,9.58391455078125,-0.075079545378685,0.10739384591579437,0.11251717805862427
1761506776168886500,9.593886474609375,-0.08211992681026459,0.10492213815450668,0.11070984601974487
1761506776178858500,9.6038583984375,-0.09461814165115356,0.09361142665147781,0.10988080501556396
1761506776188830700,9.613830810546874,-0.11238686740398407,0.08420077711343765,0.10595835745334625
1761506776198801400,9.623801513671875,-0.11946713924407959,0.06747426092624664,0.09410729259252548
1761506776208773600,9.633773681640625,-0.1217002347111702,0.05038749799132347,0.07314613461494446
1761506776218745300,9.643745361328126,-0.10876073688268661,0.02667231485247612,0.047196295112371445
1761506776228717600,9.653717529296875,-0.09430064260959625,0.0072824228554964066,0.027922669425606728
1761506776238689500,9.663689453125,-0.07758291810750961,-0.0074318088591098785,0.021478617563843727
1761506776248660500,9.673660400390625,-0.06694012880325317,-0.020053984597325325,0.022276535630226135
1761506776258632400,9.683632568359375,-0.058737862855196,-0.042551036924123764,0.020340416580438614
1761506776268604400,9.6936044921875,-0.057545989751815796,-0.06584730744361877,0.014454541727900505
1761506776278576600,9.70357666015625,-0.054358452558517456,-0.07699316740036011,0.005144929513335228
1761506776288548400,9.71354833984375,-0.05564722791314125,-0.07507339119911194,-0.008944354020059109
1761506776298519600,9.72351953125,-0.05490420386195183,-0.0505312941968441,-0.015637677162885666
1761506776308491500,9.733491455078125,-0.05634915828704834,-0.0266374833881855,-0.017818279564380646
1761506776318463500,9.74346337890625,-0.06081261485815048,-0.005179328843951225,-0.015205451287329197
1761506776328435500,9.753435546875,-0.060080550611019135,0.008540715090930462,-0.004317230544984341
1761506776338407400,9.763407470703125,-0.05953273922204971,0.023680519312620163,0.005982545204460621
1761506776348378400,9.77337841796875,-0.06035619229078293,0.03531787917017937,0.01847653277218342
1761506776358350600,9.7833505859375,-0.05907440930604935,0.04034193232655525,0.035777490586042404
1761506776368322600,9.793322509765625,-0.05126948282122612,0.04111117497086525,0.045577891170978546
1761506776378294500,9.80329443359375,-0.043119676411151886,0.03412730246782303,0.054167117923498154
1761506776388266500,9.8132666015625,-0.03501175343990326,0.022144585847854614,0.05390603095293045
1761506776398237400,9.823237548828125,-0.027309095486998558,0.017110677435994148,0.058388661593198776
1761506776408209700,9.833209716796874,-0.015069970861077309,0.02486717887222767,0.05940350890159607
1761506776418181400,9.843181396484376,-0.010132202878594398,0.029166053980588913,0.050054483115673065
1761506776428153600,9.853153564453125,0.0004889778792858124,0.0393143892288208,0.04743564873933792
1761506776438125600,9.86312548828125,0.012895314022898674,0.041637200862169266,0.043671805411577225
1761506776448096500,9.873096435546875,0.017081543803215027,0.02207760326564312,0.15580280125141144
1761506776458068700,9.88306884765625,0.13948467373847961,-0.21454451978206635,0.5484405755996704
1761506776468040400,9.89304052734375,-0.03019028715789318,-0.5757103562355042,0.42023715376853943
1761506776478012700,9.9030126953125,-0.17674696445465088,-0.4789460003376007,0.2115401327610016
1761506776487984400,9.912984375,-0.1488226354122162,-0.2522755265235901,-0.11516271531581879
1761506776497955600,9.92295556640625,0.02153339423239231,0.18653643131256104,-0.45695358514785767
1761506776507927300,9.93292724609375,0.18460707366466522,0.5777420997619629,-0.6737407445907593
