time,seconds_elapsed,z,y,x
1761507803756826000,0.079826171875,0.060683893543481825,-0.027635610422492025,0.02847165938783437
1761507803766798300,0.08979833984375,0.14306114797890185,-0.02428220834136009,0.02609460979187861
1761507803776770000,0.09977001953125,0.20177228014469145,-0.023077216465771197,-0.0022838548871688545
1761507803786741200,0.1097412109375,0.2373328383475542,-0.026321459084004163,-0.006189703219290822
1761507803796713200,0.119713134765625,0.22307751850187776,-0.006788271900638938,0.019040152102569118
1761507803806685200,0.129685302734375,0.2076128228664398,0.005028203425556421,0.07056405791169963
1761507803816657200,0.1396572265625,0.19198329205811024,0.0007170622281730175,0.1365856500881724
1761507803826629000,0.149629150390625,0.1685083084464073,0.016883476392179728,0.20053616247847675
1761507803836600000,0.15960009765625,0.13577566714584827,0.057529886491969225,0.26388576809987424
1761507803846572300,0.169572265625,0.053446928027272224,0.09529789161123335,0.3353679729029536
1761507803856544300,0.179544189453125,-0.04163257159292698,0.1485614989608526,0.38545868583749976
1761507803866516200,0.18951611328125,-0.11739479180276394,0.19356259713880716,0.42219424263648686
1761507803876488200,0.19948828125,-0.13245441376864908,0.22537074400559065,0.4417708305701613
1761507803886459100,0.209459228515625,-0.12136135734617709,0.21221176802925765,0.4633678549481556
1761507803896431000,0.21943115234375,-0.08974339928925038,0.18268347572796045,0.48117940597068515
1761507803906403000,0.229403076171875,-0.039214989057183264,0.1564923650253564,0.4692482182236388
1761507803916375000,0.239375,-0.004617722928524017,0.13143873392008243,0.44204296204242854
1761507803926347300,0.24934716796875,0.02618015091717243,0.1273135437488556,0.40431105114985255
1761507803936318200,0.259318115234375,0.06695230628848076,0.13284370534718035,0.4004813367938623
1761507803946290200,0.269290283203125,0.12223580209314823,0.13138948795087635,0.42542511431649327
1761507803956262100,0.27926220703125,0.1721855356544256,0.09840725580342113,0.45473490502890196
1761507803966234000,0.289234130859375,0.23153087407052517,0.04932948277108371,0.45528168872408564
1761507803976206000,0.2992060546875,0.25177929685115813,-0.014144991338998079,0.4231628684729337
1761507803986177300,0.30917724609375,0.21417875725328922,-0.06121858494207263,0.35840843755491075
1761507803996149000,0.31914892578125,0.1666968751102686,-0.09414178037866949,0.26555901680802924
1761507804006121200,0.329121337890625,0.1406026489108801,-0.11454751261286437,0.1751712734669447
1761507804016093200,0.33909326171875,0.16897709500193595,-0.13472498904913663,0.12970164446178822
1761507804026065200,0.349065185546875,0.20986790831685065,-0.14471994803659616,0.1238464521601796
1761507804036036400,0.359036376953125,0.23818097960948942,-0.14620777544155716,0.1528712153861299
1761507804046008000,0.369008056640625,0.24903262849152086,-0.14522745916731655,0.170380732988473
1761507804055980300,0.378980224609375,0.2606616914868355,-0.12072832013964652,0.19567918743398038
1761507804065952000,0.388951904296875,0.2647983529001474,-0.12073971831649541,0.2257791969423182
1761507804075923200,0.398923095703125,0.2462999886572361,-0.13637290238663555,0.27070428900830446
1761507804085895200,0.408895263671875,0.20649638605713844,-0.1480835061855614,0.30302089685387906
1761507804095867100,0.4188671875,0.12870821297764778,-0.15812033155336974,0.3227814630523324
1761507804105839400,0.42883935546875,0.023176292926073074,-0.16178126521371303,0.3038330900195986
1761507804115811000,0.43881103515625,-0.07168576455116271,-0.14770458987057208,0.30347819390101355
1761507804125782300,0.4487822265625,-0.13192600598037243,-0.13549765392206609,0.28992090278947724
1761507804135754000,0.45875390625,-0.15279460648596285,-0.12523797958381475,0.30209333368018265
1761507804145726200,0.468726318359375,-0.14579203424751758,-0.1255010144341737,0.31657935700919476
1761507804155698200,0.4786982421875,-0.12375906613767146,-0.13634148433506488,0.3359729530587792
1761507804165670100,0.488670166015625,-0.12244272284209727,-0.15092457483038305,0.3638703196899965
1761507804175641000,0.49864111328125,-0.11836042196452617,-0.14260595155730843,0.35901133535150437
1761507804185613000,0.508613037109375,-0.11480009913444518,-0.12529613951183854,0.3383375998308882
1761507804195585300,0.518585205078125,-0.09735270524919032,-0.12097747259512542,0.3184132579054683
1761507804205557000,0.528556884765625,-0.09500409629642963,-0.11147906495295465,0.3153980748027563
1761507804215529200,0.538529296875,-0.07939736184179783,-0.0676000296074897,0.2983170117455535
1761507804225500200,0.548500244140625,-0.07194412322640419,-0.03380487364195287,0.31571042868755755
1761507804235472100,0.55847216796875,-0.10884382107853889,-0.016476576091721654,0.33075353791005907
1761507804245444000,0.568444091796875,-0.15232465088665484,0.010946049167215824,0.29777210948020216
1761507804255416000,0.578416015625,-0.20694412982463836,0.03322349355742335,0.27854997927369546
1761507804265388300,0.58838818359375,-0.24474983660578725,0.05439582624994218,0.265619916682411
1761507804275359200,0.598359130859375,-0.2615618551969528,0.04231061698496341,0.24167737035788595
1761507804285331200,0.608331298828125,-0.28161154053509235,0.0389276234831661,0.22729272504411638
1761507804295303200,0.61830322265625,-0.28443361221849917,0.03446509111635387,0.22259428329588843
1761507804305275100,0.628275146484375,-0.27930267907083034,0.038010216377303,0.2251657960180193
1761507804315247000,0.6382470703125,-0.26952538142204285,0.03483363216780126,0.2100249985747039
1761507804325218300,0.64821826171875,-0.25103403144180775,0.005280132360011339,0.1843261283684522
1761507804335190300,0.658190185546875,-0.216696877554059,-0.014345043955743313,0.1439510277570225
1761507804345162200,0.668162353515625,-0.18714520437717436,-0.04858085636086762,0.09302422019136138
1761507804355134200,0.67813427734375,-0.1539911227941513,-0.07004552306346595,0.04921551926890388
1761507804365106200,0.688106201171875,-0.10073591794669627,-0.08590352886542678,0.025580906382389364
1761507804375077000,0.6980771484375,-0.01983458128273487,-0.09054448653906583,0.03190685800090432
1761507804385049000,0.708049072265625,0.005135024800896644,-0.09818915607333183,0.0473161062552128
1761507804395021300,0.718021240234375,0.031787469404935834,-0.09736658764407038,0.06364325480572879
1761507804404993300,0.7279931640625,0.015510288342833517,-0.06585333207063376,0.0679804254935123
1761507804414964200,0.737964111328125,-0.028192075261473656,-0.021946166609227657,0.0483294480162207
1761507804424936200,0.747936279296875,-0.056418637314438816,0.013635069055482745,0.03686310130194761
1761507804434908200,0.757908203125,-0.06430500665009022,0.043254473706334826,0.028672479189559816
1761507804444880100,0.767880126953125,-0.06114858844578266,0.0724688046876341,0.01495567753422074
1761507804454852000,0.77785205078125,-0.06698562403619289,0.10361271549202501,0.006580273439455777
1761507804464823300,0.7878232421875,-0.03410860582888126,0.1289163027703762,-0.009722206460684538
1761507804474795000,0.797794921875,0.054334232255816454,0.1403313576888293,-0.0075566350577864795
1761507804484767200,0.807767333984375,0.15966566129922866,0.17465002607181668,0.012478601629892363
1761507804494739200,0.8177392578125,0.2729419118672609,0.22722126724310218,0.014304109157156198
1761507804504711200,0.827711181640625,0.3513911792039871,0.2578780521176755,0.03467616745061241
1761507804514682400,0.837682373046875,0.4123912990897894,0.2897896593589335,0.0566873621200677
1761507804524654000,0.847654052734375,0.4478688551843166,0.31018896185234185,0.06689112328630872
1761507804534626300,0.857626220703125,0.5052560452699661,0.32363048109710213,0.060350551669579
1761507804544598000,0.867597900390625,0.5566390265047549,0.31101153028160333,0.031569360541692
1761507804554570200,0.8775703125,0.604819412305951,0.2624780201938003,-0.04459154012952931
1761507804564541200,0.887541259765625,0.6460369733572006,0.20995346770845352,-0.1709501121079549
1761507804574513200,0.89751318359375,0.6728600983530283,0.12039682316295802,-0.2931820965425111
1761507804584485400,0.9074853515625,0.6631698944658041,-0.0033664076931774613,-0.3521566836837679
1761507804594457000,0.91745703125,0.5685854848861694,-0.08070391439571976,-0.31558906733021136
1761507804604429300,0.92742919921875,0.3601169219732284,-0.15082674047909675,-0.23403228069851173
1761507804614400300,0.937400146484375,0.07573708576858043,-0.1271158292196691,-0.13195464755296707
1761507804624372200,0.947372314453125,-0.19941081171035765,-0.08175634605810046,-0.03189276326018153
1761507804634344200,0.95734423828125,-0.41296179245412346,-0.0795011144772172,0.08579683535424992
1761507804644316200,0.967316162109375,-0.52126902243793,-0.09292955504469573,0.20436068920269607
1761507804654287400,0.977287353515625,-0.5382838701248168,-0.14800992949269712,0.31987945800051093
1761507804664258300,0.98725830078125,-0.5232143112868071,-0.215088784770295,0.41088575336504723
1761507804674230300,0.997230224609375,-0.49905017636716364,-0.309406433172524,0.47379243752453476
1761507804684202500,1.007202392578125,-0.4304886813163757,-0.38801249850615854,0.49578642533086237
1761507804694174200,1.01717431640625,-0.32154666056036946,-0.45191243148669596,0.47791196513995526
1761507804704146400,1.027146484375,-0.1678892997652292,-0.5255002302668988,0.42044886027388273
1761507804714117400,1.037117431640625,0.013339374044537543,-0.6147425481662154,0.35058402753956613
1761507804724089300,1.04708935546875,0.1621037021011114,-0.6987888317923993,0.2688001358874142
1761507804734061300,1.057061279296875,0.22824176939725874,-0.7627576652906835,0.18186567480536175
1761507804744033300,1.067033203125,0.22550562243163585,-0.8042591578498482,0.10142651229305193
1761507804754004200,1.077004150390625,0.10637947679162024,-0.8079016060054302,0.02216102406946011
1761507804763976400,1.0869765625,-0.08043138106465339,-0.757731873017922,-0.0231224803796038
1761507804773948400,1.096948486328125,-0.2590712074249983,-0.691172146243602,-0.05924886490483768
1761507804783920400,1.10692041015625,-0.39037002141773697,-0.6418319959480315,-0.06776294681793078
1761507804793892400,1.116892333984375,-0.4465133489221334,-0.6069979984540492,-0.07394899677541107
1761507804803863300,1.12686328125,-0.4744704463839531,-0.612708046663925,-0.06568213108903728
1761507804813835300,1.136835205078125,-0.4751052371561527,-0.6254647254496812,-0.07830615993845276
1761507804823807200,1.14680712890625,-0.4138987810432911,-0.6073769878342747,-0.06845816254047676
1761507804833779500,1.156779541015625,-0.26977146513760086,-0.5884761802703142,-0.05791304059065878
1761507804843751400,1.16675146484375,-0.121622638630867,-0.6003106296446175,-0.033607579237874594
1761507804853722400,1.176722412109375,0.023290859216451642,-0.5759775678988546,-0.017098635246511548
1761507804863694300,1.1866943359375,0.13799451223909853,-0.5481786566734314,-0.039262956384755666
1761507804873666300,1.196666259765625,0.22091887916326522,-0.5381363514129072,-0.08244009053856134
1761507804883638300,1.20663818359375,0.28232933341562744,-0.5485507779214531,-0.13067218826068563
1761507804893610200,1.2166103515625,0.3276975844055414,-0.5578600196670741,-0.17980099736051633
1761507804903581400,1.22658154296875,0.38031682943701745,-0.5622620540183038,-0.2011475358424708
1761507804913553200,1.23655322265625,0.4487544058471918,-0.580683115241304,-0.19966617471091447
1761507804923525400,1.246525390625,0.5382464607238769,-0.5951505434677005,-0.1637793436957523
1761507804933497300,1.256497314453125,0.6360469097405672,-0.6255819951537996,-0.10511060763327404
1761507804943469300,1.26646923828125,0.7500555662363767,-0.655089902254194,-0.047061811833735555
1761507804953440500,1.2764404296875,0.794076494270563,-0.7045098397877066,0.027751583218667653
1761507804963412200,1.286412109375,0.8374760755360126,-0.7605839014481752,0.08662113908287138
1761507804973384400,1.296384521484375,0.8793518082350492,-0.7976432468414306,0.14289786544227973
1761507804983356200,1.306356201171875,0.9023276101529598,-0.8208521268628537,0.20776231433972714
1761507804993327400,1.316327392578125,0.9119932641208172,-0.8387243220314383,0.2763498023482971
1761507805003299300,1.32629931640625,0.9090817605882883,-0.8669228270336985,0.3295298413340002
1761507805013271300,1.336271240234375,0.856787509727478,-0.9170568311206996,0.3587843947278335
1761507805023243500,1.346243408203125,0.7436392694532871,-0.9829382202420384,0.34615970829129217
1761507805033215200,1.35621533203125,0.5832125606536865,-1.0667170120384544,0.2810196573228575
1761507805043186400,1.3661865234375,0.41159401123225686,-1.129925601753965,0.18075289125787092
1761507805053158400,1.376158447265625,0.26169220357835293,-1.2199145002368836,0.0976362988303881
1761507805063130400,1.38613037109375,0.10572539679706096,-1.345709675312042,0.08862729127351195
1761507805073102300,1.396102294921875,-0.11794599594473838,-1.4408207391142844,0.11065041384277864
1761507805083074300,1.40607421875,-0.5133721317082643,-1.5040990330651403,0.14829256409266964
1761507805093045200,1.416045166015625,-0.9513783490478992,-1.4101783480912446,0.14497956708716228
1761507805103017200,1.426017333984375,-1.2236094822973012,-1.233656536798179,0.14404876164360902
1761507805112989400,1.435989501953125,-1.286523911371827,-1.0776347118940204,0.23183325455058365
1761507805122961400,1.44596142578125,-1.2034271104902028,-0.9643156450975686,0.3719132312942296
1761507805132933400,1.455933349609375,-1.0464391439676284,-0.8164698931906372,0.494219797068648
1761507805142904300,1.465904296875,-0.9117635470181703,-0.6628809214565903,0.5987874751979485
1761507805152876300,1.475876220703125,-0.7761860327929258,-0.49952751155532893,0.677311378673464
1761507805162848300,1.48584814453125,-0.6082593236267566,-0.3897968246396631,0.6915146030057221
1761507805172820200,1.4958203125,-0.4392062407791614,-0.32310411913543935,0.6065422905758023
1761507805182791200,1.505791259765625,-0.2814449517965317,-0.25801665687076747,0.4050195282127708
1761507805192763400,1.515763427734375,-0.21023732615113258,-0.2109071882367134,0.13368123388355596
1761507805202735400,1.5257353515625,-0.21720073542296886,-0.1542597836676985,-0.09636807812601328
1761507805212707300,1.535707275390625,-0.2597586051672697,-0.0429045642901212,-0.3035561545080505
1761507805222679300,1.54567919921875,-0.3432540499776602,0.07840469754263758,-0.43378290055617685
1761507805232650200,1.555650146484375,-0.3780377785891294,0.19212072776742278,-0.518490570700541
1761507805242622500,1.56562255859375,-0.39765257964134215,0.30347580101452765,-0.5626139361958951
1761507805252594200,1.57559423828125,-0.3875888662666082,0.36033049165867265,-0.5912187935093417
1761507805262566400,1.58556640625,-0.34410686741471286,0.36166093654483555,-0.6418428096029907
1761507805272538400,1.595538330078125,-0.3236182061374187,0.35048093249127266,-0.6905639512173831
1761507805282509300,1.60550927734375,-0.3314706732034683,0.3219895820222795,-0.7628117335654795
1761507805292481500,1.6154814453125,-0.3064928838133812,0.26783750140033663,-0.853441706430912
1761507805302453200,1.625453369140625,-0.19709668954908846,0.17198416786342857,-0.9589083061613142
1761507805312425500,1.635425537109375,-0.029124387675523757,0.003101034755259752,-1.0142685935292393
1761507805322397200,1.645397216796875,0.18678572341501712,-0.16644333874061704,-1.0036617862537502
1761507805332368400,1.655368408203125,0.38456864166259763,-0.28250483611300586,-0.9458080746348947
1761507805342340400,1.66534033203125,0.5763602105408907,-0.3517038984149694,-0.8116610316041857
1761507805352312300,1.675312255859375,0.7571972546845674,-0.3768718035496771,-0.5885272163378075
1761507805362284500,1.685284423828125,0.8874906910270453,-0.34370895413830876,-0.31910540488809347
1761507805372256300,1.69525634765625,0.9334072235494851,-0.26141623618118465,-0.07123610282121226
1761507805382227500,1.7052275390625,0.8796160121291875,-0.1776657206311822,0.14064303572019562
1761507805392199200,1.71519921875,0.7917319769710301,-0.07686484768949449,0.33303335594292727
1761507805402171400,1.72517138671875,0.6680956604301929,0.020171338956430553,0.4434440975446254
1761507805412143000,1.73514306640625,0.5133271235227584,0.10973960087448358,0.5155237567842006
1761507805422114300,1.7451142578125,0.35733225969076154,0.19361644621789453,0.517690652494505
1761507805432086300,1.755086181640625,0.20493863522112368,0.2871975970391184,0.46613257042113687
1761507805442058200,1.765058349609375,0.09097381786704063,0.357869946764037,0.4110431724164635
1761507805452030500,1.775030517578125,-0.01679857458770275,0.38761414683833717,0.33681707573272285
1761507805462002200,1.785002197265625,-0.14366379004716873,0.4203217267628759,0.23810159423034638
1761507805471973400,1.794973388671875,-0.2129331411063671,0.464010207972303,0.1201670055956114
1761507805481945300,1.8049453125,-0.24865035117566583,0.5123546252287924,0.030494717047503218
1761507805491917300,1.814917236328125,-0.21134908678531644,0.5461185823384672,-0.03853977494305
1761507805501889300,1.82488916015625,-0.09549801729321479,0.6038674453433602,-0.10343387006008997
1761507805511861200,1.834861328125,0.05686287395060062,0.6321048210512846,-0.11188495147326029
1761507805521832200,1.844832275390625,0.2121580650806427,0.6413860057462006,-0.09915991906793788
1761507805531804400,1.854804443359375,0.36038989369571206,0.6723983991254121,-0.06581791369738058
1761507805541776400,1.8647763671875,0.4560229355454445,0.6963221494179218,0.005670191123522818
1761507805551748400,1.874748291015625,0.5188397494643926,0.7250936320025474,0.09459430991914122
1761507805561720300,1.88472021484375,0.5469704499274491,0.7570246015314013,0.16776717122290283
1761507805571691300,1.894691162109375,0.5475479575544595,0.7946090667773038,0.21358325731186195
1761507805581663500,1.90466357421875,0.5153004694223403,0.8064299260176718,0.23125024876454844
1761507805591635200,1.91463525390625,0.46595337792932984,0.8177594946097582,0.19721596854720264
1761507805601607400,1.924607421875,0.45688335176706313,0.8073427300136536,0.12766169046624562
1761507805611578000,1.934578125,0.41888007658720017,0.7541305605903268,0.04626345539712347
1761507805621550300,1.94455029296875,0.38097617012858387,0.6814939250551164,-0.018930143256299197
1761507805631522300,1.954522216796875,0.36047289580404757,0.6009053806673735,-0.06415540557894855
1761507805641494300,1.964494384765625,0.3263087603956461,0.5208661407254636,-0.09359702424379066
1761507805651466500,1.974466552734375,0.3047013242214918,0.4685152643065899,-0.06590255977353081
1761507805661437400,1.9844375,0.28872166480123995,0.42613487002104516,0.00918972528548911
1761507805671409700,1.99440966796875,0.25585633703172206,0.40697709202133114,0.11628341476107015
1761507805681381400,2.00438134765625,0.2408271102041006,0.3856777719482779,0.25428253011005
1761507805691353600,2.014353515625,0.2043535288095474,0.3646521542500704,0.4223537440471351
1761507805701325600,2.02432568359375,0.17867080602049826,0.3155008045248687,0.5598195927696302
1761507805711296500,2.034296630859375,0.17266776621341703,0.23567104261517524,0.7285682493105531
1761507805721268700,2.044268798828125,0.15178221457302568,0.1493425663359463,0.8944487665366381
1761507805731240400,2.054240478515625,0.11524316672682762,0.08938793691508472,1.0175434504814445
1761507805741212700,2.064212646484375,0.10626257241368293,0.05702792831920087,1.086124892341718
1761507805751183600,2.07418359375,0.14929098227918147,0.020917590746469795,1.1337536356095224
1761507805761155600,2.084155517578125,0.1956435681313276,-0.031095797346346078,1.1760077731668948
1761507805771127600,2.09412744140625,0.2501736152201891,-0.10762666384112089,1.194777793958038
1761507805781099500,2.104099609375,0.2827303154319525,-0.20358652649242429,1.1534185594137758
1761507805791071700,2.11407177734375,0.2546142280161381,-0.3010498525092378,1.1085299086343496
1761507805801042400,2.12404248046875,0.20207623152732848,-0.3830803758662194,1.0589756041314453
1761507805811014700,2.1340146484375,0.08130114963650703,-0.4656551987003535,0.9746117789886891
1761507805820986600,2.143986572265625,-0.10367840113937854,-0.5194603655807674,0.8275015748146921
1761507805830958600,2.15395849609375,-0.3404454222977161,-0.5572918643902987,0.6504894957866519
1761507805840930600,2.1639306640625,-0.5432534752309323,-0.5867838432691991,0.4557188014997169
1761507805850901500,2.173901611328125,-0.6920429377287626,-0.6655404960546643,0.2940552078489214
1761507805860873500,2.18387353515625,-0.8269254554271698,-0.7576058354854583,0.17420739687085152
1761507805870845400,2.193845458984375,-1.0070224948585034,-0.8505934043277055,0.03674912866661325
1761507805880817700,2.203817626953125,-1.159780276465416,-0.898043722288683,-0.1421821914535947
1761507805890789600,2.21378955078125,-1.2645663465857504,-0.9332464800298214,-0.31760793287195266
1761507805900760600,2.223760498046875,-1.2962234676092863,-0.9779727067891508,-0.45755335998311636
1761507805910732500,2.233732666015625,-1.2625053224027156,-1.0085298306815325,-0.5702990838710218
1761507805920704500,2.24370458984375,-1.1468915687978267,-1.0024685578811914,-0.6232222802851348
1761507805930676500,2.253676513671875,-0.9438900391191244,-0.9483536674644798,-0.614109584024921
1761507805940647700,2.263647705078125,-0.680941697999835,-0.8500206459410488,-0.5251306663021444
1761507805950619400,2.273619384765625,-0.36306115873157974,-0.7273358579713851,-0.38944640376679596
1761507805960591600,2.283591552734375,-0.05011106160283088,-0.5888260166212916,-0.218170840830449
1761507805970563600,2.2935634765625,0.2226718603104353,-0.46024643499199297,-0.06879828121503814
1761507805980535600,2.30353564453125,0.460714308232069,-0.380519074010849,0.04799554901989177
1761507805990506800,2.3135068359375,0.6732160721838474,-0.3118046899532899,0.15060955406446008
1761507806000478500,2.323478515625,0.8114017230808734,-0.28872177439909424,0.19322909086812287
1761507806010450700,2.33345068359375,0.8838935433179139,-0.267522261438705,0.17218524339348076
1761507806020422400,2.34342236328125,0.9141659319847821,-0.21950130398292092,0.12533918406912126
1761507806030394600,2.35339453125,0.9233411720871925,-0.15739479375779628,0.06640261368358041
1761507806040365600,2.363365478515625,0.9274550371468067,-0.029469036394730207,0.07954094416410662
1761507806050337500,2.373337646484375,0.9151122729241847,0.09359320658519864,0.14803964877752587
1761507806060309800,2.383309814453125,0.8429828562587499,0.1498860255628824,0.2566612602064386
1761507806070281500,2.393281494140625,0.6338415086507797,0.1639830495743081,0.3398701066277921
1761507806080252700,2.403252685546875,0.24124621239900587,0.16510624491795897,0.37435594827122987
1761507806090224400,2.413224365234375,-0.35580081233978267,0.18369816919583826,0.38623372533060607
1761507806100196600,2.423196533203125,-1.072083872833848,0.23451595429591834,0.35755635077022013
1761507806110168600,2.43316845703125,-1.7652163593649863,0.3239938710493967,0.34137064738385375
1761507806120140500,2.443140625,-2.3593249925643205,0.3786571525964886,0.40032943416777994
1761507806130111500,2.453111572265625,-2.6956226475328204,0.41357586923185735,0.5117710897197947
1761507806140083500,2.46308349609375,-2.7291759575664996,0.4035228233816102,0.6663774583354591
1761507806150055700,2.4730556640625,-2.442613516625762,0.36609438894763585,0.9218403390701859
1761507806160027400,2.48302734375,-1.9373674082279204,0.2934825955927372,1.1640814807906745
1761507806169999600,2.49299951171875,-1.3433347628742456,0.21678103043986482,1.295141079200059
1761507806179970600,2.502970458984375,-0.7062526648670434,0.13352706623515112,1.3187399814523755
1761507806189942500,2.512942626953125,-0.10274550420343875,0.08822309438679367,1.2708861972570418
1761507806199914500,2.52291455078125,0.45086862152218815,0.06019285862352699,1.1419500207424162
1761507806209886500,2.532886474609375,0.8826040880292654,0.05447817077115178,0.9539840745668857
1761507806219857400,2.542857421875,1.149427224755287,0.03001392039377242,0.7240634121719748
1761507806229829600,2.55282958984375,1.2625339639753101,-0.007807312750071287,0.47129404483754184
1761507806239801600,2.562801513671875,1.2052502342641354,-0.01134472962860018,0.2540716455720365
1761507806249773600,2.572773681640625,0.9463736726284027,0.006589278729818761,0.06290365195218474
1761507806259745500,2.58274560546875,0.487264461505413,0.07247362699322402,-0.1598391729689203
1761507806269716500,2.592716552734375,0.0346469504892826,0.2547075688553974,-0.4149034280411899
1761507806279688700,2.602688720703125,-0.33134383195340633,0.4809540362495929,-0.6712808663375676
1761507806289660400,2.612660400390625,-0.5313830046951771,0.660746320580691,-0.8598153331160545
1761507806299632600,2.622632568359375,-0.5791518870860338,0.7813683308016508,-0.9858265620946883
1761507806309604600,2.6326044921875,-0.48995150863230225,0.8539021635495125,-1.1210923800222574
1761507806319575600,2.642575439453125,-0.3248357652336359,0.8926006544519215,-1.2257190948624164
1761507806329547500,2.652547607421875,-0.08851824140846729,0.9457936077181249,-1.2753252026177941
1761507806339519500,2.66251953125,0.1609317357122898,1.0247355539426206,-1.2572872954934835
1761507806349491700,2.67249169921875,0.4180138151466846,1.0973593299962578,-1.1837347141571342
1761507806359462400,2.68246240234375,0.6520902820467949,1.1413473786741495,-1.1054236131820827
1761507806369434600,2.6924345703125,0.8484241705298423,1.1386042174458504,-1.0502011999148875
1761507806379406300,2.70240625,0.9980781409025191,1.0770117576900868,-0.9818156459528953
1761507806389378600,2.712378662109375,1.0571014077574015,0.9549152910023927,-0.8701515798218548
1761507806399350500,2.7223505859375,1.0538076269090175,0.7748232930723578,-0.7443690450325607
1761507806409321500,2.732321533203125,0.9450567448109388,0.5566512283992022,-0.5868510998191312
1761507806419293700,2.742293701171875,0.7580307828992605,0.35682547921240326,-0.4668443354196846
1761507806429265400,2.752265380859375,0.5444710343271494,0.19032872978411614,-0.3813630140217021
1761507806439237600,2.762237548828125,0.31751345952153204,0.044385158236697315,-0.29149631714634594
1761507806449209300,2.772209228515625,0.07875964846014977,-0.0761310535222292,-0.19431363470181823
1761507806459180500,2.7821806640625,-0.14401450318098066,-0.16843685064539313,-0.10073139703520573
1761507806469152500,2.792152587890625,-0.33665772045254705,-0.23681685164943336,-0.031195366996992376
1761507806479124500,2.80212451171875,-0.48983928042948244,-0.29984993866756554,0.04982859139963984
1761507806489096700,2.8120966796875,-0.5770131214916706,-0.40500425757840275,0.07724637608667835
1761507806499067600,2.822067626953125,-0.5740513490766287,-0.5267654644297436,0.17093500587036833
1761507806509039600,2.83203955078125,-0.5346744474560022,-0.5997142711866646,0.3009105719027109
1761507806519011600,2.842011474609375,-0.47952013098895546,-0.6468238859511911,0.4674461737703532
1761507806528983600,2.851983642578125,-0.382035323792696,-0.6366933909505605,0.5932679811241105
1761507806538955500,2.86195556640625,-0.24981179617047308,-0.6246377731062471,0.6928702553983778
1761507806548926500,2.871926513671875,-0.10435469296574593,-0.6184959093503654,0.7699140398513525
1761507806558898400,2.8818984375,0.02941664862036705,-0.6042464712562039,0.8047017870508134
1761507806568870700,2.89187060546875,0.13777064035534858,-0.5658530277149751,0.7777784165509045
1761507806578842600,2.901842529296875,0.21830840440392493,-0.5354792610328645,0.6825557090677321
1761507806588814600,2.911814697265625,0.3231429898411035,-0.5213229445822537,0.5416272257359698
1761507806598785500,2.92178564453125,0.45579555653035636,-0.4987005592118948,0.37516989500261844
1761507806608757500,2.931757568359375,0.5559376002371311,-0.4716630973456427,0.21409443997070193
1761507806618729500,2.9417294921875,0.5927180556237698,-0.49745490653235463,0.09879351517464965
1761507806628701400,2.951701416015625,0.5580056386828423,-0.5166482307694852,0.013363426206982694
1761507806638672600,2.961672607421875,0.4849082537680864,-0.5193097781289369,-0.09238447011625393
1761507806648644400,2.971644287109375,0.35023616394996643,-0.5196441977150738,-0.17132416958473623
1761507806658617000,2.9816171875,0.22159224838018415,-0.5148648544840514,-0.23517843679264186
1761507806668589000,2.991589111328125,0.1509714827120304,-0.5085222074590623,-0.25101452302373944
1761507806678561000,3.00156103515625,0.15746844351589678,-0.474861345397681,-0.20949028890980406
1761507806688532200,3.0115322265625,0.26380349664390085,-0.44715632300078867,-0.09357726009739563
1761507806698504000,3.02150390625,0.4436421773999929,-0.4587041374534368,0.07039196188095957
1761507806708476200,3.03147607421875,0.605774521073699,-0.5074400382455438,0.250616153089609
1761507806718448000,3.0414482421875,0.6865057618677616,-0.5566911220181733,0.34383802387807516
1761507806728420000,3.051420166015625,0.7248872227102517,-0.5720643399778753,0.42089481394309547
1761507806738391000,3.06139111328125,0.7526368149012327,-0.5381878624044358,0.5022982549102977
1761507806748363000,3.071363037109375,0.748018507450819,-0.5562854638267308,0.6271161459185183
1761507806758335200,3.081335205078125,0.731770552483201,-0.5690519333541393,0.7451563960179686
1761507806768307000,3.091306884765625,0.680991966882348,-0.5524754040192812,0.7977465610854327
1761507806778278100,3.101278076171875,0.6167945122599602,-0.5366287233289331,0.8064372325412928
1761507806788249900,3.111249755859375,0.5012549929350614,-0.5455409285809845,0.8294406531184911
1761507806798222000,3.12122216796875,0.2918482723891735,-0.5385023717137053,0.8417742111213504
1761507806808194000,3.131194091796875,0.028683073648810384,-0.4958325294949114,0.7893477852482348
1761507806818166000,3.141166015625,-0.22611878589391707,-0.4604686994405463,0.686331574344635
1761507806828137200,3.15113720703125,-0.44555473302304743,-0.45677620159815996,0.5456161857742816
1761507806838109000,3.16110888671875,-0.5947533608436584,-0.4664985541893169,0.40301805219724773
1761507806848081200,3.1710810546875,-0.6965951942056418,-0.5068657454889267,0.28054411223297937
1761507806858052900,3.181052978515625,-0.7702227404743432,-0.5355240500226617,0.188483193248976
1761507806868024000,3.191024169921875,-0.8122299905985594,-0.55770892075859,0.1339586077865213
1761507806877996000,3.20099609375,-0.8149673066079616,-0.6092308720726519,0.05486889625494368
1761507806887968000,3.210968017578125,-0.7625982369452714,-0.6933817851170897,-0.13052908086241222
1761507806897940200,3.220940185546875,-0.689444153407216,-0.7599500605240463,-0.3867719969257712
1761507806907912000,3.230911865234375,-0.6749801592469215,-0.7677396184217185,-0.6504267327487468
1761507806917883100,3.240883056640625,-0.8567489312827586,-0.7716339955117553,-0.8349592704094946
1761507806927855000,3.250855224609375,-1.2349503760010003,-0.635018589606136,-0.957019423674792
1761507806937827000,3.2608271484375,-1.7308365353792905,-0.352801338262856,-0.9758529381562023
1761507806947799000,3.270799072265625,-2.2381723095327613,-0.02156746948994696,-0.9009441929705441
1761507806957771000,3.28077099609375,-2.5810744773328302,0.3303350202370435,-0.7668967378567904
1761507806967742000,3.290741943359375,-2.652453952413797,0.6355841145344078,-0.6141342800747602
1761507806977714200,3.300714111328125,-2.4100492176294326,0.8411004035130143,-0.4175519332559779
1761507806987686100,3.31068603515625,-1.8728478820443153,0.9109201549965887,-0.23472504873564465
1761507806997658000,3.320658203125,-1.1515969700098037,0.8432007367931306,-0.16264182756580411
1761507807007629000,3.330629150390625,-0.3575000174731016,0.7151466038100421,-0.1824502149613574
1761507807017601000,3.34060107421875,0.4057324257224798,0.5577971104986965,-0.2054614717851393
1761507807027573000,3.350572998046875,1.090232108464837,0.39752719969600436,-0.18966359867257995
1761507807037545000,3.360544921875,1.6211241147726774,0.24030089437291025,-0.17575639814483002
1761507807047517200,3.37051708984375,1.951972856685519,0.12477642648667096,-0.20468137252442536
1761507807057488000,3.38048779296875,2.0723802743077275,0.06338628436997533,-0.2678043297830969
1761507807067460000,3.390460205078125,2.035011205378175,0.08068535582572221,-0.3527252773519605
1761507807077432000,3.40043212890625,1.9022230296105145,0.11410641778185963,-0.4744092177160084
1761507807087404000,3.410404052734375,1.704374644911289,0.12409246281050144,-0.6131671155430376
1761507807097376000,3.4203759765625,1.4607400760710239,0.15207988234534858,-0.7064389812193811
1761507807107347000,3.430346923828125,1.2335364175498484,0.23358028088100252,-0.7354911804415285
1761507807117319200,3.440319091796875,0.9974690690934658,0.3573744183320552,-0.6894584011282772
1761507807127291000,3.450290771484375,0.7439326994419098,0.5001859023988247,-0.5767833678564056
1761507807137263000,3.46026318359375,0.443576710948348,0.7064828203611075,-0.50863505671639
1761507807147234000,3.470234130859375,0.17616612972319126,0.9228403098929673,-0.4240726037289947
1761507807157206000,3.4802060546875,-0.02783668595254421,1.1077923881400376,-0.2791314872223884
1761507807167178200,3.49017822265625,-0.1408195065319538,1.2380141474857926,-0.14363372370246796
1761507807177150000,3.50014990234375,-0.2033691939473152,1.3227468790061772,-0.04336063749454915
1761507807187122200,3.5101220703125,-0.17577216196954248,1.4271476030707357,0.0005125160994008183
1761507807197093000,3.520093017578125,-0.08785656262934208,1.5329542484104632,0.05921400365401059
1761507807207065000,3.530065185546875,0.0548334139496088,1.5882535263061524,0.11150609909035265
1761507807217037000,3.540037109375,0.22640870875120161,1.6274457190096376,0.16528554700762033
1761507807227009000,3.550009033203125,0.38418811791241164,1.6708900161996483,0.17574768511541186
1761507807236981200,3.559981201171875,0.5664911429554224,1.6579934174865483,0.14031568519566207
1761507807246952000,3.569951904296875,0.7106646360903978,1.6150108925893902,0.09015504883006215
1761507807256924200,3.579924072265625,0.8195645712703465,1.539045843283832,0.033227877471596
1761507807266896100,3.589896240234375,0.8645113819777965,1.4207722228199242,-0.021442856729589403
1761507807276868000,3.5998681640625,0.814265295818448,1.2904391851194201,-0.07539674789831041
1761507807286839000,3.609839111328125,0.6853565918326378,1.1411939416781067,-0.12197663970030843
1761507807296811000,3.61981103515625,0.5143991366684436,0.9976235290028155,-0.1383763511635363
1761507807306783000,3.629782958984375,0.3369622563570738,0.8756886095523834,-0.09462335335053502
1761507807316755000,3.6397548828125,0.16437866129577158,0.7856483462084084,0.015063348292931914
1761507807326727200,3.64972705078125,0.0013327099084854126,0.7035583112165331,0.15490692246481774
1761507807336698000,3.659697998046875,-0.11852584165930748,0.6178888103026896,0.2998175525016151
1761507807346670000,3.669670166015625,-0.2223667398840189,0.5067873464904725,0.43699532326404
1761507807356642000,3.67964208984375,-0.2843757445514202,0.3938500455532223,0.5941153552010655
1761507807366614000,3.689614013671875,-0.27132804692983625,0.27732944276910276,0.7289429278418421
1761507807376585000,3.6995849609375,-0.18073825994431972,0.15755067843925208,0.815370480581373
1761507807386557200,3.70955712890625,-0.026563012754917143,0.020742599505744874,0.8740735025059432
1761507807396529000,3.71952880859375,0.13970248520076273,-0.1347955700673163,0.8858366402097045
1761507807406501000,3.729501220703125,0.28297815271317955,-0.2934586667278781,0.8785275593053549
1761507807416473000,3.73947314453125,0.37188743926584716,-0.427229971781373,0.8667173675894737
1761507807426444000,3.749444091796875,0.3831055833727121,-0.5367470159463584,0.8351585923738777
1761507807436416300,3.759416259765625,0.32157705569863315,-0.6137725340902805,0.7830986617255955
1761507807446388000,3.769387939453125,0.20677403395473956,-0.6821906751476228,0.7190361585944891
1761507807456360200,3.779360107421875,0.044699557948112485,-0.7224972588337958,0.6515912464834749
1761507807466332000,3.789331787109375,-0.1572930869489908,-0.7658238479282706,0.5526514181733131
1761507807476303000,3.79930322265625,-0.3391676574468612,-0.805403797840327,0.47814493364561345
1761507807486275000,3.809275146484375,-0.5166197353273629,-0.8531161277383565,0.40581612195055927
1761507807496247000,3.8192470703125,-0.6606248861581087,-0.8935523291535675,0.3231725812617689
1761507807506219300,3.82921923828125,-0.7679109564006328,-0.9081107235990464,0.23320609554005786
1761507807516190000,3.83918994140625,-0.8423977498471736,-0.9081087508376687,0.1331403867388144
1761507807526162200,3.849162109375,-0.8525514795929193,-0.9263609582997858,0.02621823617154732
1761507807536134000,3.8591337890625,-0.8168301778703928,-0.9577764525871724,-0.07912930375644937
1761507807546106000,3.869106201171875,-0.7743196543991565,-0.9976484442483633,-0.1853250214789994
1761507807556078000,3.879078125,-0.7281646369457244,-1.0309956372506917,-0.2925893182811327
1761507807566049000,3.889049072265625,-0.6949392436921596,-0.9940321534473449,-0.3764499248757958
1761507807576021000,3.89902099609375,-0.6473112310767173,-0.9148169432394206,-0.43801418145038185
1761507807585993000,3.908992919921875,-0.5655430484503507,-0.8061854497373103,-0.42597398037090894
1761507807595965200,3.918965087890625,-0.4643003500252962,-0.6712013713605701,-0.373825056264922
1761507807605936000,3.92893603515625,-0.3838794903546571,-0.5377198065012693,-0.27381299561336636
1761507807615908000,3.938908203125,-0.34114451047778127,-0.3927956411294639,-0.13356294126613064
1761507807625880000,3.948880126953125,-0.2996422872662544,-0.21308953724447638,-0.01767915681451559
1761507807635852000,3.95885205078125,-0.27816052329838276,-0.03964300521090627,0.11555974012902005
1761507807645824000,3.968823974609375,-0.2853092260092497,0.13578293713685124,0.3063794500341639
1761507807655795200,3.978795166015625,-0.23000936359167098,0.35777799416426564,0.4822692835666239
1761507807665766700,3.9887666015625,-0.10694120232760905,0.5749154550926759,0.669130556435883
1761507807675739000,3.99873876953125,0.07207973230481148,0.7158136894166469,0.8395742168590425
1761507807685709800,4.008709716796875,0.07185118424594401,0.7321681734986603,0.7909620155118405
1761507807695681800,4.018681884765625,0.3384709073543548,0.8062547886464745,0.9352740403346717
1761507807705652700,4.02865283203125,0.6346785439968109,0.7772191021677106,0.9948623206611722
1761507807715624700,4.038624755859375,0.9799456873625516,0.6509617164082825,0.9989727516546845
1761507807725597000,4.048596923828125,1.333212597310543,0.5019387374155223,0.9656723204035311
1761507807735568600,4.058568603515625,1.5849270122319459,0.33091895760484036,0.9113212831433862
1761507807745539800,4.068539794921875,1.6250661303967238,0.11651636500041931,0.8923403230153024
1761507807755511800,4.07851171875,1.4149579835832118,-0.10197546967901289,0.8171456004951149
1761507807765483800,4.08848388671875,0.9836790286719799,-0.22134024638049304,0.6079710447372868
1761507807775455700,4.098455810546875,0.43618601617515085,-0.28505463019367305,0.34922519680913533
1761507807785427700,4.108427734375,-0.1861456719458103,-0.27554979281071573,0.24082130151782183
1761507807795398700,4.118398681640625,-0.9237328017532825,-0.22040493829175828,0.1872007704893127
1761507807805371000,4.128370849609375,-1.645459514605999,-0.10444617064148187,0.10893000152464956
1761507807815342800,4.1383427734375,-2.1717612705141303,0.0730803972473368,0.03407130602579564
1761507807825314800,4.148314697265625,-2.387517067825794,0.2073135841915384,0.026945399668626486
1761507807835286800,4.158286865234375,-2.2187480626165867,0.28842450848557055,0.1484426583541557
1761507807845257700,4.1682578125,-1.7543787390083074,0.3058248848913237,0.3682975615477189
1761507807855230000,4.17822998046875,-1.2463935610353947,0.21527550298143178,0.5153077394133433
1761507807865201700,4.18820166015625,-0.7613520362764596,0.12515464868191628,0.5303238144984469
1761507807875174000,4.198173828125,-0.3229991974562406,0.10279500590097158,0.5093052841281518
1761507807885144800,4.208144775390625,-0.004200958821177482,0.04672852475875988,0.505603616598621
1761507807895116800,4.21811669921875,0.21833879954218863,0.020819500666856765,0.4938127141050994
1761507807905089000,4.228089111328125,0.3156283764272928,0.030283640713244676,0.491379276413098
1761507807915060700,4.238060791015625,0.3496984038114547,0.05719802418909967,0.42551107556689527
1761507807925033000,4.248032958984375,0.2914174797564745,0.109078835410811,0.2683850888131186
1761507807935003600,4.258003662109375,0.21444237662553786,0.17397483022399246,-0.00731978496145457
1761507807944976000,4.267975830078125,0.15075520961284636,0.19111743247639387,-0.2945989410704933
1761507807954947600,4.277947509765625,0.13146306464374063,0.19440317614879457,-0.5189499683732166
1761507807964919800,4.287919921875,0.07702712557911873,0.20689283802881836,-0.6990042281087487
1761507807974890800,4.297890869140625,-0.0685626640945673,0.25659148290585726,-0.8771448727753013
1761507807984862700,4.30786279296875,-0.24203648599386213,0.37248956987746057,-1.1060147109430283
1761507807994835000,4.3178349609375,-0.4055313501924276,0.535963975809887,-1.3244146660879255
1761507808004806700,4.327806640625,-0.5196633408069611,0.6983155151922256,-1.4906639435611664
1761507808014779000,4.33777880859375,-0.5545873546719551,0.8388098814230411,-1.577078636819124
1761507808024749800,4.347749755859375,-0.48756899740993975,0.9435497012488543,-1.615477633318305
1761507808034721800,4.3577216796875,-0.32990824619233605,1.0013470065053551,-1.6247313454844057
1761507808044693800,4.36769384765625,-0.11948562660217285,0.9425894779145717,-1.6482814401589334
1761507808054665700,4.377665771484375,0.12573065847158432,0.870788635616377,-1.6566653837531804
1761507808064636700,4.38763671875,0.377633873963356,0.8230642499543726,-1.5792453133337199
1761507808074609000,4.39760888671875,0.5943611466556787,0.7294339262291789,-1.3592289359681307
1761507808084580900,4.407580810546875,0.7258429159998894,0.6588076806683093,-1.0745669218212366
1761507808094553600,4.4175537109375,0.6627987230658531,0.5854492336645722,-0.512216897258535
1761507808104525800,4.42752587890625,0.5493477004528046,0.5553756555054337,-0.2617744385017082
1761507808114496800,4.437496826171875,0.4214157325446605,0.5031059545639902,-0.0883007353334222
1761507808124468700,4.44746875,0.2925450224816799,0.4015110817003995,0.012336307082371786
1761507808134441000,4.45744091796875,0.13602934964597224,0.2780598394028842,0.07359617388290353
1761507808144412700,4.46741259765625,-0.02938566896021366,0.16568170671835541,0.11668026859154924
1761507808154384000,4.4773837890625,-0.19115385549664496,0.09236519916020333,0.15384433473460377
1761507808164355800,4.48735595703125,-0.3198345959454775,0.028864129304140805,0.19134207154512403
1761507808174327800,4.497327880859375,-0.38624095878899095,-0.05170472400244325,0.2522582394745201
1761507808184299800,4.5072998046875,-0.3464753501117229,-0.11953629734348505,0.316502492380701
1761507808194271700,4.517271728515625,-0.2460463061571121,-0.183080841015093,0.35520569599084556
1761507808204242700,4.52724267578125,-0.052582420152425764,-0.2823238169902935,0.3651670449696481
1761507808214215000,4.53721484375,0.15981880603432655,-0.38273364478778094,0.3636486032307148
1761507808224187000,4.547186767578125,0.35389001028239725,-0.47673039067257195,0.3304838175905868
1761507808234158800,4.557158935546875,0.5078665200293064,-0.5544570428231731,0.29455899265259505
1761507808244129800,4.5671298828125,0.6502467000067234,-0.5929712266672402,0.26263690054994077
1761507808254101800,4.577101806640625,0.7319897481918335,-0.5929696922972798,0.2063267285786569
1761507808264073700,4.58707373046875,0.7764595890372991,-0.601370660091564,0.12428226802786811
1761507808274045700,4.597045654296875,0.7814566666722297,-0.6334478331580757,0.03701792197090108
1761507808284018000,4.607017822265625,0.7311509592801332,-0.6791917855925858,-0.07245208188169636
1761507808293988600,4.616988525390625,0.6617875001966953,-0.7012529568836092,-0.1789295665545389
1761507808303960800,4.6269609375,0.5942419041901826,-0.7245482000142336,-0.2654294538779184
1761507808313932800,4.636932861328125,0.5449830755025148,-0.7562927801255136,-0.33999935903064904
1761507808323904800,4.64690478515625,0.5361819294095039,-0.7985324507661163,-0.3704779743267223
1761507808333876700,4.656876708984375,0.5529588766872883,-0.8285980648145079,-0.35956341627631333
1761507808343847700,4.66684765625,0.5618728355050087,-0.8676195040609687,-0.2979045767534524
1761507808353820000,4.67681982421875,0.5162567472338676,-0.8768270389977842,-0.19417519434550776
1761507808363791600,4.68679150390625,0.4292383889943361,-0.859461989633739,-0.09069890078264288
1761507808373763800,4.696763916015625,0.30025311264097687,-0.8439086658667773,0.01582626238176017
1761507808383734800,4.70673486328125,0.17964754209816455,-0.8371315729472786,0.07832739452272654
1761507808393706800,4.716706787109375,0.06802841108739376,-0.8774065193861722,0.11276300381626933
1761507808403679000,4.726678955078125,-0.043853754773736,-0.9209157715711742,0.11603741324390283
1761507808413650700,4.736650634765625,-0.09724632226526736,-0.9731595343537628,0.08725446855034678
1761507808423623000,4.746622802734375,-0.05388005874752998,-1.0183720102600753,0.09822805417845956
1761507808433593900,4.75659375,0.06358896733522415,-1.062346980260685,0.1409226746454835
1761507808443565800,4.76656591796875,0.2177554466962814,-1.12648934369497,0.19917773360684513
1761507808453537800,4.776537841796875,0.3318891908764839,-1.1869271535228938,0.25766897594425825
1761507808463509800,4.786509765625,0.3618085283219814,-1.235219548331201,0.32285489361472425
1761507808473480700,4.796480712890625,0.28947920517027376,-1.2848695682935416,0.39395036412253975
1761507808483452700,4.80645263671875,0.12185995451807975,-1.277096450074017,0.44244427285231647
1761507808493425000,4.8164248046875,-0.08133972808122635,-1.2251241246439515,0.46009365558307613
1761507808503396900,4.82639697265625,-0.22802724986374376,-1.2072380470804869,0.42845622564069924
1761507808513368800,4.836368896484375,-0.3035182519167661,-1.2346797423660754,0.3531246519330889
1761507808523339800,4.84633984375,-0.4029951097130775,-1.1958896276574582,0.19529418843807653
1761507808533311700,4.856311767578125,-0.6201005680680275,-1.0672304414533078,0.011516999189276247
1761507808543283700,4.86628369140625,-0.9758201318651437,-0.9152443018060177,-0.09379371585967018
1761507808553255700,4.876255615234375,-1.4782792398929596,-0.748706124388799,-0.15760021666940302
1761507808563228000,4.886227783203125,-2.091916164904833,-0.43961986308135087,-0.24800299318283794
1761507808573198800,4.89619873046875,-2.656896903297305,0.04664828086309135,-0.3055185771548189
1761507808583170800,4.9061708984375,-3.0916245373576876,0.5089502966780215,-0.3012778891114518
1761507808593142800,4.916142822265625,-3.307804697561264,0.9138856537386775,-0.2695652567747049
1761507808603114800,4.92611474609375,-3.188299781736731,1.262221244764328,-0.22654839121652764
1761507808613085700,4.936085693359375,-2.7402374498069286,1.4985542584195732,-0.19312086298698558
1761507808623058000,4.946057861328125,-1.965682817608118,1.593625282472372,-0.18377010192088783
1761507808633029600,4.956029541015625,-0.9849129543811083,1.5929384692519901,-0.22672382084866985
1761507808643001900,4.966001953125,-0.002385433831810951,1.50613200019747,-0.29603494695667176
1761507808652973800,4.975973876953125,0.8231231405347585,1.3716311752930284,-0.35449575762320307
1761507808662945300,4.9859453125,1.4583277542322872,1.2173693457987158,-0.488453890485689
1761507808672917200,4.995917236328125,1.8797867413967846,1.0663143495216965,-0.621675196973607
1761507808682889200,5.00588916015625,2.078850931626558,0.9639641282461583,-0.7403422737345099
1761507808692861400,5.015861328125,2.0411136139065027,0.8848375461697577,-0.832406590251997
1761507808702832000,5.02583203125,1.780905511406064,0.9070860567264258,-0.9378879491601139
1761507808712804400,5.035804443359375,1.3914432524830103,1.0096830923698843,-0.9886323402304201
1761507808722776300,5.0457763671875,0.9922989729791879,1.136246694534272,-0.9459661147408187
1761507808732748300,5.055748291015625,0.6354273165374994,1.202245061098784,-0.8496920715738088
1761507808742720300,5.06572021484375,0.3695902682393789,1.2195968856550752,-0.7276518651179968
1761507808752691200,5.075691162109375,0.21309271558225154,1.2039439739711582,-0.5718671003727241
1761507808762663400,5.085663330078125,0.18340894045829773,1.189064238616824,-0.36091512314621355
1761507808772635100,5.09563525390625,0.2773901234477758,1.1695545053742826,-0.08933834388600662
1761507808782607400,5.105607421875,0.41862639408707614,1.1256592495463789,0.18207082372233271
1761507808792578300,5.115578369140625,0.5456733958542347,1.0718349395740776,0.3712231301382184
1761507808802550300,5.12555029296875,0.6735913352370262,1.0344388365071266,0.5110134032202884
1761507808812522500,5.1355224609375,0.7872925332188606,1.0251530487023293,0.5997763766374439
1761507808822494200,5.145494140625,0.8291437159985303,0.99161902789101,0.658414224371314
1761507808832466400,5.155466552734375,0.7777928834676742,0.9412263728678226,0.6855806829120964
1761507808842437400,5.165437255859375,0.6640788260042667,0.9234854028634727,0.6898338833771646
1761507808852409300,5.175409423828125,0.5643810189336538,0.9296543007567525,0.6937881008956581
1761507808862381300,5.18538134765625,0.5147656318932772,0.9170993550881743,0.7223018093269318
1761507808872353300,5.195353271484375,0.4846177463889122,0.8398042262226343,0.7133753563538193
1761507808882325500,5.205325439453125,0.45727848856449127,0.7161874911651015,0.6046777388129383
1761507808892296200,5.215296142578125,0.41472354142963885,0.6036098903857171,0.45416908783968535
1761507808902268400,5.225268310546875,0.39072073455154893,0.5030845464497804,0.32111700043883173
1761507808912240400,5.235240478515625,0.34675767418444153,0.39116190244778987,0.24761508984379468
1761507808922212400,5.24521240234375,0.20384616380929946,0.2858805961564183,0.21106427849456666
1761507808932183300,5.255183349609375,-0.02625029354393482,0.23521168147511778,0.16003226612191646
1761507808942155300,5.2651552734375,-0.29028175372481346,0.2571711459573358,0.0858416060777381
1761507808952127200,5.275127197265625,-0.5687012202203273,0.27316023079305884,0.015032332100160419
1761507808962099200,5.28509912109375,-0.8336544714212417,0.26705555724240837,-0.027969299356266856
1761507808972070100,5.295070068359375,-0.9831997207224369,0.23392690236158667,-0.06874138166233897
1761507808982042400,5.30504248046875,-1.033565633869171,0.18283004459179936,-0.10962240423560142
1761507808992014300,5.315014404296875,-0.9713421096682548,0.11984598434716462,-0.12899185222461818
1761507809001986300,5.324986328125,-0.7721282818347215,0.08437230071015656,-0.0866800296632573
1761507809011958300,5.334958251953125,-0.49754561702311034,0.07107713113352655,0.007904599112085997
1761507809021929200,5.34492919921875,-0.2075473564147949,0.09080774058513343,0.12327088076192885
1761507809031901400,5.3549013671875,0.05311608863770961,0.10874963998906313,0.21541626315899193
1761507809041873200,5.364873046875,0.2633224351286888,0.12237499136812985,0.299834485370107
1761507809051845400,5.374845458984375,0.37227380823493,0.14090360461883247,0.3903633724812418
1761507809061817300,5.3848173828125,0.4147387389987707,0.1669169476017356,0.4396840874239802
1761507809071788300,5.394788330078125,0.38788054268956185,0.1996893363907933,0.4966317170485854
1761507809081760500,5.404760498046875,0.352678296405077,0.21835860022120177,0.5813277698203921
1761507809091732200,5.414732177734375,0.3173334267795086,0.23253237926326692,0.665890113209933
1761507809101704400,5.424704345703125,0.30956922251880165,0.2383596971772611,0.7111706128511578
1761507809111675100,5.434675048828125,0.385998382204771,0.24277064548730848,0.7492660963591188
1761507809121647400,5.4446474609375,0.49712826839387414,0.19264789344668387,0.7907482266306877
1761507809131619300,5.454619384765625,0.6190770702391862,0.11079437062442302,0.8291026533357798
1761507809141591300,5.46459130859375,0.7676864999949932,0.027587679627537727,0.8534827690936625
1761507809151563500,5.4745634765625,0.8860282172590493,-0.044045112627372145,0.8534270933836698
1761507809161534200,5.4845341796875,0.9929144745290279,-0.125334425695613,0.8562490189366042
1761507809171506400,5.49450634765625,1.0254355189055204,-0.24947723045386372,0.8434754620812833
1761507809181478100,5.50447802734375,0.9667091891705989,-0.35692484793365,0.8000242236938327
1761507809191450400,5.514450439453125,0.8502052087277173,-0.4266722648333758,0.735550947804749
1761507809201421300,5.52442138671875,0.6772001733839511,-0.47995077749118203,0.6246934488162398
1761507809211393300,5.534393310546875,0.4447714736908674,-0.5264006131727248,0.5033572624439373
1761507809221365200,5.544365234375,0.2015133369475603,-0.5866259492937476,0.36991661411691457
1761507809231337200,5.554337158203125,-0.009329553881287575,-0.6486847113870083,0.24174172256467863
1761507809241309400,5.564309326171875,-0.1844113954991102,-0.6946982745431363,0.13584140759212895
1761507809251280400,5.5742802734375,-0.3413748121023178,-0.7414512578897178,0.0339555204592878
1761507809261252400,5.58425244140625,-0.5072533565670252,-0.7987577108893543,-0.03297578414035961
1761507809271224300,5.594224365234375,-0.6793868697732687,-0.8554176096137612,-0.08378105681873857
1761507809281196300,5.6041962890625,-0.8344751401543616,-0.8411180122349411,-0.11750053546587004
1761507809291167200,5.614167236328125,-0.9408733216464519,-0.7981907977215945,-0.15997019720375538
1761507809301139500,5.624139404296875,-0.9823398890227079,-0.7883588472761214,-0.21351965402374043
1761507809311111200,5.634111083984375,-0.9703115975767374,-0.8168139573879539,-0.3205573572620749
1761507809321083400,5.64408349609375,-0.9200865542054176,-0.8617026081673801,-0.4222836014203727
1761507809331055400,5.654055419921875,-0.8091904767721891,-0.8774775387957692,-0.483181831834279
1761507809341026300,5.6640263671875,-0.6592115122288466,-0.8296895863782614,-0.4569371277809143
1761507809350998500,5.67399853515625,-0.47291094198226924,-0.7530939110189676,-0.31563012999296186
1761507809360970200,5.68397021484375,-0.2702279767334461,-0.6459228454582393,-0.08584898566659539
1761507809370942500,5.6939423828125,-0.11647826147973536,-0.5194797278683633,0.1808838789600879
1761507809380913200,5.7039130859375,-0.026333295652270317,-0.4038950542274862,0.4414837207244709
1761507809390885400,5.713885498046875,0.014372808745503425,-0.2949673542577773,0.6465848164983093
1761507809400857000,5.723857177734375,0.13923662125468253,-0.17501593677476046,0.7656444727733731
1761507809410829300,5.733829345703125,0.34468379051983355,-0.06082198683992028,0.8705050694346428
1761507809420801300,5.74380126953125,0.5180728567451238,-0.04480550254061818,1.011134167961031
1761507809430772200,5.753772216796875,0.5959627366334199,-0.04349639270342886,1.0827774816099554
1761507809440744400,5.763744384765625,0.5602367587357759,-0.04121909542120993,1.0397074976250529
1761507809450716200,5.773716064453125,0.4402238933891058,-0.0364473509747535,0.9817143044702709
1761507809460688400,5.7836884765625,0.20511749891936779,-0.043817952807992694,0.953680926901847
1761507809470659300,5.793659423828125,-0.0585673397809267,0.05256839162707329,0.8952047725357115
1761507809480631300,5.80363134765625,-0.24335984355211257,0.2061727801259607,0.8446189330279826
1761507809490603300,5.813603271484375,-0.282844881722331,0.3300320917677134,0.7949376411445438
1761507809500575200,5.8235751953125,-0.1640945836573839,0.4109448996737599,0.7574605817958712
1761507809510547500,5.83354736328125,0.08519815707504749,0.42886429498493667,0.7174285772673785
1761507809520518400,5.843518310546875,0.38039866250157356,0.41071342900544405,0.6924431890927255
1761507809530490400,5.853490478515625,0.5955401273071765,0.3543649343177676,0.6706396458245814
1761507809540462300,5.86346240234375,0.6046136606007814,0.2802948319133371,0.5991344254720956
1761507809550434300,5.873434326171875,0.418005631840229,0.25457301922291514,0.4434539613515138
1761507809560405200,5.8834052734375,0.15010522127151488,0.3190275173462927,0.2554832294030115
1761507809570377500,5.89337744140625,-0.18198036895990372,0.4027965914662927,0.11273757711406797
1761507809580349200,5.90334912109375,-0.6013876842916012,0.5197483156766742,0.043319684429652984
1761507809590321400,5.9133212890625,-1.0454916339844464,0.6385343426421284,-0.029385632427595555
1761507809600293400,5.92329345703125,-1.4650485869199037,0.7426455822408199,-0.1237728389346972
1761507809610264300,5.933264404296875,-1.8160352769762276,0.8055980052381754,-0.23975864072237163
1761507809620236300,5.943236328125,-2.021504658073187,0.8197257531814277,-0.3136125430928543
1761507809630208300,5.953208251953125,-2.069607886984944,0.8153782254964113,-0.3870958585852757
1761507809640180200,5.96318017578125,-1.9834803401052952,0.7679104449439793,-0.44784678948298096
1761507809650151200,5.973151123046875,-1.7882985442668198,0.693766254390031,-0.5170232380943373
1761507809660122600,5.98312255859375,-1.51388129914999,0.6171251324538141,-0.6333288829535245
1761507809670094600,5.993094482421875,-1.182255143123865,0.5510610071767121,-0.7629081066120416
1761507809680066600,6.003066650390625,-0.7871843966692685,0.5072146319918334,-0.8616862415544688
1761507809690038800,6.013038818359375,-0.378005045363307,0.47295514645017683,-0.9073436847493052
1761507809700009500,6.023009521484375,0.05388005874752998,0.46588740002103146,-0.8820856171131134
1761507809709981700,6.032981689453125,0.4687959078788757,0.4840743602272123,-0.8495600426919758
1761507809719953700,6.04295361328125,0.7939724493741989,0.5285005080614239,-0.7891435679130255
1761507809729925600,6.052925537109375,1.0463105491518974,0.5707892785407602,-0.7192208675116301
1761507809739896600,6.062896484375,1.2149001061409712,0.6082852617856115,-0.6390103626560419
1761507809749868500,6.07286865234375,1.3040092991799115,0.6556820959936827,-0.5775236282970756
1761507809759840500,6.082840576171875,1.3146598725318908,0.6634341714251786,-0.5517971759641542
1761507809769812500,6.0928125,1.2817945447623729,0.6519966124139726,-0.5403176409747451
1761507809779784700,6.10278466796875,1.183976560088992,0.6242924667999148,-0.5624214092984795
1761507809789755600,6.112755615234375,1.0785890169441699,0.5774617420420051,-0.6328275823678821
1761507809799727600,6.1227275390625,0.9329957201391458,0.4860903031595051,-0.7043846790380776
1761507809809699600,6.132699462890625,0.7563888609111309,0.3763892076645046,-0.777097594679892
1761507809819671600,6.142671630859375,0.5389771130859852,0.284407893255353,-0.8431387044075876
1761507809829642500,6.152642578125,0.3351268576234579,0.23019370718263088,-0.8917867077205329
1761507809839614700,6.16261474609375,0.13720891481935976,0.19212649992108344,-0.8842951098561287
1761507809849586400,6.17258642578125,-0.06552315026819705,0.1044309000071138,-0.820227711354196
1761507809859558700,6.18255859375,-0.2919336125850677,-0.009107947019860148,-0.7534107218831777
1761507809869530600,6.192530517578125,-0.5008592716157436,-0.08471125034093856,-0.6870886032570153
1761507809879501600,6.20250146484375,-0.686741908711195,-0.1766438302375376,-0.5906621094746515
1761507809889473800,6.212473876953125,-0.8073340352505445,-0.23682459656447172,-0.4422986903691664
1761507809899445500,6.222445556640625,-0.8106418446242809,-0.28388854555636645,-0.29604031725153324
1761507809909417700,6.232417724609375,-0.6881003375828266,-0.34000089340060946,-0.13510982364825905
1761507809919388400,6.242388427734375,-0.49272564952075476,-0.40300248930193483,0.03556676874794066
1761507809929360600,6.252360595703125,-0.20735329514741896,-0.4632001336984336,0.17096783042773603
1761507809939332600,6.26233251953125,0.08152560604214668,-0.5348099469365551,0.28131723376363515
1761507809949304600,6.2723046875,0.33149113146960735,-0.6132702836565673,0.3535002072472125
1761507809959276800,6.28227685546875,0.5443249038547278,-0.6842471692860126,0.4140866317655891
1761507809969247500,6.29224755859375,0.6635059945523738,-0.7564666753876954,0.4913634212568402
1761507809979219700,6.3022197265625,0.7094225270748138,-0.8060431186571717,0.5382458762019873
1761507809989191400,6.31219140625,0.6931570364505052,-0.813118829197064,0.5354696894869208
1761507809999163600,6.32216357421875,0.6164402919948101,-0.7874559801522641,0.4718804298907518
1761507810009134600,6.332134521484375,0.5728419732868671,-0.7436033213570713,0.3225011848062277
1761507810019106600,6.3421064453125,0.5718623145997523,-0.7304885498486459,0.19937555773388593
1761507810029078500,6.35207861328125,0.6014484745681286,-0.7523164969056845,0.10089056051913649
1761507810039050500,6.362050537109375,0.6785942580908536,-0.7554560370404273,0.034928288181312384
1761507810049022700,6.372022705078125,0.7534691740721464,-0.7489137757901102,0.021944011184759436
1761507810058993700,6.38199365234375,0.8179308325886726,-0.7236928983591496,0.056328072954155504
1761507810068965600,6.391965576171875,0.8139759574830532,-0.7143946163989603,0.07865417879167944
1761507810078937600,6.4019375,0.7141419568121433,-0.6907158538434655,0.07269676822461188
1761507810088909600,6.41190966796875,0.5743950479477644,-0.6418073729634285,0.034859387663565576
1761507810098881500,6.421881591796875,0.4348609050512314,-0.6281143631756305,-0.04272069562319666
1761507810108852700,6.431852783203125,0.2836041756570339,-0.6429680873058736,-0.11004848416056483
1761507810118824400,6.441824462890625,0.1737847875446081,-0.6690427320219576,-0.13494038536548614
1761507810128796700,6.451796630859375,0.13850187723934648,-0.6835466198012232,-0.15874690248649567
1761507810138768600,6.4617685546875,0.21965222022831438,-0.6765726891353726,-0.14371972148548812
1761507810148739600,6.471739501953125,0.3251572522729635,-0.6810613057915121,-0.05971924976240843
1761507810158711600,6.481711669921875,0.38563597863316534,-0.6840013047661632,0.0598466024691239
1761507810168683500,6.49168359375,0.43009471356272694,-0.6447068207319826,0.17587463596332817
1761507810178655700,6.50165576171875,0.3838894272267818,-0.5796371133197099,0.2479024006188847
1761507810188626400,6.51162646484375,0.2650970435857773,-0.5371976092580706,0.25951073135342445
1761507810198598700,6.5215986328125,0.11317512828111648,-0.5253836181499064,0.17511473924042656
1761507810208570400,6.5315703125,-0.06336977162659167,-0.5247543072704225,0.013576689931750296
1761507810218542600,6.54154248046875,-0.22493629811108112,-0.5608481686323881,-0.1141926347605884
1761507810228514600,6.5515146484375,-0.3148579765766859,-0.6317932708840817,-0.2080192117102444
1761507810238485500,6.561485595703125,-0.280780350407958,-0.7491131708197295,-0.32000735869649793
1761507810248457700,6.571457763671875,-0.2745908481180668,-0.8790511447880417,-0.456076492363587
1761507810258429400,6.581429443359375,-0.4131511775463819,-0.9776204592853784,-0.5605040313698351
1761507810268401700,6.591401611328125,-0.7410632814854383,-1.0032168189652264,-0.5818732018087059
1761507810278372600,6.60137255859375,-1.2962386651784181,-0.9632574412815272,-0.5120906770629808
1761507810288344600,6.611344482421875,-1.9779221214562652,-0.7831376054964959,-0.4110188051601872
1761507810298316500,6.621316650390625,-2.6027006182074546,-0.5062661721605807,-0.35264775513634083
1761507810308288500,6.63128857421875,-3.0070003807783126,-0.2371708527188748,-0.22415139481108634
1761507810318260700,6.6412607421875,-3.141632138586044,0.010683123914711178,-0.08662417129017412
1761507810328231700,6.651231689453125,-2.9711586675465105,0.17122834452744573,0.0773145642183721
1761507810338203600,6.66120361328125,-2.420264906695485,0.27129366973619906,0.23797577589359134
1761507810348175600,6.671175537109375,-1.5780156254082918,0.28460107773989435,0.3777844248825684
1761507810358147600,6.681147705078125,-0.6610930881917476,0.21164149386063216,0.47762087323889135
1761507810368118500,6.691118408203125,0.1539870311409235,0.14608232243098318,0.5615055000299588
1761507810378090500,6.701090576171875,0.7592647086083889,0.0860940830014646,0.617654636220634
1761507810388062500,6.7110625,1.1263432862877845,0.07000562944449484,0.6038703314201906
1761507810398034700,6.72103466796875,1.34713123254776,0.14309366200901566,0.536624887404032
1761507810408006700,6.731006591796875,1.4297417112171649,0.2297072388399392,0.4614104738026857
1761507810417977600,6.7409775390625,1.4013772019982338,0.305341521821171,0.38079219186380503
1761507810427949600,6.750949462890625,1.2584200989156962,0.37316125859394667,0.2911466999910772
1761507810437921500,6.760921630859375,1.0435089357346297,0.453573204305768,0.1728375332897529
1761507810447893500,6.7708935546875,0.7996867353677749,0.5735209685269743,0.04537131972983479
1761507810457864400,6.780864501953125,0.5611211403548717,0.702247520878911,-0.0899887158198282
1761507810467836700,6.790836669921875,0.33219197321534155,0.826170033949986,-0.1832063670909032
1761507810477808400,6.800808349609375,0.07757365354597567,0.8881278929520398,-0.1929540367864072
1761507810487780600,6.810780517578125,-0.23424188659489154,0.9325034796427935,-0.18185151841584593
1761507810497752600,6.820752685546875,-0.5327268205195665,0.9942105056889354,-0.17967114216946065
1761507810507723500,6.8307236328125,-0.7545657371371984,1.0675254058118908,-0.17727398136723785
1761507810517695700,6.84069580078125,-0.8922796788692474,1.1395175328984857,-0.16431304871365426
1761507810527667500,6.85066748046875,-0.9037392305165529,1.1855061077438294,-0.12783263571951536
1761507810537639700,6.8606396484375,-0.7871019790828228,1.233563305556774,-0.06445592289548367
1761507810547610600,6.870610595703125,-0.5232242481589316,1.2654422526374458,-0.008740355816483497
1761507810557582600,6.88058251953125,-0.19282792618870734,1.2357216526344417,0.03353712608385831
1761507810567554800,6.890554931640625,0.15775427471995354,1.1831227197386325,0.048676023831032214
1761507810577526500,6.900526611328125,0.5258037432581186,1.1781496805664151,0.020536847800575197
1761507810587498800,6.910498779296875,0.9137684570997953,1.2122058986209332,-0.007964786600414664
1761507810597469700,6.9204697265625,1.354844583404064,1.2613789487212896,-0.026185155885852872
1761507810607441700,6.930441650390625,1.7773434350103139,1.281440032236278,-0.03474040092639625
1761507810617413600,6.94041357421875,2.0937199994564053,1.2655294925294815,-0.04549127458138391
1761507810627385600,6.950385498046875,2.31506967125237,1.2204132435392587,-0.04466209374824538
1761507810637356500,6.9603564453125,2.405501052805781,1.1661577756080777,-0.08340387580310925
1761507810647328500,6.97032861328125,2.3462100749254224,1.139836535719782,-0.1533710729333572
1761507810657300700,6.98030078125,2.136595849108696,1.1307052808895706,-0.18457659599818288
1761507810667272700,6.990272705078125,1.7345564326852558,1.115049008204788,-0.20254558433843775
1761507810677245000,7.000244873046875,1.1985574586272238,1.0635553331371397,-0.23048647958412766
1761507810687215900,7.0102158203125,0.6231020879715681,0.9928902168706059,-0.2869560068355873
1761507810697187800,7.020187744140625,0.09661094697117804,0.870268776460737,-0.31551322561502454
1761507810707159800,7.030159912109375,-0.33812136326432224,0.7311060972250998,-0.34970454129129647
1761507810717131800,7.0401318359375,-0.6591279255986213,0.5772977105867118,-0.329024814421311
1761507810727102700,7.050102783203125,-0.8278273727029561,0.382294924576953,-0.29755653050076214
1761507810737075000,7.060074951171875,-0.8788286611437797,0.16968732563052324,-0.2130831075036898
1761507810747046700,7.070046630859375,-0.8314356263279914,-0.009682714700512587,-0.0706385570531711
1761507810757019000,7.080018798828125,-0.7452443665623665,-0.12648016166463494,0.11652962634079157
1761507810766989800,7.08998974609375,-0.6632014586478472,-0.2035385591648519,0.31738442631438374
1761507810776961800,7.0999619140625,-0.5590712220877408,-0.23484810885973273,0.4892882954832166
1761507810786934000,7.10993408203125,-0.42712651140689845,-0.27905042134281244,0.6766345023252069
1761507810796905700,7.11990576171875,-0.29795535709261894,-0.3532125859448686,0.8448905895762145
1761507810806878000,7.1298779296875,-0.1405968036919832,-0.40912177589982746,0.9742531748093665
1761507810816848600,7.1398486328125,0.013104396244883536,-0.4681355808066204,1.1210044094778597
1761507810826820900,7.14982080078125,0.08152268343269825,-0.5438558981034904,1.2217035025455056
1761507810836792800,7.159792724609375,0.07401859141290187,-0.576695433844626,1.2204138280611485
1761507810846764800,7.169764892578125,0.04427811766564846,-0.6107621367605403,1.170947932494059
1761507810856735700,7.17973583984375,0.045428456744551655,-0.6533928890779614,1.1687282106179744
1761507810866707700,7.189707763671875,0.036978023785352705,-0.7222031712580472,1.1492953420039265
1761507810876680000,7.199679931640625,-0.031711481559276576,-0.7898356418304144,1.093952224966511
1761507810886651600,7.209651611328125,-0.12061959906816482,-0.8134599707849324,0.9908014278978109
1761507810896623900,7.219623779296875,-0.2734124519884586,-0.8473303839437663,0.8262356465321034
1761507810906594800,7.2295947265625,-0.4264724314123392,-0.8337317744411528,0.618079583634436
1761507810916566800,7.23956689453125,-0.5026981774806976,-0.7782560440000146,0.3817020367177203
1761507810926538800,7.249538818359375,-0.5080447992056608,-0.7673181781392544,0.23101043039299546
1761507810936510700,7.2595107421875,-0.5120967049449682,-0.7853148034051061,0.14017961945952848
1761507810946481700,7.269481689453125,-0.5241448701351881,-0.786723939550668,0.023009850317984817
1761507810956454000,7.279453857421875,-0.5467372256934643,-0.7699167432650923,-0.08474176421021111
1761507810966425900,7.28942578125,-0.5982979015827179,-0.7051450689513236,-0.19844158308571203
1761507810976397800,7.299397705078125,-0.6237666893601417,-0.6448869996044785,-0.30251565074548126
1761507810986369800,7.309369873046875,-0.636024697908759,-0.5893182205850258,-0.4136938330557197
1761507810996340700,7.3193408203125,-0.636267274492979,-0.5161961030878126,-0.5202682478975504
1761507811006313000,7.32931298828125,-0.6304828458726406,-0.4272860858827829,-0.610845577260293
1761507811016284700,7.33928466796875,-0.5947200430959463,-0.32830563330128787,-0.6243802912138402
1761507811026257000,7.3492568359375,-0.5099415727376938,-0.19032774340342729,-0.5414922377120703
1761507811036227600,7.3592275390625,-0.3644540743947029,-0.05492912940904498,-0.3386022786490619
1761507811046199800,7.36919970703125,-0.17334464256167412,0.08638824364244937,-0.06871580882966517
1761507811056171800,7.379171875,-0.00305646496117115,0.22497772610001265,0.18505124603891743
1761507811066143700,7.389143798828125,0.14696516968011855,0.31386586026679725,0.38326844578422603
1761507811076116000,7.399115966796875,0.29353286447525023,0.3573096825327724,0.5356161852855235
1761507811086086700,7.409086669921875,0.4717810611695051,0.37826402509305623,0.6246210411671549
1761507811096059000,7.419058837890625,0.6311141295135021,0.3821683755878359,0.7001482105121016
1761507811106030600,7.429030517578125,0.8010901724249124,0.3598378127709031,0.6565441927157342
1761507811116002800,7.4390029296875,0.9850544086784124,0.3609288228780031,0.5469113401513547
1761507811125973800,7.448973876953125,1.0072925439715386,0.2661402690283954,0.4884820571342483
1761507811135945700,7.45894580078125,0.8822901997745036,0.11129464829675853,0.36366876923590896
1761507811145918000,7.46891796875,0.6247925252765417,-0.006766206199303269,0.15530050662597641
1761507811155889700,7.4788896484375,0.30682898389995095,-0.08360942657887935,-0.00385786273824051
1761507811165862000,7.48886181640625,-0.054153614991903305,-0.11205343077480792,-0.03545355416443199
1761507811175832800,7.498832763671875,-0.41858723112046714,-0.08805814961604773,0.07529277606718242
1761507811185804800,7.5088046875,-0.7399614577233791,0.028170959408208726,0.2390665302723646
1761507811195776800,7.51877685546875,-0.9377882151126861,0.17893442539274693,0.40563152263127267
1761507811205748700,7.528748779296875,-1.0195219109475613,0.32657376800738275,0.5120426732027903
1761507811215719700,7.5387197265625,-0.9224982915222645,0.4389109110943973,0.5246407638933509
1761507811225692000,7.54869189453125,-0.6223609142154455,0.4992120158653706,0.538615586297214
1761507811235664000,7.558663818359375,-0.24539865590333937,0.5073539673972874,0.5985402589712292
1761507811245635800,7.5686357421875,0.05457505527436733,0.5181271442156284,0.6867747880674898
1761507811255607800,7.57860791015625,0.1695323907971382,0.5427092122863978,0.7029219860743731
1761507811265578800,7.588578857421875,0.1299836397409439,0.620884704183042,0.6590960691556335
1761507811275550700,7.59855078125,-0.009060673812031746,0.6920671223219483,0.6240934370964765
1761507811285522700,7.608522705078125,-0.22304770788550377,0.7138062951169908,0.6564683510005473
1761507811295495000,7.618494873046875,-0.46400049029588697,0.7425904179874807,0.6509680000185966
1761507811305465600,7.628465576171875,-0.6889981632053852,0.8240102255675941,0.5892035446967929
1761507811315437800,7.638437744140625,-0.8666419642657041,0.8719104061879217,0.4838077086476609
1761507811325409800,7.648409912109375,-0.938243557664752,0.8701974647901952,0.335239524217695
1761507811335381800,7.6583818359375,-0.8228542604655027,0.8336975799106061,0.17948489888235925
1761507811345353000,7.66835302734375,-0.5791267526447773,0.7827532092887908,0.030976737543940543
1761507811355324700,7.67832470703125,-0.3091664869368076,0.6977998938202857,-0.10020590272322297
1761507811365297000,7.688296875,-0.06227437760531902,0.6208239869717508,-0.23062274624966084
1761507811375268600,7.6982685546875,0.08668927241563797,0.5813663482651115,-0.3512127538971603
1761507811385240800,7.70824072265625,0.15596972939074039,0.6019917876645923,-0.45737486161105334
1761507811395211800,7.718211669921875,0.19626842203140257,0.7063902467068285,-0.5327004439692944
1761507811405183700,7.728183837890625,0.23876783958673475,0.8208857368715107,-0.6052886372528969
1761507811415156000,7.738156005859375,0.32280279810130597,0.9091958154220133,-0.7433888748887926
1761507811425127700,7.748127685546875,0.38901743776500225,0.8801342638496309,-0.9336326298031955
1761507811435099000,7.758098876953125,0.3785574185490608,0.9111945149585604,-1.13637148995772
1761507811445070800,7.76807080078125,0.3469043891787529,0.9024280017875135,-1.2401894456982612
1761507811455042800,7.778042724609375,0.33507951135039327,0.8365623216919601,-1.2801543763399124
1761507811465014800,7.788014892578125,0.3585188391268253,0.7243740124911069,-1.2547742897592484
1761507811474986800,7.79798681640625,0.40447102748453617,0.5586367031279951,-1.203289528650418
1761507811484957700,7.807957763671875,0.46664311375916,0.39347931254468854,-1.0995602741066366
1761507811494929700,7.8179296875,0.5384720861732959,0.29480865656472743,-0.9787314162019639
1761507811504902000,7.82790185546875,0.4952332484275102,0.1766681609611958,-0.7970860513500869
1761507811514873900,7.837873779296875,0.30526480332314965,0.0723195324100554,-0.6228873492423445
1761507811524844800,7.8478447265625,0.07556640537679195,0.05550904818885028,-0.5309335804272443
1761507811534816800,7.857816650390625,-0.11479659200310706,0.0021004063453525304,-0.4768788592325523
1761507811544788700,7.867788818359375,-0.2466045245617628,-0.12352861838266253,-0.40495168714094903
1761507811554760700,7.8777607421875,-0.34298984608352184,-0.24874095206856725,-0.32228385226111855
1761507811564732700,7.887732666015625,-0.458688939884305,-0.37080914250984787,-0.26150617948696014
1761507811574703600,7.89770361328125,-0.5794879871726035,-0.4409896170645952,-0.23499014767892656
1761507811584675800,7.90767578125,-0.6621937429100274,-0.4682524486519396,-0.22314912243336438
1761507811594647800,7.917647705078125,-0.6352806015431881,-0.47661856432855126,-0.20957531857844441
1761507811604619800,7.927619873046875,-0.4404506878823042,-0.4850296151254326,-0.15655063455123452
1761507811614591000,7.937591064453125,-0.18307167132794855,-0.5273691659439355,-0.08309504731595516
1761507811624562700,7.947562744140625,0.0874415520876646,-0.5722345089130103,-0.07026523022875189
1761507811634535000,7.957534912109375,0.33050971921682354,-0.629704920302704,-0.08046784061752259
1761507811644506600,7.967506591796875,0.5004238028079271,-0.7030944930970668,-0.05498294195551425
1761507811654478800,7.977478759765625,0.5846914010345935,-0.7282902360867709,-0.05651292800176888
1761507811664449800,7.98744970703125,0.6213929459661245,-0.6938260948184877,-0.0971830477707088
1761507811674421500,7.99742138671875,0.6124789871484041,-0.6430499203704297,-0.10063242103960364
1761507811684393700,8.007393798828126,0.5280009610414504,-0.6136041917860507,-0.05826386332232505
1761507811694364700,8.01736474609375,0.5299532641530037,-0.6287452084250748,-0.07699599978849292
1761507811704335600,8.027335693359374,0.4356079240262508,-0.5968585164293646,-0.02180219156127423
1761507811714307600,8.0373076171875,0.32327742987573144,-0.5447403527878224,0.03786138249114156
1761507811724279600,8.047279541015625,0.1991425161629915,-0.5168986253339797,0.05143507674820721
1761507811734251500,8.05725146484375,0.11631693343818188,-0.5286258880067617,0.0034423955388367174
1761507811744223500,8.067223388671875,0.10774199731647968,-0.5753028835076839,-0.07089896155502647
1761507811754194400,8.0771943359375,0.1517734467446804,-0.6442749321207404,-0.09958758816178888
1761507811764166700,8.087166748046876,0.2449438978731632,-0.7215501141767948,-0.05650958526721224
1761507811774138600,8.097138671875,0.3286912716180086,-0.8106487127564846,-0.002561228790134191
1761507811784110600,8.107110595703125,0.3740203596413135,-0.9132833769965917,0.037388138956204055
1761507811794081800,8.117081787109376,0.3394184173375368,-0.9880807707622646,0.08428053077347576
1761507811804053500,8.127053466796875,0.2576578334957361,-1.0380663062892854,0.13617469466710463
1761507811814025700,8.137025634765624,0.13514438350498675,-1.0441938492588698,0.20170898738382384
1761507811823997400,8.14699755859375,0.05761866075396537,-1.0426868056967853,0.28236195704359557
1761507811833968600,8.15696875,-0.0007522796720266342,-1.059403839480877,0.3465948848381638
1761507811843940600,8.166940673828124,-0.051963995993137356,-1.0687984944876283,0.37883857357800005
1761507811853912600,8.17691259765625,-0.0671335080742836,-1.0624290325209498,0.37394481018707154
1761507811863884800,8.186884765625,-0.056419221836328505,-1.0336970782291144,0.34570849392507225
1761507811873856500,8.1968564453125,-0.05484042821228504,-0.9837967367675154,0.34861002405285835
1761507811883827700,8.20682763671875,-0.09069909257888793,-0.8989308803867548,0.3588846767645329
1761507811893799400,8.21679931640625,-0.15833645852208136,-0.7798032003767787,0.3352814271306619
1761507811903771600,8.226771728515626,-0.2372457445859909,-0.6487312539424747,0.25270609283987433
1761507811913743600,8.23674365234375,-0.3265519215017557,-0.590317424222827,0.17919282060060648
1761507811923714600,8.246714599609374,-0.38822716417014597,-0.5964709784165024,0.1111813789143227
1761507811933686500,8.2566865234375,-0.38406419927179813,-0.673113707787916,-0.01577031838535331
1761507811943658500,8.266658447265625,-0.3709492816329002,-0.7079246897324919,-0.233683375929296
1761507811953630700,8.276630615234374,-0.443302570182085,-0.650377925170958,-0.4895687198597938
1761507811963602400,8.2866025390625,-0.6203291161268949,-0.5922442275669425,-0.6997588458683341
1761507811973573600,8.29657373046875,-0.9192162011116742,-0.523073952968046,-0.82749390296489
1761507811983545600,8.306545654296874,-1.3305448394060133,-0.4151687279138714,-0.8589262753218412
1761507811993517600,8.316517578125,-1.788302051398158,-0.25028277468308807,-0.806050132919848
1761507812003489500,8.326489501953125,-2.1106676271259786,-0.006698255529627203,-0.7162329377420246
1761507812013460700,8.336460693359374,-2.180236837914586,0.2535723908130079,-0.5682520882133394
1761507812023432400,8.346432373046875,-1.9979934341043233,0.43803449358604846,-0.3503057951200753
1761507812033404700,8.35640478515625,-1.5703332542121409,0.4721350622389465,-0.14897106614243238
1761507812043376600,8.366376708984374,-0.9626812488287687,0.4278314448058605,-0.002114087810833007
1761507812053348600,8.3763486328125,-0.2920008326023817,0.32190555700063705,0.12945327745759858
1761507812063319800,8.38631982421875,0.317239318755269,0.20034648512527345,0.25052146054347973
1761507812073291500,8.39629150390625,0.7607540703833102,0.12239413446001708,0.3771064525557682
1761507812083263700,8.406263671875,1.046022379860282,0.15256291662193833,0.4751456422317773
1761507812093235500,8.4162353515625,1.1432856532603501,0.2261154979582876,0.48169641558211296
1761507812103206700,8.42620654296875,1.133472115254402,0.32034298385903237,0.3719643769595772
1761507812113178400,8.436178466796875,1.0791729543119668,0.4398739839728921,0.20237694977326318
1761507812123150600,8.446150634765624,1.0297679951518774,0.527417169804126,0.0558058939772658
1761507812133122600,8.45612255859375,0.9919991132497787,0.5917686459444463,-0.11114504722561687
1761507812143093500,8.466093505859375,0.9692933604449033,0.6105277069501579,-0.3283694192524999
1761507812153065700,8.476065673828124,0.9337819020807743,0.6199466926805675,-0.4637408164463937
1761507812163037400,8.486037353515625,0.8187444870591163,0.6536736057154834,-0.5114197555314749
1761507812173009700,8.496009765625,0.6282254223346709,0.7482026318460703,-0.508022660439089
1761507812182981400,8.5059814453125,0.34290041423439976,0.9210122176829725,-0.4526722368780523
1761507812192952600,8.51595263671875,-0.010437222862243651,1.0983149502206593,-0.3744592625152319
1761507812202924500,8.525924560546875,-0.33537703299224375,1.2283137144654988,-0.26296247924249616
1761507812212896500,8.535896484375,-0.5756441712260246,1.350889123776555,-0.14090680122291668
1761507812222868700,8.54586865234375,-0.6890735665291547,1.4636293677717447,-0.03154608013080433
1761507812232839700,8.555839599609374,-0.6736462802946567,1.5613644964672624,0.0944884566581808
1761507812242811600,8.565811767578126,-0.5126502471745014,1.6397897984065115,0.21756359565230085
1761507812252783600,8.57578369140625,-0.21157705032229424,1.6825424600705503,0.3355851958502084
1761507812262755600,8.585755615234374,0.20681378144323825,1.6662329841740429,0.43132652038000524
1761507812272727600,8.5957275390625,0.6853963393211364,1.6305854783400893,0.43570338375736023
1761507812282698800,8.60569873046875,1.1962696399509907,1.5877156200371683,0.4258679261805489
1761507812292670500,8.61567041015625,1.6226117229819297,1.478266234280914,0.4644065138135105
1761507812302642700,8.625642578125,1.9155875380963086,1.3562579573333262,0.5387603285301477
1761507812312614700,8.63561474609375,2.0855752714455127,1.2912259515829383,0.6231804869700223
1761507812322585600,8.645585693359376,2.0901754587173462,1.2801011848479509,0.7180357493802905
1761507812332557600,8.6555576171875,1.90499132528007,1.2825827725306151,0.7961324038870632
1761507812342529500,8.665529541015625,1.5300795697569847,1.2556868745595215,0.800442668301612
1761507812352501500,8.67550146484375,1.0485434227705002,1.1959542903915048,0.6649524670336395
1761507812362473500,8.685473388671875,0.4825368484616279,1.0391136964503676,0.40439810837879775
1761507812372444700,8.695444580078124,0.0015378770917654036,0.8613207692429423,0.13170768705457447
1761507812382416400,8.70541650390625,-0.4208890783220529,0.6187495187852531,-0.13918672683150507
1761507812392388600,8.715388671875,-0.7787485767573118,0.4122659191444516,-0.4373077136814594
1761507812402360600,8.725360595703124,-1.1831272497832774,0.23931670564115046,-0.667309989945218
1761507812412331500,8.73533154296875,-1.5565905600637198,0.07174830839335918,-0.7770832008283585
1761507812422303700,8.7453037109375,-1.7870359769850968,-0.008257248474657536,-0.707170948755741
1761507812432275500,8.755275390625,-1.7700521089583634,-0.05758760802857577,-0.4472746886834502
1761507812442247700,8.76524755859375,-1.5401345153033732,-0.074825450816378,-0.06750736462166533
1761507812452219400,8.775219482421875,-1.1987445056319237,-0.07391863816976547,0.30850013198256493
1761507812462190600,8.785190673828126,-0.7798878099203109,-0.10254903178326785,0.5446496057644487
1761507812472162600,8.79516259765625,-0.3424474097698927,-0.16057897675186394,0.6066826488945632
1761507812482134500,8.805134521484375,0.12313538128137588,-0.2523070470523089,0.6081502372290939
1761507812492106800,8.815106689453126,0.5457178195178508,-0.36049218502640723,0.5859266419179737
1761507812502077700,8.82507763671875,0.8769599446624516,-0.4236815585847944,0.5615538326837122
1761507812512049700,8.835049560546874,1.0900783792078494,-0.39102665869556363,0.5435462110998108
1761507812522021600,8.845021728515626,1.1682926687449215,-0.3224034235201776,0.5795253965735435
1761507812531993600,8.85499365234375,1.095752333191037,-0.2936740265116095,0.6228448252748697
1761507812541964500,8.864964599609374,0.9941717811137437,-0.29680253379568455,0.6314892464362084
1761507812551936500,8.8749365234375,0.8551391579985618,-0.3045345162872225,0.6345220382608473
1761507812561908500,8.884908447265625,0.670240271243453,-0.34231012019105256,0.6261219472493976
1761507812571880700,8.894880615234374,0.47124680816233155,-0.393838501245901,0.6009746830439194
1761507812581852700,8.904852783203125,0.2755874579399824,-0.4413970288217067,0.5822113477218895
1761507812591823600,8.91482373046875,0.05507365244626999,-0.5033204010322689,0.5596082150412723
1761507812601795600,8.924795654296876,-0.13839724782109258,-0.5780439258441329,0.5166540029231459
1761507812611767600,8.934767578125,-0.25811902126669883,-0.5883339222554117,0.470299444309622
1761507812621739500,8.944739501953125,-0.4081465011268854,-0.5661153684455901,0.4221302740221843
1761507812631710500,8.95471044921875,-0.5556172822415828,-0.5427151305705309,0.42407158081568774
1761507812641682700,8.9646826171875,-0.6487550001442433,-0.5058453164000064,0.4431604948302731
1761507812651654400,8.974654296875,-0.6927770972222089,-0.49990796224027867,0.46624907294027507
1761507812661626600,8.984626708984376,-0.7261351769447326,-0.5073894040368497,0.48178193844109773
1761507812671599000,8.99459912109375,-0.7239794602155685,-0.5186209190819412,0.47560668387226757
1761507812681570000,9.004570068359374,-0.6984031204104423,-0.48471010084748267,0.4308467375064268
1761507812691542300,9.014542236328126,-0.6354536200225352,-0.44483672094680365,0.33039179192557927
1761507812701514000,9.024513916015625,-0.5576560945928096,-0.42576749801337715,0.20881675529610363
1761507812711486200,9.034486328125,-0.4544903191506862,-0.4100855794306844,0.14431494743227957
1761507812721457000,9.044456787109375,-0.35816052720844743,-0.3751964176833629,0.12732720694802702
1761507812731429000,9.05442919921875,-0.26241934880912304,-0.3205537770655006,0.12310891339955851
1761507812741400800,9.06440087890625,-0.20234686516225336,-0.24531601912118492,0.13303157433578744
1761507812751373000,9.074373046875,-0.14403788405656814,-0.1511739464815706,0.1557951948077418
1761507812761344000,9.084343994140625,-0.07596563382744789,-0.09112791245020925,0.19816676646601408
1761507812771316000,9.09431591796875,-0.00392915614247322,-0.01630764926560223,0.2708182159778662
1761507812781288200,9.1042880859375,0.1438525906175375,0.05231931223683059,0.33982451392039653
1761507812791260000,9.114260009765625,0.3290659501492977,0.05104235110357404,0.3962448682678863
1761507812801232100,9.124232177734376,0.4347901779025793,0.006454144575446844,0.4063258615709841
1761507812811203000,9.134203125,0.4178577478021383,-0.006309767668694257,0.3049030573386699
1761507812821175000,9.144175048828124,0.3128577426701784,-0.0014054828837513924,0.1293767233563587
1761507812831147000,9.15414697265625,0.1761953558176756,0.01422507083788514,0.035473233829147646
1761507812841119000,9.164118896484375,0.008586626559495925,0.06042319678068161,0.018531481061223893
1761507812851090000,9.17408984375,-0.173283267763257,0.16184746231772004,-0.04117727470663376
1761507812861062100,9.184062255859375,-0.33163901550769803,0.29478797910287974,-0.11527651187400333
1761507812871034000,9.1940341796875,-0.3508294536679983,0.44492907540537413,-0.1544871626827866
1761507812881006000,9.204006103515624,-0.20803718575835226,0.588936710454151,-0.15620061553716658
1761507812890978000,9.21397802734375,0.07483049231767654,0.6648094053011387,-0.10363292716299183
1761507812900949000,9.223948974609375,0.40672260580360886,0.6816385211575776,-0.044483896770281715
1761507812910921200,9.233921142578126,0.5863830073833465,0.651925008482486,0.008733350686961785
1761507812920893000,9.243892822265625,0.6779401780962944,0.6827325269393623,0.09482556139174848
1761507812930865200,9.253865234375,0.672079177108407,0.7968922823436557,0.16726461026193573
1761507812940835800,9.2638359375,0.5403647680521011,0.8622106307547539,0.24903401673100886
1761507812950808000,9.27380810546875,0.3065127575576305,0.8538630736481397,0.2563871925054118
1761507812960780000,9.283780029296874,0.07447393396496772,0.8612797065801918,0.1774831854048185
1761507812970752000,9.293751953125,-0.07941957367360591,0.8724699397668242,0.08855973332948051
1761507812980723200,9.30372314453125,-0.17626140679121016,0.882352378290519,0.03690278485836461
1761507812990695000,9.31369482421875,-0.22250702513754367,0.910834960931167,-0.02768297496186569
1761507813000667100,9.323667236328125,-0.27487492575645445,0.903988090711087,-0.10456628988981247
1761507813010638800,9.333638916015625,-0.40574353163838384,0.8524081986647098,-0.189930122387968
1761507813020611000,9.343611083984374,-0.5559872845977545,0.7902279290836304,-0.29442974024973806
1761507813030582000,9.35358203125,-0.660096478369832,0.708702103845775,-0.34237419840320943
1761507813040554000,9.363553955078125,-0.742031834256649,0.6052841802734882,-0.3512594060504809
1761507813050526200,9.373526123046876,-0.7795528788775206,0.5295928333427756,-0.39763592076748605
1761507813060498000,9.383497802734375,-0.8283341531813144,0.4624629054650664,-0.4172480914711952
1761507813070469000,9.39346923828125,-0.8545037827044725,0.37632330282144244,-0.4427995525633916
1761507813080441000,9.403441162109376,-0.81720836353302,0.31882388453297317,-0.45587110598459835
1761507813090413000,9.4134130859375,-0.643301995435357,0.31555019662454725,-0.46185485656931996
1761507813100385000,9.423385009765624,-0.40920682383477686,0.32982078710459173,-0.44658382034245875
1761507813110357000,9.43335693359375,-0.16037936252653598,0.2894495406843722,-0.4310252358784899
1761507813120328000,9.443327880859375,0.1085509756118059,0.261769871924445,-0.4142274284757673
1761507813130300200,9.453300048828124,0.35996903793513774,0.2157699719674885,-0.40604382975921033
1761507813140272000,9.463272216796875,0.509008675801754,0.16378149912022053,-0.32681824428774414
1761507813150244000,9.473244140625,0.5808738885730504,0.15783281984888017,-0.2583802294861525
1761507813160215000,9.483215087890626,0.598213730430603,0.20438041681647298,-0.22525592198688535
1761507813170187000,9.49318701171875,0.6080997491508722,0.24873839478529988,-0.1342360730210319
1761507813180159000,9.503158935546875,0.5910866550296545,0.29779351759441197,-0.0011879676755517721
1761507813190131000,9.513130859375,0.5316618216365575,0.3001310206312686,0.08157762849032879
1761507813200102100,9.52310205078125,0.3810562496274709,0.3771431678369641,0.13108089692573993
1761507813210073900,9.533073974609374,0.02924479918479919,0.32331644671186804,0.1578006346123293
1761507813220046000,9.543046142578126,-0.2640595172315836,0.265143732271716,-0.04027341206893325
1761507813230018000,9.55301806640625,-0.4013187009334564,0.37696642303057015,-0.2103690627720207
1761507813239990000,9.562989990234374,-0.43038814355134963,0.45124432296678424,-0.17380349224507807
1761507813249961200,9.572961181640625,-0.45794075186550615,0.5353904867708683,-0.27568547495435924
1761507813259933000,9.582932861328125,-0.45213235784769057,0.6049972530908883,-0.4314205918716266
1761507813269905200,9.5929052734375,-0.5064888019353151,0.6385440603185445,-0.5757033905999734
1761507813279876900,9.602876953125,-0.4352870215088129,0.59949222593382,-0.7332435476452112
1761507813289848000,9.61284814453125,-0.2103051306903362,0.46970432796068484,-0.862464020993933
1761507813299820000,9.622820068359376,0.022473113092780113,0.32869894346781076,-1.041116049248725
