time,seconds_elapsed,z,y,x
1761507803756826000,0.079826171875,0.025337401777505875,-0.12651601433753967,0.11522509157657623
1761507803766798300,0.08979833984375,0.022531552240252495,-0.09402427822351456,0.0968974158167839
1761507803776770000,0.09977001953125,0.004722727462649345,-0.056515783071517944,0.0613362193107605
1761507803786741200,0.1097412109375,-0.02002083696424961,-0.029121888801455498,0.03156724199652672
1761507803796713200,0.119713134765625,-0.03479845076799393,-0.005391526967287064,0.004458394832909107
1761507803806685200,0.129685302734375,-0.05305102840065956,0.005975591950118542,-0.023463275283575058
1761507803816657200,0.1396572265625,-0.06709307432174683,0.019807517528533936,-0.05009089410305023
1761507803826629000,0.149629150390625,-0.07446607947349548,0.022167187184095383,-0.07063333690166473
1761507803836600000,0.15960009765625,-0.08067043870687485,0.025112641975283623,-0.08476699888706207
1761507803846572300,0.169572265625,-0.07620364427566528,0.02161388471722603,-0.08814755827188492
1761507803856544300,0.179544189453125,-0.0666050836443901,0.02107938751578331,-0.08086621016263962
1761507803866516200,0.18951611328125,-0.046154458075761795,0.02705834060907364,-0.05983515456318855
1761507803876488200,0.19948828125,-0.02446274273097515,0.03517512232065201,-0.03911150246858597
1761507803886459100,0.209459228515625,-0.009110817685723305,0.03720090165734291,-0.022075360640883446
1761507803896431000,0.21943115234375,0.005659339018166065,0.035889025777578354,-0.014172696508467197
1761507803906403000,0.229403076171875,0.021181102842092514,0.03735247254371643,-0.004710407927632332
1761507803916375000,0.239375,0.028399866074323654,0.03348316624760628,0.0008619902655482292
1761507803926347300,0.24934716796875,0.03348245471715927,0.032473184168338776,0.007498927414417267
1761507803936318200,0.259318115234375,0.03838959336280823,0.033484119921922684,0.011407649144530296
1761507803946290200,0.269290283203125,0.05102486535906792,0.03843367099761963,0.010325118899345398
1761507803956262100,0.27926220703125,0.07150190323591232,0.03951305150985718,0.002540965098887682
1761507803966234000,0.289234130859375,0.09756886214017868,0.03288226202130318,-0.015573881566524506
1761507803976206000,0.2992060546875,0.11620432883501053,0.008424322120845318,-0.02419320121407509
1761507803986177300,0.30917724609375,0.121776282787323,-0.012024503201246262,-0.030780673027038574
1761507803996149000,0.31914892578125,0.11848700791597366,-0.025953369215130806,-0.02727435529232025
1761507804006121200,0.329121337890625,0.10238764435052872,-0.015616185963153839,-0.02433415688574314
1761507804016093200,0.33909326171875,0.07705112546682358,0.00160754204262048,-0.027182407677173615
1761507804026065200,0.349065185546875,0.056462422013282776,0.01789325475692749,-0.0407072938978672
1761507804036036400,0.359036376953125,0.042085882276296616,0.03600514680147171,-0.05862211436033249
1761507804046008000,0.369008056640625,0.030720798298716545,0.051057688891887665,-0.07984494417905807
1761507804055980300,0.378980224609375,0.024564635008573532,0.05826393514871597,-0.09835045039653778
1761507804065952000,0.388951904296875,0.021245742216706276,0.057652972638607025,-0.11718599498271942
1761507804075923200,0.398923095703125,0.0254796352237463,0.0489063560962677,-0.1302269697189331
1761507804085895200,0.408895263671875,0.028007464483380318,0.030421176925301552,-0.14156891405582428
1761507804095867100,0.4188671875,0.029812553897500038,0.010188610292971134,-0.14025971293449402
1761507804105839400,0.42883935546875,0.029680036008358,-0.00197410280816257,-0.13378380239009857
1761507804115811000,0.43881103515625,0.027945784851908684,-0.001955993240699172,-0.1238776445388794
1761507804125782300,0.4487822265625,0.02816740795969963,0.006146507803350687,-0.10934186726808548
1761507804135754000,0.45875390625,0.031190095469355583,0.02155662328004837,-0.09441111981868744
1761507804145726200,0.468726318359375,0.03400878608226776,0.02860094979405403,-0.0808524340391159
1761507804155698200,0.4786982421875,0.03105161152780056,0.028625451028347015,-0.07625795155763626
1761507804165670100,0.488670166015625,0.03287474811077118,0.02766214869916439,-0.06573454290628433
1761507804175641000,0.49864111328125,0.027076249942183495,0.036703579127788544,-0.0558646023273468
1761507804185613000,0.508613037109375,0.02179352380335331,0.042154472321271896,-0.04987672343850136
1761507804195585300,0.518585205078125,0.012490570545196533,0.05199645087122917,-0.0480833500623703
1761507804205557000,0.528556884765625,0.0021738288924098015,0.06503482162952423,-0.056420404464006424
1761507804215529200,0.538529296875,-0.0041589015163481236,0.07592954486608505,-0.07007629424333572
1761507804225500200,0.548500244140625,-0.006811423692852259,0.08700089901685715,-0.08535841107368469
1761507804235472100,0.55847216796875,-0.0065698749385774136,0.08363519608974457,-0.09203176200389862
1761507804245444000,0.568444091796875,-0.007495645899325609,0.0789729505777359,-0.0877210944890976
1761507804255416000,0.578416015625,-0.009945487603545189,0.0817895159125328,-0.08041231334209442
1761507804265388300,0.58838818359375,-0.011160163208842278,0.07627356052398682,-0.06541121006011963
1761507804275359200,0.598359130859375,-0.011412099003791809,0.07223141193389893,-0.05318143963813782
1761507804285331200,0.608331298828125,-0.01157640852034092,0.07039091736078262,-0.03960762917995453
1761507804295303200,0.61830322265625,-0.005253796931356192,0.06338760256767273,-0.019307415932416916
1761507804305275100,0.628275146484375,0.0033978396095335484,0.06340865045785904,0.0001848632236942649
1761507804315247000,0.6382470703125,0.012105576694011688,0.057365402579307556,0.01575503498315811
1761507804325218300,0.64821826171875,0.021018609404563904,0.05382856726646423,0.03606628254055977
1761507804335190300,0.658190185546875,0.02622269280254841,0.04700421541929245,0.06049599498510361
1761507804345162200,0.668162353515625,0.023945927619934082,0.04125874117016792,0.07737191766500473
1761507804355134200,0.67813427734375,0.017875783145427704,0.03800036385655403,0.09705800563097
1761507804365106200,0.688106201171875,0.012707395479083061,0.029223134741187096,0.10586395859718323
1761507804375077000,0.6980771484375,0.010278059169650078,0.02039928361773491,0.10295712202787399
1761507804385049000,0.708049072265625,0.006173517554998398,0.010329538024961948,0.09619592130184174
1761507804395021300,0.718021240234375,0.007795116398483515,0.005337176378816366,0.09348748624324799
1761507804404993300,0.7279931640625,0.014279332011938095,0.002442222088575363,0.09548354148864746
1761507804414964200,0.737964111328125,0.016319846734404564,0.002227038610726595,0.09903512895107269
1761507804424936200,0.747936279296875,0.01749367266893387,0.004457512870430946,0.11460907757282257
1761507804434908200,0.757908203125,0.01515861228108406,0.00011283217463642359,0.1367522031068802
1761507804444880100,0.767880126953125,0.02149026095867157,0.002576754428446293,0.1554439514875412
1761507804454852000,0.77785205078125,0.018468637019395828,0.011057058349251747,0.16956403851509094
1761507804464823300,0.7878232421875,0.017984898760914803,0.021970294415950775,0.189767524600029
1761507804474795000,0.797794921875,0.011222866363823414,0.03161706030368805,0.18733738362789154
1761507804484767200,0.807767333984375,0.008342740125954151,0.04537254199385643,0.18168096244335175
1761507804494739200,0.8177392578125,0.012609656900167465,0.049607500433921814,0.1765061765909195
1761507804504711200,0.827711181640625,0.017879268154501915,0.05153423920273781,0.1664232760667801
1761507804514682400,0.837682373046875,0.03304889798164368,0.037907108664512634,0.15572349727153778
1761507804524654000,0.847654052734375,0.053999580442905426,0.015355624258518219,0.15131911635398865
1761507804534626300,0.857626220703125,0.0795145332813263,-0.016688330098986626,0.14463697373867035
1761507804544598000,0.867597900390625,0.10142876207828522,-0.05981197580695152,0.12675385177135468
1761507804554570200,0.8775703125,0.11820987612009048,-0.10258021950721741,0.10327088832855225
1761507804564541200,0.887541259765625,0.11700901389122009,-0.1490112692117691,0.055200207978487015
1761507804574513200,0.89751318359375,0.0942392498254776,-0.1917629987001419,-0.010697316378355026
1761507804584485400,0.9074853515625,0.053548023104667664,-0.22489163279533386,-0.09408573806285858
1761507804594457000,0.91745703125,0.013133221305906773,-0.23635920882225037,-0.18480338156223297
1761507804604429300,0.92742919921875,-0.02009131945669651,-0.21180754899978638,-0.2648797929286957
1761507804614400300,0.937400146484375,-0.03742104023694992,-0.15607424080371857,-0.31999391317367554
1761507804624372200,0.947372314453125,-0.03043009527027607,-0.071587473154068,-0.34316182136535645
1761507804634344200,0.95734423828125,-0.01093602180480957,0.007109474390745163,-0.33319759368896484
1761507804644316200,0.967316162109375,0.014219988137483597,0.06922462582588196,-0.3018355071544647
1761507804654287400,0.977287353515625,0.04696168750524521,0.09361385554075241,-0.251345157623291
1761507804664258300,0.98725830078125,0.08733217418193817,0.08070211112499237,-0.17958831787109375
1761507804674230300,0.997230224609375,0.12253516912460327,0.04243594780564308,-0.10090842097997665
1761507804684202500,1.007202392578125,0.16147644817829132,-0.01406948920339346,-0.01949729584157467
1761507804694174200,1.01717431640625,0.192862868309021,-0.06325887888669968,0.05234413594007492
1761507804704146400,1.027146484375,0.22335992753505707,-0.10161974281072617,0.10147098451852798
1761507804714117400,1.037117431640625,0.2383306324481964,-0.13848693668842316,0.11468159407377243
1761507804724089300,1.04708935546875,0.24261003732681274,-0.16845916211605072,0.086964912712574
1761507804734061300,1.057061279296875,0.23858042061328888,-0.19674432277679443,0.03507428616285324
1761507804744033300,1.067033203125,0.22283752262592316,-0.20634134113788605,-0.027844108641147614
1761507804754004200,1.077004150390625,0.20900186896324158,-0.18376624584197998,-0.08897271007299423
1761507804763976400,1.0869765625,0.20030362904071808,-0.1369072049856186,-0.12967483699321747
1761507804773948400,1.096948486328125,0.1971624344587326,-0.08052542060613632,-0.14066463708877563
1761507804783920400,1.10692041015625,0.20695452392101288,-0.03302820026874542,-0.13260658085346222
1761507804793892400,1.116892333984375,0.2096800059080124,-0.0008617410203441978,-0.10154718905687332
1761507804803863300,1.12686328125,0.21068944036960602,0.009958955459296703,-0.060385562479496
1761507804813835300,1.136835205078125,0.21300186216831207,0.007269962225109339,-0.00706242211163044
1761507804823807200,1.14680712890625,0.21191783249378204,-0.008572878316044807,0.04764891043305397
1761507804833779500,1.156779541015625,0.2172151356935501,-0.034443359822034836,0.09458019584417343
1761507804843751400,1.16675146484375,0.22228623926639557,-0.05850713700056076,0.12557794153690338
1761507804853722400,1.176722412109375,0.22684744000434875,-0.08099965751171112,0.13799333572387695
1761507804863694300,1.1866943359375,0.2342013567686081,-0.09403567016124725,0.1472426950931549
1761507804873666300,1.196666259765625,0.2300388365983963,-0.09446629881858826,0.14485783874988556
1761507804883638300,1.20663818359375,0.21705158054828644,-0.08694419264793396,0.13317842781543732
1761507804893610200,1.2166103515625,0.19714631140232086,-0.05872826278209686,0.11733980476856232
1761507804903581400,1.22658154296875,0.1751890480518341,-0.012393146753311157,0.09912150353193283
1761507804913553200,1.23655322265625,0.14992497861385345,0.03150400519371033,0.07584308087825775
1761507804923525400,1.246525390625,0.1282215118408203,0.07681797444820404,0.057111747562885284
1761507804933497300,1.256497314453125,0.11068645864725113,0.10950987786054611,0.03887122496962547
1761507804943469300,1.26646923828125,0.09451603889465332,0.12696519494056702,0.02169771119952202
1761507804953440500,1.2764404296875,0.07979089021682739,0.13863275945186615,-0.0008635236881673336
1761507804963412200,1.286412109375,0.06440048664808273,0.13377009332180023,-0.01692398265004158
1761507804973384400,1.296384521484375,0.05485758185386658,0.1325402557849884,-0.03276286646723747
1761507804983356200,1.306356201171875,0.05420901998877525,0.12985819578170776,-0.04960615187883377
1761507804993327400,1.316327392578125,0.06747396290302277,0.12242131680250168,-0.07083234190940857
1761507805003299300,1.32629931640625,0.09528346359729767,0.10181834548711777,-0.09752285480499268
1761507805013271300,1.336271240234375,0.13080497086048126,0.07221651077270508,-0.11373884975910187
1761507805023243500,1.346243408203125,0.16490425169467926,0.03883964195847511,-0.12326637655496597
1761507805033215200,1.35621533203125,0.18804286420345306,0.015797175467014313,-0.12245198339223862
1761507805043186400,1.3661865234375,0.1975066065788269,-0.003204542677849531,-0.10959074646234512
1761507805053158400,1.376158447265625,0.19670233130455017,-0.0009632263099774718,-0.09576334804296494
1761507805063130400,1.38613037109375,0.18299345672130585,0.006048090755939484,-0.08951509743928909
1761507805073102300,1.396102294921875,0.15799489617347717,-0.0028588511049747467,-0.0787212997674942
1761507805083074300,1.40607421875,0.10304754972457886,0.00039638171438127756,-0.0563986636698246
1761507805093045200,1.416045166015625,0.04566282033920288,0.06660176813602448,-0.009983494877815247
1761507805103017200,1.426017333984375,0.0012291357852518559,0.18072354793548584,0.05292683467268944
1761507805112989400,1.435989501953125,-0.01764894835650921,0.30871719121932983,0.10179850459098816
1761507805122961400,1.44596142578125,-0.011448226869106293,0.4132542312145233,0.1332838386297226
1761507805132933400,1.455933349609375,0.023636789992451668,0.4849657118320465,0.1549374759197235
1761507805142904300,1.465904296875,0.08408825099468231,0.513787031173706,0.19026751816272736
1761507805152876300,1.475876220703125,0.1604304164648056,0.5106721520423889,0.23074942827224731
1761507805162848300,1.48584814453125,0.23884794116020203,0.45602986216545105,0.264520525932312
1761507805172820200,1.4958203125,0.2992311120033264,0.3540382385253906,0.28303802013397217
1761507805182791200,1.505791259765625,0.33689749240875244,0.24806641042232513,0.2776840925216675
1761507805192763400,1.515763427734375,0.3463676869869232,0.16126760840415955,0.25145673751831055
1761507805202735400,1.5257353515625,0.34548646211624146,0.09493113309144974,0.2098686397075653
1761507805212707300,1.535707275390625,0.3469855785369873,0.04705176129937172,0.1729702651500702
1761507805222679300,1.54567919921875,0.3584570586681366,0.010456149466335773,0.1507304459810257
1761507805232650200,1.555650146484375,0.37535348534584045,-0.017722757533192635,0.1377725750207901
1761507805242622500,1.56562255859375,0.39866894483566284,-0.0427735410630703,0.1462097465991974
1761507805252594200,1.57559423828125,0.4299890398979187,-0.07055456936359406,0.1603149026632309
1761507805262566400,1.58556640625,0.46627941727638245,-0.09703327715396881,0.17060130834579468
1761507805272538400,1.595538330078125,0.5054241418838501,-0.13377822935581207,0.18541355431079865
1761507805282509300,1.60550927734375,0.5446901321411133,-0.14957097172737122,0.2096663862466812
1761507805292481500,1.6154814453125,0.570937991142273,-0.13202978670597076,0.24073083698749542
1761507805302453200,1.625453369140625,0.5718504190444946,-0.10286878794431686,0.26210281252861023
1761507805312425500,1.635425537109375,0.5348731875419617,-0.06265345215797424,0.2574489116668701
1761507805322397200,1.645397216796875,0.4606340527534485,-0.027752000838518143,0.22889374196529388
1761507805332368400,1.655368408203125,0.37035661935806274,0.016111593693494797,0.17380519211292267
1761507805342340400,1.66534033203125,0.26529204845428467,0.05994999781250954,0.09329430013895035
1761507805352312300,1.675312255859375,0.1758527010679245,0.09774558246135712,-0.0034764506854116917
1761507805362284500,1.685284423828125,0.10071859508752823,0.12374179810285568,-0.11115489900112152
1761507805372256300,1.69525634765625,0.05925637111067772,0.1348719447851181,-0.20932939648628235
1761507805382227500,1.7052275390625,0.040594931691884995,0.12314994633197784,-0.28241539001464844
1761507805392199200,1.71519921875,0.0341748483479023,0.102639339864254,-0.32651254534721375
1761507805402171400,1.72517138671875,0.04782887548208237,0.06303467601537704,-0.34824952483177185
1761507805412143000,1.73514306640625,0.07769329845905304,-0.009380405768752098,-0.3309467136859894
1761507805422114300,1.7451142578125,0.11320237815380096,-0.09114974737167358,-0.28392866253852844
1761507805432086300,1.755086181640625,0.14867036044597626,-0.18650688230991364,-0.20780594646930695
1761507805442058200,1.765058349609375,0.1792396903038025,-0.29213210940361023,-0.12348008155822754
1761507805452030500,1.775030517578125,0.1986517310142517,-0.3850836157798767,-0.042105596512556076
1761507805462002200,1.785002197265625,0.20578868687152863,-0.43613943457603455,0.022091466933488846
1761507805471973400,1.794973388671875,0.21002471446990967,-0.42691370844841003,0.07294106483459473
1761507805481945300,1.8049453125,0.2007628083229065,-0.3743094801902771,0.10099256038665771
1761507805491917300,1.814917236328125,0.17187896370887756,-0.28813064098358154,0.10901453346014023
1761507805501889300,1.82488916015625,0.1368832290172577,-0.18431629240512848,0.09606466442346573
1761507805511861200,1.834861328125,0.09013250470161438,-0.07402708381414413,0.0677557960152626
1761507805521832200,1.844832275390625,0.04703139513731003,0.02006555162370205,0.015417535789310932
1761507805531804400,1.854804443359375,0.013997010886669159,0.08970827609300613,-0.04859793186187744
1761507805541776400,1.8647763671875,-0.008704524487257004,0.12735135853290558,-0.1045837253332138
1761507805551748400,1.874748291015625,-0.017748618498444557,0.1296568512916565,-0.1517256796360016
1761507805561720300,1.88472021484375,-0.010679930448532104,0.09944158792495728,-0.1787722408771515
1761507805571691300,1.894691162109375,0.006387469358742237,0.04556477814912796,-0.1898328810930252
1761507805581663500,1.90466357421875,0.029610928148031235,-0.02740764059126377,-0.1872663050889969
1761507805591635200,1.91463525390625,0.05510083958506584,-0.09724344313144684,-0.17074058949947357
1761507805601607400,1.924607421875,0.07272766530513763,-0.17622077465057373,-0.1480245441198349
1761507805611578000,1.934578125,0.07780072093009949,-0.25873908400535583,-0.12615333497524261
1761507805621550300,1.94455029296875,0.06689447164535522,-0.330512136220932,-0.10942225158214569
1761507805631522300,1.954522216796875,0.03544839471578598,-0.3752487301826477,-0.11590971052646637
1761507805641494300,1.964494384765625,-0.007764267735183239,-0.37917810678482056,-0.1440785676240921
1761507805651466500,1.974466552734375,-0.05983758717775345,-0.32342270016670227,-0.20165984332561493
1761507805661437400,1.9844375,-0.10712350904941559,-0.21819645166397095,-0.28461048007011414
1761507805671409700,1.99440966796875,-0.14687252044677734,-0.08740755170583725,-0.3668408989906311
1761507805681381400,2.00438134765625,-0.17678329348564148,0.05041243135929108,-0.44581252336502075
1761507805691353600,2.014353515625,-0.19279341399669647,0.16721734404563904,-0.49905338883399963
1761507805701325600,2.02432568359375,-0.2013970911502838,0.24495035409927368,-0.5291213393211365
1761507805711296500,2.034296630859375,-0.2016223967075348,0.28089797496795654,-0.5298739671707153
1761507805721268700,2.044268798828125,-0.1919885128736496,0.28094789385795593,-0.5074872970581055
1761507805731240400,2.054240478515625,-0.17167338728904724,0.2725810408592224,-0.46207478642463684
1761507805741212700,2.064212646484375,-0.1415470391511917,0.2588503658771515,-0.4085002839565277
1761507805751183600,2.07418359375,-0.1025298610329628,0.24437899887561798,-0.35924699902534485
1761507805761155600,2.084155517578125,-0.05237483233213425,0.21501585841178894,-0.316799521446228
1761507805771127600,2.09412744140625,-0.000006963964551687241,0.16531087458133698,-0.2818135619163513
1761507805781099500,2.104099609375,0.05267048999667168,0.10276350378990173,-0.25028151273727417
1761507805791071700,2.11407177734375,0.09750320762395859,0.02687273547053337,-0.22925080358982086
1761507805801042400,2.12404248046875,0.14368711411952972,-0.054828792810440063,-0.21134163439273834
1761507805811014700,2.1340146484375,0.18398047983646393,-0.12022430449724197,-0.18915536999702454
1761507805820986600,2.143986572265625,0.2166481763124466,-0.16272492706775665,-0.16636112332344055
1761507805830958600,2.15395849609375,0.24319510161876678,-0.17267343401908875,-0.127266988158226
1761507805840930600,2.1639306640625,0.2568355202674866,-0.1654602289199829,-0.08578238636255264
1761507805850901500,2.173901611328125,0.2689984440803528,-0.1729660928249359,-0.04606932774186134
1761507805860873500,2.18387353515625,0.2714039981365204,-0.19306494295597076,-0.005193923134356737
1761507805870845400,2.193845458984375,0.2708130478858948,-0.20442865788936615,0.04186253622174263
1761507805880817700,2.203817626953125,0.2524771988391876,-0.20871111750602722,0.10287357121706009
1761507805890789600,2.21378955078125,0.2180233597755432,-0.19791732728481293,0.165594220161438
1761507805900760600,2.223760498046875,0.16355855762958527,-0.17185255885124207,0.22381451725959778
1761507805910732500,2.233732666015625,0.09226173162460327,-0.13460798561573029,0.2726861834526062
1761507805920704500,2.24370458984375,0.01155894435942173,-0.07998929172754288,0.3040628433227539
1761507805930676500,2.253676513671875,-0.07411148399114609,-0.007235195487737656,0.31723934412002563
1761507805940647700,2.263647705078125,-0.14856791496276855,0.07728078216314316,0.3142092227935791
1761507805950619400,2.273619384765625,-0.20371106266975403,0.16063745319843292,0.2986723482608795
1761507805960591600,2.283591552734375,-0.2393391728401184,0.2291925549507141,0.2751027047634125
1761507805970563600,2.2935634765625,-0.2678680121898651,0.26638224720954895,0.26129743456840515
1761507805980535600,2.30353564453125,-0.28746742010116577,0.26825571060180664,0.25092488527297974
1761507805990506800,2.3135068359375,-0.31033146381378174,0.23712360858917236,0.23779577016830444
1761507806000478500,2.323478515625,-0.3445402681827545,0.19664078950881958,0.22154317796230316
1761507806010450700,2.33345068359375,-0.3938998281955719,0.16609807312488556,0.19012293219566345
1761507806020422400,2.34342236328125,-0.4623506963253021,0.1491163969039917,0.14383864402770996
1761507806030394600,2.35339453125,-0.5336956977844238,0.15923960506916046,0.075076624751091
1761507806040365600,2.363365478515625,-0.5940867066383362,0.14681731164455414,-0.022022608667612076
1761507806050337500,2.373337646484375,-0.6234382390975952,0.0939069613814354,-0.1312692016363144
1761507806060309800,2.383309814453125,-0.6309410929679871,-0.011238675564527512,-0.25946786999702454
1761507806070281500,2.393281494140625,-0.6294007301330566,-0.15002797544002533,-0.38754382729530334
1761507806080252700,2.403252685546875,-0.6261988282203674,-0.2848803400993347,-0.4944758713245392
1761507806090224400,2.413224365234375,-0.6239186525344849,-0.38082632422447205,-0.5618559718132019
1761507806100196600,2.423196533203125,-0.624138593673706,-0.3976147770881653,-0.5753542184829712
1761507806110168600,2.43316845703125,-0.6231849193572998,-0.3360219895839691,-0.5205357074737549
1761507806120140500,2.443140625,-0.6082969903945923,-0.19782863557338715,-0.41289564967155457
1761507806130111500,2.453111572265625,-0.5915638208389282,-0.005733497440814972,-0.26879093050956726
1761507806140083500,2.46308349609375,-0.5672721266746521,0.203287735581398,-0.12293080240488052
1761507806150055700,2.4730556640625,-0.5179322957992554,0.37412524223327637,0.004940078593790531
1761507806160027400,2.48302734375,-0.45210060477256775,0.49605435132980347,0.1102350577712059
1761507806169999600,2.49299951171875,-0.3857487440109253,0.5833902955055237,0.18445096909999847
1761507806179970600,2.502970458984375,-0.3221260905265808,0.6197637915611267,0.2261398285627365
1761507806189942500,2.512942626953125,-0.2580825984477997,0.5970832705497742,0.24362221360206604
1761507806199914500,2.52291455078125,-0.1956031173467636,0.5172658562660217,0.23150546848773956
1761507806209886500,2.532886474609375,-0.14165093004703522,0.3729965388774872,0.19718718528747559
1761507806219857400,2.542857421875,-0.10623107105493546,0.19621717929840088,0.13535547256469727
1761507806229829600,2.55282958984375,-0.08997433632612228,0.021195296198129654,0.060246869921684265
1761507806239801600,2.562801513671875,-0.0863928496837616,-0.14153435826301575,-0.015042951330542564
1761507806249773600,2.572773681640625,-0.09487687796354294,-0.27872392535209656,-0.07163752615451813
1761507806259745500,2.58274560546875,-0.11342264711856842,-0.3455047011375427,-0.08981288224458694
1761507806269716500,2.592716552734375,-0.11842512339353561,-0.3482663929462433,-0.0578610822558403
1761507806279688700,2.602688720703125,-0.12496396899223328,-0.31421956419944763,0.005952353589236736
1761507806289660400,2.612660400390625,-0.11335498839616776,-0.2623787522315979,0.10395374894142151
1761507806299632600,2.622632568359375,-0.10786009579896927,-0.22535808384418488,0.2153824418783188
1761507806309604600,2.6326044921875,-0.11342557519674301,-0.20380830764770508,0.320881724357605
1761507806319575600,2.642575439453125,-0.13896048069000244,-0.1919253170490265,0.4038884937763214
1761507806329547500,2.652547607421875,-0.17055727541446686,-0.17592372000217438,0.44612035155296326
1761507806339519500,2.66251953125,-0.18804141879081726,-0.14436063170433044,0.4510301649570465
1761507806349491700,2.67249169921875,-0.17986711859703064,-0.08811601251363754,0.429737389087677
1761507806359462400,2.68246240234375,-0.16382533311843872,-0.02958548069000244,0.37989193201065063
1761507806369434600,2.6924345703125,-0.14740054309368134,0.010777921415865421,0.30885714292526245
1761507806379406300,2.70240625,-0.13797231018543243,0.024528851732611656,0.2254238873720169
1761507806389378600,2.712378662109375,-0.12472548335790634,0.0030118413269519806,0.14464141428470612
1761507806399350500,2.7223505859375,-0.11876001954078674,-0.052394092082977295,0.06547646224498749
1761507806409321500,2.732321533203125,-0.11960875988006592,-0.12532688677310944,-0.002748131053522229
1761507806419293700,2.742293701171875,-0.13188579678535461,-0.1772935837507248,-0.06624076515436172
1761507806429265400,2.752265380859375,-0.14517363905906677,-0.1991885006427765,-0.12934356927871704
1761507806439237600,2.762237548828125,-0.15639373660087585,-0.17900115251541138,-0.18537911772727966
1761507806449209300,2.772209228515625,-0.16895852982997894,-0.13368827104568481,-0.23173542320728302
1761507806459180500,2.7821806640625,-0.18069005012512207,-0.06039689853787422,-0.2662853002548218
1761507806469152500,2.792152587890625,-0.18949951231479645,0.040311336517333984,-0.28344273567199707
1761507806479124500,2.80212451171875,-0.1954449713230133,0.14346812665462494,-0.2926625609397888
1761507806489096700,2.8120966796875,-0.20067967474460602,0.24775059521198273,-0.28971871733665466
1761507806499067600,2.822067626953125,-0.20942266285419464,0.31858691573143005,-0.27771344780921936
1761507806509039600,2.83203955078125,-0.20821039378643036,0.34513384103775024,-0.25051644444465637
1761507806519011600,2.842011474609375,-0.19300717115402222,0.3380090594291687,-0.19232238829135895
1761507806528983600,2.851983642578125,-0.16430415213108063,0.29855990409851074,-0.12231827527284622
1761507806538955500,2.86195556640625,-0.12613998353481293,0.22939810156822205,-0.04155115410685539
1761507806548926500,2.871926513671875,-0.08413606882095337,0.13038870692253113,0.03926406428217888
1761507806558898400,2.8818984375,-0.03947663679718971,0.019815953448414803,0.12025949358940125
1761507806568870700,2.89187060546875,0.011552459560334682,-0.08214476704597473,0.19582988321781158
1761507806578842600,2.901842529296875,0.04963646084070206,-0.1565818190574646,0.25138863921165466
1761507806588814600,2.911814697265625,0.07920873910188675,-0.19260480999946594,0.27509716153144836
1761507806598785500,2.92178564453125,0.09913039952516556,-0.20566223561763763,0.2760978639125824
1761507806608757500,2.931757568359375,0.1122422069311142,-0.20540763437747955,0.2539355754852295
1761507806618729500,2.9417294921875,0.11839517951011658,-0.20361797511577606,0.21414044499397278
1761507806628701400,2.951701416015625,0.119651660323143,-0.19301246106624603,0.1652168333530426
1761507806638672600,2.961672607421875,0.11791906505823135,-0.17094646394252777,0.12258700281381607
1761507806648644400,2.971644287109375,0.11273548752069473,-0.13198255002498627,0.08794566988945007
1761507806658617000,2.9816171875,0.09660426527261734,-0.06352032721042633,0.06783105432987213
1761507806668589000,2.991589111328125,0.0658482238650322,0.018281329423189163,0.06117501109838486
1761507806678561000,3.00156103515625,0.03266856074333191,0.09685982763767242,0.06417303532361984
1761507806688532200,3.0115322265625,0.013800596818327904,0.1597469300031662,0.060409463942050934
1761507806698504000,3.02150390625,0.0006441092118620872,0.19670549035072327,0.050087928771972656
1761507806708476200,3.03147607421875,-0.005174099002033472,0.20816347002983093,0.02592054009437561
1761507806718448000,3.0414482421875,-0.02006545290350914,0.23656107485294342,-0.006010807119309902
1761507806728420000,3.051420166015625,-0.027867183089256287,0.27121731638908386,-0.03609360754489899
1761507806738391000,3.06139111328125,-0.02642679587006569,0.30635732412338257,-0.06889363378286362
1761507806748363000,3.071363037109375,-0.0062283179722726345,0.3206494450569153,-0.09669224172830582
1761507806758335200,3.081335205078125,0.023316580802202225,0.3088517487049103,-0.11839281767606735
1761507806768307000,3.091306884765625,0.05977925285696983,0.2792552411556244,-0.13096480071544647
1761507806778278100,3.101278076171875,0.09876316040754318,0.22528225183486938,-0.1409827619791031
1761507806788249900,3.111249755859375,0.15467569231987,0.15790827572345734,-0.15459924936294556
1761507806798222000,3.12122216796875,0.21436090767383575,0.073621965944767,-0.1367371380329132
1761507806808194000,3.131194091796875,0.27396002411842346,0.006709774024784565,-0.09867522865533829
1761507806818166000,3.141166015625,0.32745400071144104,-0.038199372589588165,-0.048855140805244446
1761507806828137200,3.15113720703125,0.37739625573158264,-0.06506587564945221,0.003416321473196149
1761507806838109000,3.16110888671875,0.4203096628189087,-0.08281918615102768,0.046887557953596115
1761507806848081200,3.1710810546875,0.4599044919013977,-0.08467274904251099,0.08220133930444717
1761507806858052900,3.181052978515625,0.5006095767021179,-0.07495487481355667,0.11497100442647934
1761507806868024000,3.191024169921875,0.5544347763061523,-0.07283686101436615,0.15017372369766235
1761507806877996000,3.20099609375,0.6106778383255005,-0.08789341896772385,0.18349622189998627
1761507806887968000,3.210968017578125,0.6462582349777222,-0.14428478479385376,0.18600279092788696
1761507806897940200,3.220940185546875,0.6391786932945251,-0.24179917573928833,0.14793425798416138
1761507806907912000,3.230911865234375,0.5940261483192444,-0.3480393588542938,0.0711289495229721
1761507806917883100,3.240883056640625,0.5222814083099365,-0.4336778521537781,-0.02499215304851532
1761507806927855000,3.250855224609375,0.4446217715740204,-0.46185171604156494,-0.11457077413797379
1761507806937827000,3.2608271484375,0.3764355778694153,-0.4182818830013275,-0.1545320451259613
1761507806947799000,3.270799072265625,0.3293346166610718,-0.30765286087989807,-0.13628140091896057
1761507806957771000,3.28077099609375,0.3134916126728058,-0.14997020363807678,-0.05345778912305832
1761507806967742000,3.290741943359375,0.34075650572776794,0.02985548973083496,0.07865869998931885
1761507806977714200,3.300714111328125,0.41426584124565125,0.19601726531982422,0.24381029605865479
1761507806987686100,3.31068603515625,0.5041890740394592,0.300815612077713,0.4048529863357544
1761507806997658000,3.320658203125,0.580594539642334,0.31516584753990173,0.5395678281784058
1761507807007629000,3.330629150390625,0.6325944066047668,0.2619641423225403,0.6361287236213684
1761507807017601000,3.34060107421875,0.6717456579208374,0.15635639429092407,0.6902872323989868
1761507807027573000,3.350572998046875,0.6882255673408508,-0.0014263084158301353,0.6977083683013916
1761507807037545000,3.360544921875,0.6841225624084473,-0.17821019887924194,0.6594088673591614
1761507807047517200,3.37051708984375,0.6664513945579529,-0.3431069850921631,0.586147665977478
1761507807057488000,3.38048779296875,0.6453109383583069,-0.47054678201675415,0.4992126226425171
1761507807067460000,3.390460205078125,0.6118035912513733,-0.5540395379066467,0.40696045756340027
1761507807077432000,3.40043212890625,0.5609254837036133,-0.5845798850059509,0.30920422077178955
1761507807087404000,3.410404052734375,0.47524940967559814,-0.5581328272819519,0.19954457879066467
1761507807097376000,3.4203759765625,0.3652632534503937,-0.4773232638835907,0.07926491647958755
1761507807107347000,3.430346923828125,0.24931001663208008,-0.3578072488307953,-0.04231158271431923
1761507807117319200,3.440319091796875,0.14319777488708496,-0.21786706149578094,-0.16840146481990814
1761507807127291000,3.450290771484375,0.05857343226671219,-0.07847321033477783,-0.2792089581489563
1761507807137263000,3.46026318359375,-0.0013882317580282688,0.05307271331548691,-0.354941189289093
1761507807147234000,3.470234130859375,-0.04367603361606598,0.1638687402009964,-0.39066481590270996
1761507807157206000,3.4802060546875,-0.05952925607562065,0.2389274388551712,-0.38504305481910706
1761507807167178200,3.49017822265625,-0.06529899686574936,0.26498034596443176,-0.3415786623954773
1761507807177150000,3.50014990234375,-0.06577103585004807,0.25472700595855713,-0.2721894383430481
1761507807187122200,3.5101220703125,-0.06563308089971542,0.22478456795215607,-0.19102241098880768
1761507807197093000,3.520093017578125,-0.05683700740337372,0.17216655611991882,-0.11445356905460358
1761507807207065000,3.530065185546875,-0.0328776091337204,0.10578620433807373,-0.05491647124290466
1761507807217037000,3.540037109375,0.0019954191520810127,0.026856763288378716,-0.01596055179834366
1761507807227009000,3.550009033203125,0.039660774171352386,-0.034174103289842606,-0.0018335465574637055
1761507807236981200,3.559981201171875,0.07338958978652954,-0.07746978849172592,-0.01874169521033764
1761507807246952000,3.569951904296875,0.09452123939990997,-0.10226035118103027,-0.0630556270480156
1761507807256924200,3.579924072265625,0.09834340214729309,-0.11652985960245132,-0.1299683004617691
1761507807266896100,3.589896240234375,0.08702177554368973,-0.11529361456632614,-0.22131845355033875
1761507807276868000,3.5998681640625,0.05294041335582733,-0.08986547589302063,-0.32040974497795105
1761507807286839000,3.609839111328125,0.008798787370324135,-0.0381612703204155,-0.41797277331352234
1761507807296811000,3.61981103515625,-0.04020770639181137,0.034115541726350784,-0.5097965002059937
1761507807306783000,3.629782958984375,-0.08259990811347961,0.10733009874820709,-0.583672821521759
1761507807316755000,3.6397548828125,-0.11058811843395233,0.17117860913276672,-0.6256904006004333
1761507807326727200,3.64972705078125,-0.12473802268505096,0.22060368955135345,-0.6302633285522461
1761507807336698000,3.659697998046875,-0.1294252574443817,0.24906215071678162,-0.6037347316741943
1761507807346670000,3.669670166015625,-0.11968290060758591,0.26433002948760986,-0.5529959201812744
1761507807356642000,3.67964208984375,-0.09617885202169418,0.2642686367034912,-0.4842512011528015
1761507807366614000,3.689614013671875,-0.06623400747776031,0.256223201751709,-0.41461992263793945
1761507807376585000,3.6995849609375,-0.031500186771154404,0.24486541748046875,-0.34368473291397095
1761507807386557200,3.70955712890625,0.006490070838481188,0.22558706998825073,-0.2945480942726135
1761507807396529000,3.71952880859375,0.04088690131902695,0.1941043734550476,-0.2593841552734375
1761507807406501000,3.729501220703125,0.06987141817808151,0.14660422503948212,-0.24369549751281738
1761507807416473000,3.73947314453125,0.08651546388864517,0.08468014746904373,-0.23688198626041412
1761507807426444000,3.749444091796875,0.10085631906986237,0.017477942630648613,-0.22258241474628448
1761507807436416300,3.759416259765625,0.10702196508646011,-0.0418979711830616,-0.2065492868423462
1761507807446388000,3.769387939453125,0.10807311534881592,-0.09379418939352036,-0.19342151284217834
1761507807456360200,3.779360107421875,0.10832151770591736,-0.11791928857564926,-0.1704445779323578
1761507807466332000,3.789331787109375,0.10712336748838425,-0.12115369737148285,-0.1465701460838318
1761507807476303000,3.79930322265625,0.11154643446207047,-0.10768420994281769,-0.11701484024524689
1761507807486275000,3.809275146484375,0.10923933982849121,-0.096087746322155,-0.08308403939008713
1761507807496247000,3.8192470703125,0.10734033584594727,-0.08304926753044128,-0.033388424664735794
1761507807506219300,3.82921923828125,0.11085783690214157,-0.07853227853775024,0.02673669531941414
1761507807516190000,3.83918994140625,0.10772735625505447,-0.0825062021613121,0.097186379134655
1761507807526162200,3.849162109375,0.10494968295097351,-0.09370878338813782,0.16475825011730194
1761507807536134000,3.8591337890625,0.09503387659788132,-0.12696246802806854,0.2191733568906784
1761507807546106000,3.869106201171875,0.07195013016462326,-0.15928764641284943,0.26733633875846863
1761507807556078000,3.879078125,0.026258772239089012,-0.1740819215774536,0.3003287613391876
1761507807566049000,3.889049072265625,-0.03887149319052696,-0.17662417888641357,0.31895679235458374
1761507807576021000,3.89902099609375,-0.1161118596792221,-0.15156115591526031,0.31475090980529785
1761507807585993000,3.908992919921875,-0.19169530272483826,-0.10518168658018112,0.29237452149391174
1761507807595965200,3.918965087890625,-0.26068195700645447,-0.05045601725578308,0.2560400068759918
1761507807605936000,3.92893603515625,-0.3177793323993683,0.014419383369386196,0.20837101340293884
1761507807615908000,3.938908203125,-0.3644111454486847,0.07414652407169342,0.1715112179517746
1761507807625880000,3.948880126953125,-0.40724119544029236,0.1178727000951767,0.13993652164936066
1761507807635852000,3.95885205078125,-0.44654709100723267,0.15429164469242096,0.12190156430006027
1761507807645824000,3.968823974609375,-0.4857262074947357,0.2009669989347458,0.1238216981291771
1761507807655795200,3.978795166015625,-0.500393271446228,0.25528085231781006,0.13349536061286926
1761507807665766700,3.9887666015625,-0.493588387966156,0.33187124133110046,0.1472359448671341
1761507807675739000,3.99873876953125,-0.4565565288066864,0.4326423406600952,0.15563692152500153
1761507807685709800,4.008709716796875,-0.4036882519721985,0.5142133831977844,0.16587890684604645
1761507807695681800,4.018681884765625,-0.345694899559021,0.567234218120575,0.17151400446891785
1761507807705652700,4.02865283203125,-0.29877400398254395,0.5576969385147095,0.16513919830322266
1761507807715624700,4.038624755859375,-0.2519381642341614,0.42216286063194275,0.12847022712230682
1761507807725597000,4.048596923828125,-0.20456717908382416,0.17624230682849884,0.05914654582738876
1761507807735568600,4.058568603515625,-0.16102951765060425,-0.12358895689249039,-0.025157324969768524
1761507807745539800,4.068539794921875,-0.1336684674024582,-0.4171731770038605,-0.11983776092529297
1761507807755511800,4.07851171875,-0.14798124134540558,-0.6520110964775085,-0.21928046643733978
1761507807765483800,4.08848388671875,-0.1812499761581421,-0.7808175683021545,-0.31079787015914917
1761507807775455700,4.098455810546875,-0.21944381296634674,-0.8184202909469604,-0.3869948089122772
1761507807785427700,4.108427734375,-0.2582032084465027,-0.7424607872962952,-0.41291454434394836
1761507807795398700,4.118398681640625,-0.3077687919139862,-0.5298251509666443,-0.39072373509407043
1761507807805371000,4.128370849609375,-0.3589736521244049,-0.21350902318954468,-0.3380333483219147
1761507807815342800,4.1383427734375,-0.40504568815231323,0.13382485508918762,-0.26159024238586426
1761507807825314800,4.148314697265625,-0.4162892997264862,0.4393831789493561,-0.19044043123722076
1761507807835286800,4.158286865234375,-0.3945062458515167,0.6292595863342285,-0.1397862583398819
1761507807845257700,4.1682578125,-0.37314075231552124,0.7360470294952393,-0.09409387409687042
1761507807855230000,4.17822998046875,-0.35896036028862,0.7743551731109619,-0.06879868358373642
1761507807865201700,4.18820166015625,-0.3436942994594574,0.74237459897995,-0.05003884434700012
1761507807875174000,4.198173828125,-0.31358712911605835,0.6568629741668701,-0.02805914916098118
1761507807885144800,4.208144775390625,-0.27313557267189026,0.5155500769615173,0.009396078996360302
1761507807895116800,4.21811669921875,-0.2271309345960617,0.3311800956726074,0.06496794521808624
1761507807905089000,4.228089111328125,-0.1786709874868393,0.121343232691288,0.13765600323677063
1761507807915060700,4.238060791015625,-0.13680478930473328,-0.0633314698934555,0.22199474275112152
1761507807925033000,4.248032958984375,-0.11914455145597458,-0.19646982848644257,0.2994930148124695
1761507807935003600,4.258003662109375,-0.11213420331478119,-0.2935429513454437,0.3459576964378357
1761507807944976000,4.267975830078125,-0.11634919047355652,-0.3799889087677002,0.36181336641311646
1761507807954947600,4.277947509765625,-0.11995825916528702,-0.44089066982269287,0.36221185326576233
1761507807964919800,4.287919921875,-0.130746990442276,-0.4693785011768341,0.3645077645778656
1761507807974890800,4.297890869140625,-0.15560279786586761,-0.4701777994632721,0.3640066981315613
1761507807984862700,4.30786279296875,-0.1859830617904663,-0.43876928091049194,0.36826401948928833
1761507807994835000,4.3178349609375,-0.21421724557876587,-0.37716755270957947,0.38124504685401917
1761507808004806700,4.327806640625,-0.23655371367931366,-0.30094894766807556,0.40351173281669617
1761507808014779000,4.33777880859375,-0.24815654754638672,-0.21957264840602875,0.41224855184555054
1761507808024749800,4.347749755859375,-0.25207778811454773,-0.1478491872549057,0.40382149815559387
1761507808034721800,4.3577216796875,-0.2738701105117798,-0.06676387786865234,0.36904677748680115
1761507808044693800,4.36769384765625,-0.317038893699646,0.008913838304579258,0.30087730288505554
1761507808054665700,4.377665771484375,-0.36087876558303833,0.06625114381313324,0.20396199822425842
1761507808064636700,4.38763671875,-0.3924548029899597,0.09008217602968216,0.09704754501581192
1761507808074609000,4.39760888671875,-0.40517696738243103,0.08872067928314209,-0.006367437541484833
1761507808084580900,4.407580810546875,-0.40605661273002625,0.06861674040555954,-0.09244932979345322
1761507808094553600,4.4175537109375,-0.3945772051811218,0.05098868906497955,-0.16351507604122162
1761507808104525800,4.42752587890625,-0.36541345715522766,0.03242911770939827,-0.22033149003982544
1761507808114496800,4.437496826171875,-0.32640084624290466,0.02641361393034458,-0.2665858268737793
1761507808124468700,4.44746875,-0.2918146252632141,0.03253541886806488,-0.302995502948761
1761507808134441000,4.45744091796875,-0.263645201921463,0.05485260859131813,-0.33357399702072144
1761507808144412700,4.46741259765625,-0.24235346913337708,0.08590134233236313,-0.3453499376773834
1761507808154384000,4.4773837890625,-0.2205522209405899,0.1298120766878128,-0.3295418918132782
1761507808164355800,4.48735595703125,-0.19734729826450348,0.1717531383037567,-0.29059794545173645
1761507808174327800,4.497327880859375,-0.17127835750579834,0.19545726478099823,-0.22569386661052704
1761507808184299800,4.5072998046875,-0.14306774735450745,0.20498311519622803,-0.14449913799762726
1761507808194271700,4.517271728515625,-0.10980785638093948,0.19856157898902893,-0.06827087700366974
1761507808204242700,4.52724267578125,-0.07930480688810349,0.17102502286434174,0.00785425491631031
1761507808214215000,4.53721484375,-0.05497410148382187,0.13306039571762085,0.05408808961510658
1761507808224187000,4.547186767578125,-0.03495964780449867,0.09076086431741714,0.08713765442371368
1761507808234158800,4.557158935546875,-0.019277533516287804,0.04195881634950638,0.1036536917090416
1761507808244129800,4.5671298828125,-0.0077367243357002735,-0.010748336091637611,0.11704832315444946
1761507808254101800,4.577101806640625,0.005813312716782093,-0.057284317910671234,0.1211957111954689
1761507808264073700,4.58707373046875,0.0206841379404068,-0.08958978950977325,0.12076082080602646
1761507808274045700,4.597045654296875,0.02959407866001129,-0.10593116283416748,0.11109942942857742
1761507808284018000,4.607017822265625,0.03619019687175751,-0.11407111585140228,0.0916234701871872
1761507808293988600,4.616988525390625,0.04267362877726555,-0.10591784119606018,0.07977907359600067
1761507808303960800,4.6269609375,0.03385377302765846,-0.08917161822319031,0.07575050741434097
1761507808313932800,4.636932861328125,0.013314303010702133,-0.06301026046276093,0.06834488362073898
1761507808323904800,4.64690478515625,-0.01763535663485527,-0.027796613052487373,0.052117712795734406
1761507808333876700,4.656876708984375,-0.04746110364794731,0.009686697274446487,0.029045606032013893
1761507808343847700,4.66684765625,-0.06697887927293777,0.03179599344730377,-0.00867301132529974
1761507808353820000,4.67681982421875,-0.0784919485449791,0.054963454604148865,-0.0417042151093483
1761507808363791600,4.68679150390625,-0.07395738363265991,0.07309266179800034,-0.06406304985284805
1761507808373763800,4.696763916015625,-0.05448933690786362,0.09390664100646973,-0.07391539216041565
1761507808383734800,4.70673486328125,-0.02838636189699173,0.11840319633483887,-0.06520473212003708
1761507808393706800,4.716706787109375,-0.0036179940216243267,0.1413450837135315,-0.039079610258340836
1761507808403679000,4.726678955078125,0.010137764737010002,0.15749742090702057,0.0009511647513136268
1761507808413650700,4.736650634765625,0.013844966888427734,0.17018283903598785,0.0508757084608078
1761507808423623000,4.746622802734375,0.006300231907516718,0.16826297342777252,0.09620776772499084
1761507808433593900,4.75659375,-0.002365310676395893,0.15967096388339996,0.12252859771251678
1761507808443565800,4.76656591796875,-0.020461224019527435,0.14810511469841003,0.12117757648229599
1761507808453537800,4.776537841796875,-0.02880408801138401,0.1445169895887375,0.09595081955194473
1761507808463509800,4.786509765625,-0.02891460619866848,0.15072189271450043,0.06015527620911598
1761507808473480700,4.796480712890625,-0.020422864705324173,0.16105660796165466,0.017521163448691368
1761507808483452700,4.80645263671875,-0.000116793904453516,0.1814713478088379,-0.006556210108101368
1761507808493425000,4.8164248046875,0.04688812419772148,0.20528443157672882,-0.012544112280011177
1761507808503396900,4.82639697265625,0.09540186822414398,0.18529927730560303,-0.010316112078726292
1761507808513368800,4.836368896484375,0.1214662492275238,0.08515576273202896,-0.017806848511099815
1761507808523339800,4.84633984375,0.11775512993335724,-0.07053396850824356,-0.04413991793990135
1761507808533311700,4.856311767578125,0.09702759981155396,-0.22478251159191132,-0.08394032716751099
1761507808543283700,4.86628369140625,0.0722532793879509,-0.3523396849632263,-0.1301637440919876
1761507808553255700,4.876255615234375,0.039622072130441666,-0.4284740090370178,-0.16649611294269562
1761507808563228000,4.886227783203125,0.0083062294870615,-0.4395599365234375,-0.16669292747974396
1761507808573198800,4.89619873046875,-0.004686616826802492,-0.3973586857318878,-0.10389971733093262
1761507808583170800,4.9061708984375,0.008344496600329876,-0.2884005010128021,0.030720150098204613
1761507808593142800,4.916142822265625,0.05839301645755768,-0.12545950710773468,0.20133663713932037
1761507808603114800,4.92611474609375,0.1436285525560379,0.05839768052101135,0.4015325903892517
1761507808613085700,4.936085693359375,0.2484261691570282,0.23642122745513916,0.6012436747550964
1761507808623058000,4.946057861328125,0.34056276082992554,0.35907870531082153,0.7717232704162598
1761507808633029600,4.956029541015625,0.40607595443725586,0.376991868019104,0.8731982111930847
1761507808643001900,4.966001953125,0.465424507856369,0.29545387625694275,0.9065191745758057
1761507808652973800,4.975973876953125,0.5094202756881714,0.1428917795419693,0.8903203010559082
1761507808662945300,4.9859453125,0.5175530314445496,-0.060148682445287704,0.8200791478157043
1761507808672917200,4.995917236328125,0.4836656451225281,-0.2703388035297394,0.6970862150192261
1761507808682889200,5.00588916015625,0.43017420172691345,-0.46382543444633484,0.5463587641716003
1761507808692861400,5.015861328125,0.3624638617038727,-0.6001800894737244,0.3875819444656372
1761507808702832000,5.02583203125,0.2874423563480377,-0.6591890454292297,0.23274284601211548
1761507808712804400,5.035804443359375,0.21689766645431519,-0.6214974522590637,0.08969603478908539
1761507808722776300,5.0457763671875,0.15854567289352417,-0.49403637647628784,-0.032798197120428085
1761507808732748300,5.055748291015625,0.11408792436122894,-0.3192605674266815,-0.13440339267253876
1761507808742720300,5.06572021484375,0.07916442304849625,-0.1109548881649971,-0.21538668870925903
1761507808752691200,5.075691162109375,0.048281896859407425,0.09373430907726288,-0.26348572969436646
1761507808762663400,5.085663330078125,0.031064029783010483,0.258122980594635,-0.27922874689102173
1761507808772635100,5.09563525390625,0.04139893501996994,0.3347536027431488,-0.26852449774742126
1761507808782607400,5.105607421875,0.07723123580217361,0.3206023573875427,-0.2265128493309021
1761507808792578300,5.115578369140625,0.12162704765796661,0.23936040699481964,-0.16291682422161102
1761507808802550300,5.12555029296875,0.16474947333335876,0.11707416921854019,-0.08989562094211578
1761507808812522500,5.1355224609375,0.2076665461063385,-0.04063316807150841,-0.023147614672780037
1761507808822494200,5.145494140625,0.249324768781662,-0.1897488832473755,0.02948523499071598
1761507808832466400,5.155466552734375,0.27915623784065247,-0.29315251111984253,0.061667535454034805
1761507808842437400,5.165437255859375,0.304896742105484,-0.32834380865097046,0.08550575375556946
1761507808852409300,5.175409423828125,0.3284955620765686,-0.3087855577468872,0.09606471657752991
1761507808862381300,5.18538134765625,0.35162457823753357,-0.26552411913871765,0.09329449385404587
1761507808872353300,5.195353271484375,0.3683493435382843,-0.2136964350938797,0.07317186146974564
1761507808882325500,5.205325439453125,0.3741060495376587,-0.1648159772157669,0.03773770481348038
1761507808892296200,5.215296142578125,0.35480615496635437,-0.11953968554735184,-0.007844280451536179
1761507808902268400,5.225268310546875,0.32712045311927795,-0.0834868773818016,-0.06408385187387466
1761507808912240400,5.235240478515625,0.2861347794532776,-0.06960874050855637,-0.12941224873065948
1761507808922212400,5.24521240234375,0.24587154388427734,-0.06128822639584541,-0.203268364071846
1761507808932183300,5.255183349609375,0.20852163434028625,-0.035008158534765244,-0.2594258487224579
1761507808942155300,5.2651552734375,0.1799089014530182,0.00295440386980772,-0.2987237274646759
1761507808952127200,5.275127197265625,0.15944336354732513,0.04428422078490257,-0.2960475981235504
1761507808962099200,5.28509912109375,0.14457599818706512,0.085574671626091,-0.26170614361763
1761507808972070100,5.295070068359375,0.12114008516073227,0.11241832375526428,-0.20778341591358185
1761507808982042400,5.30504248046875,0.09914370626211166,0.11907250434160233,-0.14464600384235382
1761507808992014300,5.315014404296875,0.06719895452260971,0.108489029109478,-0.08515933901071548
1761507809001986300,5.324986328125,0.027337826788425446,0.08059906959533691,-0.035346776247024536
1761507809011958300,5.334958251953125,-0.013185769319534302,0.054261282086372375,-0.009647699072957039
1761507809021929200,5.34492919921875,-0.049422603100538254,0.0436730831861496,-0.020558670163154602
1761507809031901400,5.3549013671875,-0.08616567403078079,0.06383000314235687,-0.065244659781456
1761507809041873200,5.364873046875,-0.11180445551872253,0.107782281935215,-0.14140041172504425
1761507809051845400,5.374845458984375,-0.1362231969833374,0.16469119489192963,-0.22111603617668152
1761507809061817300,5.3848173828125,-0.15205249190330505,0.2264685332775116,-0.28743883967399597
1761507809071788300,5.394788330078125,-0.1671084463596344,0.2820053994655609,-0.329195499420166
1761507809081760500,5.404760498046875,-0.17702525854110718,0.3110485076904297,-0.34083378314971924
1761507809091732200,5.414732177734375,-0.17447367310523987,0.3304179012775421,-0.32877278327941895
1761507809101704400,5.424704345703125,-0.16582611203193665,0.3431456685066223,-0.2935870885848999
1761507809111675100,5.434675048828125,-0.1434156894683838,0.34982722997665405,-0.25646212697029114
1761507809121647400,5.4446474609375,-0.1167963296175003,0.3482101559638977,-0.22457420825958252
1761507809131619300,5.454619384765625,-0.08602914214134216,0.3365209102630615,-0.20351791381835938
1761507809141591300,5.46459130859375,-0.0490436926484108,0.31160596013069153,-0.1945723444223404
1761507809151563500,5.4745634765625,-0.008520875126123428,0.2653871178627014,-0.18868188560009003
1761507809161534200,5.4845341796875,0.029811600223183632,0.20097805559635162,-0.1968870759010315
1761507809171506400,5.49450634765625,0.0711502656340599,0.11834728717803955,-0.20781180262565613
1761507809181478100,5.50447802734375,0.10206504166126251,0.024921201169490814,-0.20882806181907654
1761507809191450400,5.514450439453125,0.12587103247642517,-0.06570857018232346,-0.2014061063528061
1761507809201421300,5.52442138671875,0.1407168209552765,-0.14786814153194427,-0.18411844968795776
1761507809211393300,5.534393310546875,0.14473043382167816,-0.20377933979034424,-0.1619495004415512
1761507809221365200,5.544365234375,0.14440180361270905,-0.2325899451971054,-0.1355687528848648
1761507809231337200,5.554337158203125,0.13521426916122437,-0.2343066781759262,-0.12014568597078323
1761507809241309400,5.564309326171875,0.1239219382405281,-0.21121200919151306,-0.1051694005727768
1761507809251280400,5.5742802734375,0.11015113443136215,-0.1890106499195099,-0.09545748680830002
1761507809261252400,5.58425244140625,0.09194310754537582,-0.16374976933002472,-0.07875840365886688
1761507809271224300,5.594224365234375,0.07647541165351868,-0.14315378665924072,-0.05718379095196724
1761507809281196300,5.6041962890625,0.07284658402204514,-0.1248493492603302,-0.02373874932527542
1761507809291167200,5.614167236328125,0.0850898027420044,-0.11982936412096024,0.02474265918135643
1761507809301139500,5.624139404296875,0.09911321103572845,-0.135580912232399,0.07921895384788513
1761507809311111200,5.634111083984375,0.09012806415557861,-0.16549840569496155,0.1356467604637146
1761507809321083400,5.64408349609375,0.04436563700437546,-0.1969793736934662,0.18713605403900146
1761507809331055400,5.654055419921875,-0.03424212336540222,-0.21512363851070404,0.22265341877937317
1761507809341026300,5.6640263671875,-0.12969247996807098,-0.213113471865654,0.23703795671463013
1761507809350998500,5.67399853515625,-0.2198554128408432,-0.17702965438365936,0.2214907556772232
1761507809360970200,5.68397021484375,-0.2913450598716736,-0.12210514396429062,0.18203869462013245
1761507809370942500,5.6939423828125,-0.3359382152557373,-0.043143145740032196,0.1250831037759781
1761507809380913200,5.7039130859375,-0.36169683933258057,0.05162810534238815,0.07371631264686584
1761507809390885400,5.713885498046875,-0.374117910861969,0.15680335462093353,0.039150118827819824
1761507809400857000,5.723857177734375,-0.36735907196998596,0.20509152114391327,0.019248317927122116
1761507809410829300,5.733829345703125,-0.3413315713405609,0.15364773571491241,0.009123231284320354
1761507809420801300,5.74380126953125,-0.2975524067878723,0.023257501423358917,0.01047638338059187
1761507809430772200,5.753772216796875,-0.2490663379430771,-0.1540987342596054,0.02121647074818611
1761507809440744400,5.763744384765625,-0.21785247325897217,-0.3420446515083313,0.03763778507709503
1761507809450716200,5.773716064453125,-0.19720473885536194,-0.510348916053772,0.058893706649541855
1761507809460688400,5.7836884765625,-0.19567129015922546,-0.6109833717346191,0.08920927345752716
1761507809470659300,5.793659423828125,-0.19286181032657623,-0.6055999398231506,0.127233624458313
1761507809480631300,5.80363134765625,-0.187911257147789,-0.49937814474105835,0.16152635216712952
1761507809490603300,5.813603271484375,-0.18543511629104614,-0.31664156913757324,0.17827585339546204
1761507809500575200,5.8235751953125,-0.1862146258354187,-0.10159824043512344,0.1570427268743515
1761507809510547500,5.83354736328125,-0.18684828281402588,0.09608256816864014,0.09993788599967957
1761507809520518400,5.843518310546875,-0.18888986110687256,0.21639487147331238,0.018469659611582756
1761507809530490400,5.853490478515625,-0.1963135451078415,0.23862376809120178,-0.08559374511241913
1761507809540462300,5.86346240234375,-0.21007037162780762,0.19601266086101532,-0.19002214074134827
1761507809550434300,5.873434326171875,-0.23664142191410065,0.1336641013622284,-0.27816930413246155
1761507809560405200,5.8834052734375,-0.26363736391067505,0.06246955320239067,-0.34621119499206543
1761507809570377500,5.89337744140625,-0.28203436732292175,-0.010668191127479076,-0.3840799629688263
1761507809580349200,5.90334912109375,-0.2898835241794586,-0.0684870183467865,-0.38897085189819336
1761507809590321400,5.9133212890625,-0.28176349401474,-0.0982140377163887,-0.33919984102249146
1761507809600293400,5.92329345703125,-0.26162198185920715,-0.10146256536245346,-0.2604192793369293
1761507809610264300,5.933264404296875,-0.2420053482055664,-0.07304050028324127,-0.1653081476688385
1761507809620236300,5.943236328125,-0.20153328776359558,-0.04008281230926514,-0.05451824516057968
1761507809630208300,5.953208251953125,-0.15463979542255402,-0.0024361698888242245,0.04774324595928192
1761507809640180200,5.96318017578125,-0.09917174279689789,0.023831119760870934,0.1399802267551422
1761507809650151200,5.973151123046875,-0.04691502824425697,0.032720278948545456,0.22262488305568695
1761507809660122600,5.98312255859375,-0.009609203785657883,0.04075770080089569,0.30105099081993103
1761507809670094600,5.993094482421875,0.005950928665697575,0.04574881121516228,0.3753613829612732
1761507809680066600,6.003066650390625,-0.008349712938070297,0.03769461438059807,0.43709293007850647
1761507809690038800,6.013038818359375,-0.04034857824444771,0.035878583788871765,0.47178658843040466
1761507809700009500,6.023009521484375,-0.08489634096622467,0.047853752970695496,0.47588813304901123
1761507809709981700,6.032981689453125,-0.12378200888633728,0.07330439984798431,0.44436997175216675
1761507809719953700,6.04295361328125,-0.16037464141845703,0.11042486876249313,0.3817555904388428
1761507809729925600,6.052925537109375,-0.1765037328004837,0.14150457084178925,0.2959578037261963
1761507809739896600,6.062896484375,-0.18023747205734253,0.16914153099060059,0.21257317066192627
1761507809749868500,6.07286865234375,-0.1741909682750702,0.16647085547447205,0.13960061967372894
1761507809759840500,6.082840576171875,-0.15568865835666656,0.13873431086540222,0.07743311673402786
1761507809769812500,6.0928125,-0.12944278120994568,0.07558581978082657,0.038230050355196
1761507809779784700,6.10278466796875,-0.10947360843420029,-0.005259762052446604,0.00799225177615881
1761507809789755600,6.112755615234375,-0.0905543863773346,-0.10080981999635696,-0.025235526263713837
1761507809799727600,6.1227275390625,-0.07461270689964294,-0.20129114389419556,-0.06294722110033035
1761507809809699600,6.132699462890625,-0.0757603794336319,-0.27902454137802124,-0.10944931954145432
1761507809819671600,6.142671630859375,-0.08795099705457687,-0.3162083923816681,-0.1611604392528534
1761507809829642500,6.152642578125,-0.1047111377120018,-0.3187360465526581,-0.22933126986026764
1761507809839614700,6.16261474609375,-0.10773275792598724,-0.2963883876800537,-0.29614493250846863
1761507809849586400,6.17258642578125,-0.11891232430934906,-0.24628271162509918,-0.36185845732688904
1761507809859558700,6.18255859375,-0.13247951865196228,-0.1798618882894516,-0.40121012926101685
1761507809869530600,6.192530517578125,-0.16298404335975647,-0.09120161086320877,-0.4179984927177429
1761507809879501600,6.20250146484375,-0.19703015685081482,0.01237990241497755,-0.4105256497859955
1761507809889473800,6.212473876953125,-0.2282974123954773,0.12139318138360977,-0.3838880956172943
1761507809899445500,6.222445556640625,-0.23993489146232605,0.23743936419487,-0.3463577628135681
1761507809909417700,6.232417724609375,-0.24115963280200958,0.3299753665924072,-0.30073705315589905
1761507809919388400,6.242388427734375,-0.22172707319259644,0.38792335987091064,-0.2543327808380127
1761507809929360600,6.252360595703125,-0.2009512037038803,0.3953101933002472,-0.20813103020191193
1761507809939332600,6.26233251953125,-0.17835135757923126,0.35362663865089417,-0.1658291220664978
1761507809949304600,6.2723046875,-0.15256774425506592,0.27189579606056213,-0.115616574883461
1761507809959276800,6.28227685546875,-0.13015112280845642,0.15227538347244263,-0.07480709254741669
1761507809969247500,6.29224755859375,-0.10530901700258255,0.019375158473849297,-0.03459055349230766
1761507809979219700,6.3022197265625,-0.07964253425598145,-0.11485588550567627,0.0019647949375212193
1761507809989191400,6.31219140625,-0.053585994988679886,-0.21711505949497223,0.044869955629110336
1761507809999163600,6.32216357421875,-0.03716307878494263,-0.26084256172180176,0.07842152565717697
1761507810009134600,6.332134521484375,-0.033083219081163406,-0.24195252358913422,0.09790066629648209
1761507810019106600,6.3421064453125,-0.033735960721969604,-0.1933828592300415,0.09594564139842987
1761507810029078500,6.35207861328125,-0.03570037707686424,-0.1328391432762146,0.08483117818832397
1761507810039050500,6.362050537109375,-0.04441290721297264,-0.07795938849449158,0.062460627406835556
1761507810049022700,6.372022705078125,-0.050281692296266556,-0.050633348524570465,0.03747238963842392
1761507810058993700,6.38199365234375,-0.04809337109327316,-0.05479693412780762,0.009062851779162884
1761507810068965600,6.391965576171875,-0.03961317241191864,-0.07307007163763046,-0.012097887694835663
1761507810078937600,6.4019375,-0.028354128822684288,-0.08595816791057587,-0.025545785203576088
1761507810088909600,6.41190966796875,-0.013596094213426113,-0.07351651042699814,-0.02994377911090851
1761507810098881500,6.421881591796875,-0.00816297996789217,-0.042695749551057816,-0.019980628043413162
1761507810108852700,6.431852783203125,-0.010101203806698322,0.005718786269426346,-0.010146704502403736
1761507810118824400,6.441824462890625,-0.017968982458114624,0.0699920505285263,0.0032572520431131124
1761507810128796700,6.451796630859375,-0.0396137535572052,0.14803212881088257,0.019306393340229988
1761507810138768600,6.4617685546875,-0.07121962308883667,0.2055649310350418,0.027227433398365974
1761507810148739600,6.471739501953125,-0.0982411578297615,0.22861787676811218,0.02156386524438858
1761507810158711600,6.481711669921875,-0.12013500928878784,0.21770237386226654,0.010202288627624512
1761507810168683500,6.49168359375,-0.12473278492689133,0.1983499825000763,-0.0065751634538173676
1761507810178655700,6.50165576171875,-0.11265028268098831,0.16620083153247833,-0.030975310131907463
1761507810188626400,6.51162646484375,-0.08075876533985138,0.13129447400569916,-0.04200214520096779
1761507810198598700,6.5215986328125,-0.05421104282140732,0.10500588268041611,-0.04418247565627098
1761507810208570400,6.5315703125,-0.04102572426199913,0.08639359474182129,-0.03593312203884125
1761507810218542600,6.54154248046875,-0.031235679984092712,0.06536474078893661,-0.019555481150746346
1761507810228514600,6.5515146484375,-0.022691771388053894,0.01585143245756626,-0.004323245026171207
1761507810238485500,6.561485595703125,-0.024966377764940262,-0.09415150433778763,-0.017289910465478897
1761507810248457700,6.571457763671875,-0.052879203110933304,-0.2322615385055542,-0.08049749583005905
1761507810258429400,6.581429443359375,-0.09202767163515091,-0.3761313855648041,-0.1829407811164856
1761507810268401700,6.591401611328125,-0.12451954185962677,-0.49240368604660034,-0.28143295645713806
1761507810278372600,6.60137255859375,-0.14946803450584412,-0.5576921701431274,-0.3416515588760376
1761507810288344600,6.611344482421875,-0.16090260446071625,-0.5548635721206665,-0.33319661021232605
1761507810298316500,6.621316650390625,-0.15688921511173248,-0.4726477861404419,-0.2574664354324341
1761507810308288500,6.63128857421875,-0.12897871434688568,-0.31706419587135315,-0.11483263969421387
1761507810318260700,6.6412607421875,-0.08013793081045151,-0.11344476044178009,0.07376816123723984
1761507810328231700,6.651231689453125,-0.02525029517710209,0.10366717725992203,0.2803378403186798
1761507810338203600,6.66120361328125,0.0328843779861927,0.28755924105644226,0.45870649814605713
1761507810348175600,6.671175537109375,0.08524929732084274,0.3940930664539337,0.5710052251815796
1761507810358147600,6.681147705078125,0.12915655970573425,0.4182349145412445,0.6175519227981567
1761507810368118500,6.691118408203125,0.17432621121406555,0.3661452829837799,0.6107518672943115
1761507810378090500,6.701090576171875,0.2149263620376587,0.2750321626663208,0.5753976106643677
1761507810388062500,6.7110625,0.2509266436100006,0.16447095572948456,0.5237708687782288
1761507810398034700,6.72103466796875,0.26935437321662903,0.05089778080582619,0.46636009216308594
1761507810408006700,6.731006591796875,0.27882376313209534,-0.06407971680164337,0.39628085494041443
1761507810417977600,6.7409775390625,0.28274551033973694,-0.17025543749332428,0.3295084834098816
1761507810427949600,6.750949462890625,0.2740232050418854,-0.2550435960292816,0.2559681236743927
1761507810437921500,6.760921630859375,0.24428902566432953,-0.30520957708358765,0.1781896948814392
1761507810447893500,6.7708935546875,0.21306799352169037,-0.30178314447402954,0.09149874001741409
1761507810457864400,6.780864501953125,0.176486536860466,-0.25226378440856934,-0.0059673599898815155
1761507810467836700,6.790836669921875,0.1496223509311676,-0.1711156815290451,-0.11395622044801712
1761507810477808400,6.800808349609375,0.13677287101745605,-0.09349147230386734,-0.22033192217350006
1761507810487780600,6.810780517578125,0.1372198760509491,-0.015450097620487213,-0.285411536693573
1761507810497752600,6.820752685546875,0.14701737463474274,0.06774438917636871,-0.3122953474521637
1761507810507723500,6.8307236328125,0.15484672784805298,0.13988813757896423,-0.29081982374191284
1761507810517695700,6.84069580078125,0.1697617769241333,0.20477604866027832,-0.2263345569372177
1761507810527667500,6.85066748046875,0.18845774233341217,0.26130539178848267,-0.12988808751106262
1761507810537639700,6.8606396484375,0.22062261402606964,0.2965909540653229,-0.014736737124621868
1761507810547610600,6.870610595703125,0.255942702293396,0.3205263316631317,0.10085906833410263
1761507810557582600,6.88058251953125,0.2883267402648926,0.32214686274528503,0.20373111963272095
1761507810567554800,6.890554931640625,0.2975856363773346,0.3137575387954712,0.28630053997039795
1761507810577526500,6.900526611328125,0.28967899084091187,0.30859553813934326,0.34500113129615784
1761507810587498800,6.910498779296875,0.26960185170173645,0.3198995888233185,0.3773733079433441
1761507810597469700,6.9204697265625,0.24603819847106934,0.32754847407341003,0.3649725615978241
1761507810607441700,6.930441650390625,0.2150709629058838,0.3161039650440216,0.30862581729888916
1761507810617413600,6.94041357421875,0.187782883644104,0.29735106229782104,0.20515616238117218
1761507810627385600,6.950385498046875,0.16162464022636414,0.2681802809238434,0.07126782834529877
1761507810637356500,6.9603564453125,0.13014128804206848,0.2145351767539978,-0.08827070146799088
1761507810647328500,6.97032861328125,0.10518672317266464,0.12992452085018158,-0.2615900933742523
1761507810657300700,6.98030078125,0.09506990760564804,0.030019773170351982,-0.4107382893562317
1761507810667272700,6.990272705078125,0.09816725552082062,-0.07811041176319122,-0.5092000961303711
1761507810677245000,7.000244873046875,0.09947407245635986,-0.1682586967945099,-0.5544655919075012
1761507810687215900,7.0102158203125,0.10074961930513382,-0.22945380210876465,-0.5549405813217163
1761507810697187800,7.020187744140625,0.10395606607198715,-0.27442288398742676,-0.5246130228042603
1761507810707159800,7.030159912109375,0.1052711009979248,-0.29115724563598633,-0.47166740894317627
1761507810717131800,7.0401318359375,0.10232564061880112,-0.280418336391449,-0.4043877124786377
1761507810727102700,7.050102783203125,0.07770923525094986,-0.2626761198043823,-0.35340970754623413
1761507810737075000,7.060074951171875,0.03979301452636719,-0.21845433115959167,-0.32432320713996887
1761507810747046700,7.070046630859375,-0.00780331389978528,-0.14814403653144836,-0.3212472200393677
1761507810757019000,7.080018798828125,-0.049703892320394516,-0.058145709335803986,-0.33912181854248047
1761507810766989800,7.08998974609375,-0.07257893681526184,0.05424127355217934,-0.35924232006073
1761507810776961800,7.0999619140625,-0.08635174483060837,0.18110308051109314,-0.38075053691864014
1761507810786934000,7.10993408203125,-0.09063871949911118,0.2738990783691406,-0.39925912022590637
1761507810796905700,7.11990576171875,-0.0982297882437706,0.34127360582351685,-0.4078589975833893
1761507810806878000,7.1298779296875,-0.11212023347616196,0.3755071461200714,-0.41753461956977844
1761507810816848600,7.1398486328125,-0.10699205100536346,0.3805660903453827,-0.42940032482147217
1761507810826820900,7.14982080078125,-0.08552586287260056,0.36297422647476196,-0.44037458300590515
1761507810836792800,7.159792724609375,-0.04903043434023857,0.34475183486938477,-0.4231388568878174
1761507810846764800,7.169764892578125,-0.010456446558237076,0.3046894669532776,-0.3844885528087616
1761507810856735700,7.17973583984375,0.02080400288105011,0.22442498803138733,-0.32152557373046875
1761507810866707700,7.189707763671875,0.05786389112472534,0.12080211937427521,-0.2534369230270386
1761507810876680000,7.199679931640625,0.09451351314783096,0.00854668952524662,-0.18305090069770813
1761507810886651600,7.209651611328125,0.12976180016994476,-0.09442397207021713,-0.10887697339057922
1761507810896623900,7.219623779296875,0.14830031991004944,-0.15969033539295197,-0.029211435467004776
1761507810906594800,7.2295947265625,0.16233016550540924,-0.16161464154720306,0.051260218024253845
1761507810916566800,7.23956689453125,0.16503913700580597,-0.12742657959461212,0.11850583553314209
1761507810926538800,7.249538818359375,0.15694379806518555,-0.09434621781110764,0.1631278544664383
1761507810936510700,7.2595107421875,0.14937375485897064,-0.08247784525156021,0.1896582543849945
1761507810946481700,7.269481689453125,0.13427545130252838,-0.07571323215961456,0.21198727190494537
1761507810956454000,7.279453857421875,0.11675504595041275,-0.0751262679696083,0.23150798678398132
1761507810966425900,7.28942578125,0.10238076001405716,-0.07840472459793091,0.24431614577770233
1761507810976397800,7.299397705078125,0.08504225313663483,-0.08697610348463058,0.2546803653240204
1761507810986369800,7.309369873046875,0.05323629081249237,-0.09300125390291214,0.2660575807094574
1761507810996340700,7.3193408203125,0.004922288469970226,-0.09592700004577637,0.27202704548835754
1761507811006313000,7.32931298828125,-0.06251245737075806,-0.0889129564166069,0.2881210148334503
1761507811016284700,7.33928466796875,-0.1386122852563858,-0.05638084188103676,0.3043217957019806
1761507811026257000,7.3492568359375,-0.21310673654079437,-0.0034631025046110153,0.3174073398113251
1761507811036227600,7.3592275390625,-0.2699607014656067,0.04495982453227043,0.324249804019928
1761507811046199800,7.36919970703125,-0.29637250304222107,0.09915602207183838,0.32207930088043213
1761507811056171800,7.379171875,-0.29530805349349976,0.13692817091941833,0.3182925581932068
1761507811066143700,7.389143798828125,-0.2784278392791748,0.16012126207351685,0.32294923067092896
1761507811076116000,7.399115966796875,-0.2569931149482727,0.16130663454532623,0.33478644490242004
1761507811086086700,7.409086669921875,-0.23332631587982178,0.1482997089624405,0.3410647511482239
1761507811096059000,7.419058837890625,-0.1992277204990387,0.12002385407686234,0.35107478499412537
1761507811106030600,7.429030517578125,-0.16586752235889435,0.0679248720407486,0.328853577375412
1761507811116002800,7.4390029296875,-0.13162805140018463,-0.06732802838087082,0.26990053057670593
1761507811125973800,7.448973876953125,-0.08597254753112793,-0.2500132918357849,0.2035343199968338
1761507811135945700,7.45894580078125,-0.059759050607681274,-0.4174824655056,0.1404682695865631
1761507811145918000,7.46891796875,-0.06728056818246841,-0.5683576464653015,0.061200592666864395
1761507811155889700,7.4788896484375,-0.09625602513551712,-0.6881588697433472,-0.014207080006599426
1761507811165862000,7.48886181640625,-0.1196819394826889,-0.759207546710968,-0.06290129572153091
1761507811175832800,7.498832763671875,-0.13400602340698242,-0.7758232951164246,-0.07767198234796524
1761507811185804800,7.5088046875,-0.14452332258224487,-0.7553246021270752,-0.04601815715432167
1761507811195776800,7.51877685546875,-0.15645134449005127,-0.6824975609779358,0.020488431677222252
1761507811205748700,7.528748779296875,-0.17159374058246613,-0.5365152955055237,0.08795671164989471
1761507811215719700,7.5387197265625,-0.190822571516037,-0.33765146136283875,0.11308843642473221
1761507811225692000,7.54869189453125,-0.21666978299617767,-0.12378248572349548,0.0679803118109703
1761507811235664000,7.558663818359375,-0.22593413293361664,0.0443258211016655,-0.020422523841261864
1761507811245635800,7.5686357421875,-0.22067247331142426,0.1456488072872162,-0.11781008541584015
1761507811255607800,7.57860791015625,-0.21109440922737122,0.1714090257883072,-0.19337913393974304
1761507811265578800,7.588578857421875,-0.2017737627029419,0.1558864265680313,-0.23755863308906555
1761507811275550700,7.59855078125,-0.18728482723236084,0.08913242816925049,-0.2452695518732071
1761507811285522700,7.608522705078125,-0.15998530387878418,0.008363017812371254,-0.2182014435529709
1761507811295495000,7.618494873046875,-0.1256183385848999,-0.060825787484645844,-0.15313230454921722
1761507811305465600,7.628465576171875,-0.09113623201847076,-0.09403541684150696,-0.06406582146883011
1761507811315437800,7.638437744140625,-0.05223064124584198,-0.0921190083026886,0.035115089267492294
1761507811325409800,7.648409912109375,-0.012862961739301682,-0.054810892790555954,0.13831698894500732
1761507811335381800,7.6583818359375,0.0185713954269886,-0.01723661832511425,0.22391870617866516
1761507811345353000,7.66835302734375,0.03285873308777809,-0.00371091952547431,0.28548669815063477
1761507811355324700,7.67832470703125,0.03501562774181366,-0.010875089094042778,0.3224036991596222
1761507811365297000,7.688296875,0.03328607603907585,-0.02711382880806923,0.3312097489833832
1761507811375268600,7.6982685546875,0.025898469612002373,-0.04047251120209694,0.32913514971733093
1761507811385240800,7.70824072265625,0.017545443028211594,-0.0377187617123127,0.3185405433177948
1761507811395211800,7.718211669921875,0.026625223457813263,-0.01443580910563469,0.3108397424221039
1761507811405183700,7.728183837890625,0.04535817727446556,0.010185407474637032,0.30524253845214844
1761507811415156000,7.738156005859375,0.05092977359890938,0.018861986696720123,0.30251598358154297
1761507811425127700,7.748127685546875,0.05020890384912491,0.021444544196128845,0.286236047744751
1761507811435099000,7.758098876953125,0.05143608897924423,0.012194320559501648,0.2664828300476074
1761507811445070800,7.76807080078125,0.05403704568743706,0.018768835812807083,0.254634827375412
1761507811455042800,7.778042724609375,0.05146736279129982,0.015699809417128563,0.23809953033924103
1761507811465014800,7.788014892578125,0.036026157438755035,0.006353760603815317,0.2140946239233017
1761507811474986800,7.79798681640625,0.0102962926030159,-0.000848758383654058,0.1712169349193573
1761507811484957700,7.807957763671875,-0.03243789076805115,-0.002095542149618268,0.10253147035837173
1761507811494929700,7.8179296875,-0.07062415778636932,-0.0036950367502868176,0.006541818380355835
1761507811504902000,7.82790185546875,-0.08983243256807327,0.010491247288882732,-0.0934208557009697
1761507811514873900,7.837873779296875,-0.08829605579376221,0.037309013307094574,-0.1852375864982605
1761507811524844800,7.8478447265625,-0.07246324419975281,0.07497847825288773,-0.2510686218738556
1761507811534816800,7.857816650390625,-0.052718035876750946,0.11497782915830612,-0.29495298862457275
1761507811544788700,7.867788818359375,-0.03231704980134964,0.12249864637851715,-0.3170476257801056
1761507811554760700,7.8777607421875,-0.016783632338047028,0.09904605150222778,-0.3134784400463104
1761507811564732700,7.887732666015625,-0.00900476984679699,0.054346006363630295,-0.28199851512908936
1761507811574703600,7.89770361328125,-0.008778935298323631,0.022092992439866066,-0.20974083244800568
1761507811584675800,7.90767578125,-0.01685396209359169,0.026777906343340874,-0.12139970064163208
1761507811594647800,7.917647705078125,-0.025744926184415817,0.051951438188552856,-0.03777991235256195
1761507811604619800,7.927619873046875,-0.031389981508255005,0.08746638149023056,0.018419958651065826
1761507811614591000,7.937591064453125,-0.036610573530197144,0.12782126665115356,0.045602310448884964
1761507811624562700,7.947562744140625,-0.03861523047089577,0.17018185555934906,0.036488745361566544
1761507811634535000,7.957534912109375,-0.04994112253189087,0.20409347116947174,0.0002753493608906865
1761507811644506600,7.967506591796875,-0.06732798367738724,0.22022278606891632,-0.04929299280047417
1761507811654478800,7.977478759765625,-0.09577453881502151,0.22888286411762238,-0.09344394505023956
1761507811664449800,7.98744970703125,-0.12029507756233215,0.23462176322937012,-0.13216161727905273
1761507811674421500,7.99742138671875,-0.14075268805027008,0.2228519320487976,-0.15791331231594086
1761507811684393700,8.007393798828126,-0.14587348699569702,0.19749139249324799,-0.16465912759304047
1761507811694364700,8.01736474609375,-0.13541284203529358,0.15954694151878357,-0.15354283154010773
1761507811704335600,8.027335693359374,-0.11333021521568298,0.11196461319923401,-0.1237051859498024
1761507811714307600,8.0373076171875,-0.090586818754673,0.0813334733247757,-0.07717816531658173
1761507811724279600,8.047279541015625,-0.0736614540219307,0.06956495344638824,-0.03366590663790703
1761507811734251500,8.05725146484375,-0.07135409116744995,0.07226672768592834,-0.0025412794202566147
1761507811744223500,8.067223388671875,-0.07264277338981628,0.08982278406620026,0.00472653191536665
1761507811754194400,8.0771943359375,-0.0725085511803627,0.11396434158086777,-0.008404450491070747
1761507811764166700,8.087166748046876,-0.07500933110713959,0.14286331832408905,-0.03448108211159706
1761507811774138600,8.097138671875,-0.08401400595903397,0.16840329766273499,-0.0700763612985611
1761507811784110600,8.107110595703125,-0.08738789707422256,0.20154665410518646,-0.10958672314882278
1761507811794081800,8.117081787109376,-0.08736419677734375,0.23914116621017456,-0.13495200872421265
1761507811804053500,8.127053466796875,-0.074440136551857,0.2711096704006195,-0.14147526025772095
1761507811814025700,8.137025634765624,-0.05452635511755943,0.29852449893951416,-0.129010871052742
1761507811823997400,8.14699755859375,-0.02842496894299984,0.3053036034107208,-0.10419825464487076
1761507811833968600,8.15696875,-0.005506071727722883,0.30549561977386475,-0.06675554066896439
1761507811843940600,8.166940673828124,0.013240417465567589,0.29027095437049866,-0.0366920568048954
1761507811853912600,8.17691259765625,0.027300311252474785,0.24553625285625458,-0.006619644351303577
1761507811863884800,8.186884765625,0.042890142649412155,0.17051757872104645,0.02425413392484188
1761507811873856500,8.1968564453125,0.06464310735464096,0.08145242184400558,0.06196822226047516
1761507811883827700,8.20682763671875,0.1035195142030716,0.0000772720668464899,0.1054248958826065
1761507811893799400,8.21679931640625,0.14885610342025757,-0.056857649236917496,0.15279534459114075
1761507811903771600,8.226771728515626,0.2057507038116455,-0.10583304613828659,0.19182315468788147
1761507811913743600,8.23674365234375,0.26501908898353577,-0.16632382571697235,0.23268616199493408
1761507811923714600,8.246714599609374,0.29045552015304565,-0.2618766725063324,0.2453058511018753
1761507811933686500,8.2566865234375,0.26736271381378174,-0.36668455600738525,0.21344564855098724
1761507811943658500,8.266658447265625,0.21856261789798737,-0.43958789110183716,0.13919275999069214
1761507811953630700,8.276630615234374,0.14734357595443726,-0.45678603649139404,0.036209121346473694
1761507811963602400,8.2866025390625,0.07103674113750458,-0.4234401285648346,-0.06760092079639435
1761507811973573600,8.29657373046875,-0.0032875537872314453,-0.3336801528930664,-0.13938510417938232
1761507811983545600,8.306545654296874,-0.0668054148554802,-0.18587534129619598,-0.13982988893985748
1761507811993517600,8.316517578125,-0.1137300431728363,0.01617523282766342,-0.07460056245326996
1761507812003489500,8.326489501953125,-0.13210390508174896,0.22529543936252594,0.037408068776130676
1761507812013460700,8.336460693359374,-0.10262244194746017,0.4114416241645813,0.17308653891086578
1761507812023432400,8.346432373046875,-0.05980503931641579,0.5504387021064758,0.2994674742221832
1761507812033404700,8.35640478515625,-0.022972727194428444,0.6009016036987305,0.39398545026779175
1761507812043376600,8.366376708984374,0.0018086130730807781,0.5706387758255005,0.44605404138565063
1761507812053348600,8.3763486328125,0.020268047228455544,0.4846647381782532,0.4655766189098358
1761507812063319800,8.38631982421875,0.035892780870199203,0.36768338084220886,0.4569893777370453
1761507812073291500,8.39629150390625,0.06936418265104294,0.22599735856056213,0.4365629255771637
1761507812083263700,8.406263671875,0.11584088951349258,0.10399814695119858,0.42655566334724426
1761507812093235500,8.4162353515625,0.1509655863046646,0.01453670859336853,0.41427984833717346
1761507812103206700,8.42620654296875,0.16764716804027557,-0.05021461099386215,0.38655567169189453
1761507812113178400,8.436178466796875,0.19072851538658142,-0.09630860388278961,0.34549078345298767
1761507812123150600,8.446150634765624,0.2076927274465561,-0.14485865831375122,0.28907540440559387
1761507812133122600,8.45612255859375,0.20034745335578918,-0.19315189123153687,0.2105739265680313
1761507812143093500,8.466093505859375,0.17236843705177307,-0.24758277833461761,0.11232617497444153
1761507812153065700,8.476065673828124,0.13559550046920776,-0.30515632033348083,0.014868861995637417
1761507812163037400,8.486037353515625,0.0961560308933258,-0.35171473026275635,-0.0644267275929451
1761507812173009700,8.496009765625,0.05940679833292961,-0.37561526894569397,-0.12457049638032913
1761507812182981400,8.5059814453125,0.03277895599603653,-0.3499836027622223,-0.1464022547006607
1761507812192952600,8.51595263671875,0.016129137948155403,-0.2746720612049103,-0.14502087235450745
1761507812202924500,8.525924560546875,0.0061224596574902534,-0.14625582098960876,-0.12414052337408066
1761507812212896500,8.535896484375,0.0006661750376224518,0.025009673088788986,-0.08847707509994507
1761507812222868700,8.54586865234375,0.01974501460790634,0.213689386844635,-0.040166351944208145
1761507812232839700,8.555839599609374,0.0469268374145031,0.3834376931190491,0.022259211167693138
1761507812242811600,8.565811767578126,0.07766490429639816,0.5039432048797607,0.0943293571472168
1761507812252783600,8.57578369140625,0.10478679835796356,0.5790073275566101,0.15574291348457336
1761507812262755600,8.585755615234374,0.11327020823955536,0.6105069518089294,0.1939712017774582
1761507812272727600,8.5957275390625,0.11312027275562286,0.5878636837005615,0.1892177164554596
1761507812282698800,8.60569873046875,0.1097758337855339,0.5159536004066467,0.14118453860282898
1761507812292670500,8.61567041015625,0.11596209555864334,0.4098309278488159,0.055081337690353394
1761507812302642700,8.625642578125,0.13488629460334778,0.27458539605140686,-0.05121832340955734
1761507812312614700,8.63561474609375,0.18548235297203064,0.1061931699514389,-0.16167505085468292
1761507812322585600,8.645585693359376,0.2591761648654938,-0.07995358854532242,-0.24704919755458832
1761507812332557600,8.6555576171875,0.33722570538520813,-0.2623918354511261,-0.2960715889930725
1761507812342529500,8.665529541015625,0.383073091506958,-0.4030548334121704,-0.311557412147522
1761507812352501500,8.67550146484375,0.39070942997932434,-0.46895474195480347,-0.31336700916290283
1761507812362473500,8.685473388671875,0.36651405692100525,-0.44875088334083557,-0.3290347456932068
1761507812372444700,8.695444580078124,0.3083607256412506,-0.33794766664505005,-0.37695300579071045
1761507812382416400,8.70541650390625,0.22849363088607788,-0.16742955148220062,-0.456897497177124
1761507812392388600,8.715388671875,0.12976890802383423,0.042442452162504196,-0.5187054872512817
1761507812402360600,8.725360595703124,0.03269360214471817,0.25944772362709045,-0.533149003982544
1761507812412331500,8.73533154296875,-0.05256403610110283,0.424384742975235,-0.49204978346824646
1761507812422303700,8.7453037109375,-0.101206474006176,0.512749969959259,-0.40244561433792114
1761507812432275500,8.755275390625,-0.09707005321979523,0.5186105370521545,-0.2849573493003845
1761507812442247700,8.76524755859375,-0.046881694346666336,0.4487552344799042,-0.14692272245883942
1761507812452219400,8.775219482421875,0.01868826150894165,0.3312983810901642,-0.004456124734133482
1761507812462190600,8.785190673828126,0.07170420140028,0.19927996397018433,0.11394599080085754
1761507812472162600,8.79516259765625,0.08951196074485779,0.06439431011676788,0.18707212805747986
1761507812482134500,8.805134521484375,0.08363738656044006,-0.054842591285705566,0.20059548318386078
1761507812492106800,8.815106689453126,0.06033685803413391,-0.12374044209718704,0.16321136057376862
1761507812502077700,8.82507763671875,0.048143692314624786,-0.14517837762832642,0.08485433459281921
1761507812512049700,8.835049560546874,0.05052322521805763,-0.12648670375347137,-0.004113083705306053
1761507812522021600,8.845021728515626,0.058052144944667816,-0.0859895646572113,-0.0853055790066719
1761507812531993600,8.85499365234375,0.06333053112030029,-0.045970238745212555,-0.15344680845737457
1761507812541964500,8.864964599609374,0.055372364819049835,-0.020732037723064423,-0.20253528654575348
1761507812551936500,8.8749365234375,0.05376727879047394,-0.009763275273144245,-0.23172006011009216
1761507812561908500,8.884908447265625,0.0494677908718586,-0.010217590257525444,-0.24107614159584045
1761507812571880700,8.894880615234374,0.04027482494711876,-0.036820705980062485,-0.23469413816928864
1761507812581852700,8.904852783203125,0.026838771998882294,-0.06193947046995163,-0.21734263002872467
1761507812591823600,8.91482373046875,0.008141251280903816,-0.06691478937864304,-0.19592736661434174
1761507812601795600,8.924795654296876,-0.016904480755329132,-0.05980963632464409,-0.18113631010055542
1761507812611767600,8.934767578125,-0.029675139114260674,-0.04015310853719711,-0.15472760796546936
1761507812621739500,8.944739501953125,-0.03743360936641693,-0.004039176274091005,-0.12406555563211441
1761507812631710500,8.95471044921875,-0.03458961844444275,0.01772444322705269,-0.0853852704167366
1761507812641682700,8.9646826171875,-0.02621343359351158,0.019721847027540207,-0.039618637412786484
1761507812651654400,8.974654296875,-0.01915845461189747,0.010459106415510178,-0.0024204044602811337
1761507812661626600,8.984626708984376,-0.014976978302001953,-0.007709159515798092,0.04487518593668938
1761507812671599000,8.99459912109375,-0.0099092498421669,-0.03625718131661415,0.08638694137334824
1761507812681570000,9.004570068359374,-0.009675240144133568,-0.04383944347500801,0.11464934796094894
1761507812691542300,9.014542236328126,-0.01871027983725071,-0.03046504780650139,0.13540735840797424
1761507812701514000,9.024513916015625,-0.0414162278175354,-0.01698523573577404,0.14135392010211945
1761507812711486200,9.034486328125,-0.07340345531702042,-0.00041185179725289345,0.14882540702819824
1761507812721457000,9.044456787109375,-0.11471714079380035,0.009599825367331505,0.15963366627693176
1761507812731429000,9.05442919921875,-0.14372003078460693,0.02592899650335312,0.1768462061882019
1761507812741400800,9.06440087890625,-0.16123966872692108,0.0496770478785038,0.20214661955833435
1761507812751373000,9.074373046875,-0.17094077169895172,0.0764189139008522,0.22904108464717865
1761507812761344000,9.084343994140625,-0.15952488780021667,0.11529789865016937,0.2511082589626312
1761507812771316000,9.09431591796875,-0.13184133172035217,0.11120515316724777,0.25628969073295593
1761507812781288200,9.1042880859375,-0.09808506816625595,0.048303913325071335,0.2354763001203537
1761507812791260000,9.114260009765625,-0.0608639232814312,-0.07205765694379807,0.20252926647663116
1761507812801232100,9.124232177734376,-0.039243750274181366,-0.20012475550174713,0.17054419219493866
1761507812811203000,9.134203125,-0.04559192433953285,-0.314912348985672,0.14315837621688843
1761507812821175000,9.144175048828124,-0.06998346745967865,-0.4389464259147644,0.12311287969350815
1761507812831147000,9.15414697265625,-0.1002122089266777,-0.5366031527519226,0.13420841097831726
1761507812841119000,9.164118896484375,-0.1398349106311798,-0.5624686479568481,0.1598081737756729
1761507812851090000,9.17408984375,-0.19317935407161713,-0.48015326261520386,0.20029860734939575
1761507812861062100,9.184062255859375,-0.25874969363212585,-0.32077038288116455,0.21998335421085358
1761507812871034000,9.1940341796875,-0.3229084312915802,-0.11544042080640793,0.2114042490720749
1761507812881006000,9.204006103515624,-0.37224069237709045,0.08497744053602219,0.16047725081443787
1761507812890978000,9.21397802734375,-0.4202641546726227,0.22201545536518097,0.07326032966375351
1761507812900949000,9.223948974609375,-0.4654470384120941,0.30215173959732056,-0.01688731461763382
1761507812910921200,9.233921142578126,-0.5002148747444153,0.33613795042037964,-0.10162803530693054
1761507812920893000,9.243892822265625,-0.51597660779953,0.33589112758636475,-0.16720321774482727
1761507812930865200,9.253865234375,-0.5200735926628113,0.3133130967617035,-0.2196802794933319
1761507812940835800,9.2638359375,-0.5344318151473999,0.27704495191574097,-0.254639208316803
1761507812950808000,9.27380810546875,-0.5521008372306824,0.23914605379104614,-0.2612973749637604
1761507812960780000,9.283780029296874,-0.5625270009040833,0.1896701157093048,-0.24563632905483246
1761507812970752000,9.293751953125,-0.5628079771995544,0.13136394321918488,-0.21697698533535004
1761507812980723200,9.30372314453125,-0.5486734509468079,0.08130064606666565,-0.1840624362230301
1761507812990695000,9.31369482421875,-0.5265055298805237,0.046975430101156235,-0.14962750673294067
1761507813000667100,9.323667236328125,-0.5086992383003235,0.02433735877275467,-0.11661148816347122
1761507813010638800,9.333638916015625,-0.47209432721138,0.012142478488385677,-0.08568207174539566
1761507813020611000,9.343611083984374,-0.41958048939704895,0.022544676437973976,-0.0614309161901474
1761507813030582000,9.35358203125,-0.3743341863155365,0.042934369295835495,-0.035415295511484146
1761507813040554000,9.363553955078125,-0.34112548828125,0.05296773090958595,-0.0023093249183148146
1761507813050526200,9.373526123046876,-0.31988492608070374,0.06383209675550461,0.043532196432352066
1761507813060498000,9.383497802734375,-0.3078768253326416,0.08615180850028992,0.10368330776691437
1761507813070469000,9.39346923828125,-0.31115198135375977,0.12850166857242584,0.16248618066310883
1761507813080441000,9.403441162109376,-0.33098337054252625,0.1658085286617279,0.21014462411403656
1761507813090413000,9.4134130859375,-0.353341668844223,0.2010919600725174,0.23228001594543457
1761507813100385000,9.423385009765624,-0.37901148200035095,0.2443486452102661,0.22926786541938782
1761507813110357000,9.43335693359375,-0.4065466821193695,0.2721578776836395,0.19725480675697327
1761507813120328000,9.443327880859375,-0.4225345551967621,0.2871783971786499,0.14516675472259521
1761507813130300200,9.453300048828124,-0.43510735034942627,0.28781968355178833,0.07809052616357803
1761507813140272000,9.463272216796875,-0.4331173002719879,0.29540783166885376,-0.0046325139701366425
1761507813150244000,9.473244140625,-0.40521857142448425,0.3277985155582428,-0.09618426859378815
1761507813160215000,9.483215087890626,-0.3400672972202301,0.37261852622032166,-0.18568336963653564
1761507813170187000,9.49318701171875,-0.24953126907348633,0.3935754895210266,-0.2821201682090759
1761507813180159000,9.503158935546875,-0.15521061420440674,0.353074848651886,-0.36825305223464966
1761507813190131000,9.513130859375,-0.10063232481479645,0.2513492703437805,-0.3248315453529358
1761507813200102100,9.52310205078125,-0.0747666209936142,0.06934693455696106,-0.22586598992347717
1761507813210073900,9.533073974609374,-0.04272107407450676,-0.11039859801530838,-0.1229366809129715
1761507813220046000,9.543046142578126,-0.0034850104711949825,-0.29868313670158386,-0.018360411748290062
1761507813230018000,9.55301806640625,0.0340767465531826,-0.4152584969997406,0.09889058768749237
1761507813239990000,9.562989990234374,0.07904002815485,-0.43321293592453003,0.18935152888298035
1761507813249961200,9.572961181640625,0.10933561623096466,-0.38963907957077026,0.2434094399213791
1761507813259933000,9.582932861328125,0.12342530488967896,-0.3084454834461212,0.255738228559494
1761507813269905200,9.5929052734375,0.12547540664672852,-0.19485580921173096,0.21094946563243866
1761507813279876900,9.602876953125,0.10460871458053589,-0.07534094899892807,0.08601882308721542
1761507813289848000,9.61284814453125,0.04001427814364433,0.03545614331960678,-0.08478248119354248
1761507813299820000,9.622820068359376,-0.057155415415763855,0.1787460446357727,-0.1960631012916565
