time,seconds_elapsed,z,y,x
1761508342552379000,0.11637890625,0.03512684296071529,0.0004667407289147377,0.00489901495478116
1761508342562351000,0.12635107421875,0.022104279780387877,0.0021375965505838392,0.007011029539536685
1761508342572321800,0.13632177734375,0.026147417691349983,-0.0027017697719857094,-0.0014803838840220123
1761508342582293000,0.14629296875,0.029737551137804984,0.0015437771095894277,0.00327340478063561
1761508342592265000,0.156264892578125,0.031085458615422248,0.0038274675999768076,-0.0025409075213130563
1761508342602236200,0.166236083984375,0.025998364609479904,0.0009622874272055923,0.002564425394218415
1761508342612206800,0.176206787109375,0.026603344765305518,0.009488215041719376,-0.0008141476607881486
1761508342622179000,0.186178955078125,0.025260113462805746,0.0008319025131873786,0.0022724932429380716
1761508342632150000,0.19614990234375,0.026311083820462225,0.003996522290259599,-0.004968910986371338
1761508342642121000,0.206120849609375,0.03544248478114605,-0.004438128577917814,-0.0025377565830014643
1761508342652093000,0.216093017578125,0.019282792618870732,-0.001032156059332192,-0.0018227949803695082
1761508342662064000,0.226064208984375,0.02916004351079464,-0.0052370056043379,-0.0015798439368139951
1761508342672035800,0.236035888671875,0.013898761492967605,-0.0013660641888156532,0.001795121522154659
1761508342682007000,0.246007080078125,0.022277298259735106,0.005564666656125337,0.004476314296992495
1761508342691978000,0.25597802734375,0.02497252869307995,0.005941829405445605,0.003855040593491867
1761508342701950000,0.265949951171875,0.0288654444783926,0.00005112739903852343,0.004817437618551776
1761508342711921000,0.2759208984375,0.026603344765305518,-0.0017018172155134378,0.010946396227087825
1761508342721891800,0.285891845703125,0.023839725270867345,0.005220091002155095,0.01196942826504819
1761508342731864000,0.295864013671875,0.024895371803641316,0.004920961925107986,0.009320877384487539
1761508342741834800,0.305834716796875,0.015899579921364784,0.002319273260422051,0.01187562163490802
1761508342751806000,0.315805908203125,0.0235498024135828,-0.0039943668657913805,0.0006989603159017861
1761508342761778000,0.32577783203125,0.01820201164484024,-0.00024102394795045255,0.0030919929322786627
1761508342771749000,0.3357490234375,0.024962591820955275,-0.0019341281340457498,0.0010173877484630793
1761508342781719800,0.3457197265625,0.017935469663143157,0.0025937976191751657,0.0005731693786103278
1761508342791692000,0.355692138671875,0.024680267748236655,-0.0031335853179916737,-0.01511033837297
1761508342801663000,0.3656630859375,0.009136077135801314,0.000680840137321502,-0.0019152590367943047
1761508342811635000,0.375635009765625,0.023362170886993407,0.0033840712140314278,-0.0014783380574081091
1761508342821606000,0.38560595703125,0.02292319494783878,0.00613514175415039,-0.0008279843898955732
1761508342831577000,0.3955771484375,0.02170855846107006,0.00765497173257172,0.001580720719648525
1761508342841548800,0.405548828125,0.023349895927309988,-0.0002545044840313494,-0.0011894746460486202
1761508342851520000,0.41552001953125,0.020201076507568357,0.0011061346109956503,-0.010570457320474088
1761508342861491000,0.425490966796875,0.02663549346923828,-0.0002868541173636913,0.0007586089481133967
1761508342871463200,0.435463134765625,0.021379472637176513,-0.007645418452937156,-0.0005969429798424244
1761508342881433900,0.445433837890625,0.016290040543675423,0.007071527555119246,-0.0015935710680671036
1761508342891405000,0.455405029296875,0.022280805391073227,0.003192987355031073,0.001465442043216899
1761508342901377000,0.465376953125,0.020042086553573608,-0.00580623859334737,0.003305653949268162
1761508342911348200,0.47534814453125,0.013466215294599532,0.007884086047019808,0.0041277017887216055
1761508342921320000,0.48531982421875,0.015110475370287894,-0.0018793292068876326,0.0001930748866870999
1761508342931291100,0.495291015625,0.021838906842470168,-0.0031917269797064364,0.0019855569271836427
1761508342941262000,0.505261962890625,0.025877953100204465,-0.0023473120448179543,0.00014717165203765033
1761508342951234000,0.515234130859375,0.016892098090052602,0.0005289009786210954,-0.014017428569728508
1761508342961205000,0.525205078125,0.022282558956742287,-0.00942039223620668,-0.006629437210271135
1761508342971176000,0.535176025390625,0.015252514189481734,0.0019234606095589696,-0.00006465360089205205
1761508342981148000,0.54514794921875,0.012553192102909087,0.0029570231746882196,-0.000973484674654901
1761508342991118800,0.555118896484375,0.01585223364830017,0.0036703590758144855,0.00008376929331570863
1761508343001091000,0.565091064453125,0.018396072912216184,0.002675722015276551,-0.0051550994745455676
1761508343011062000,0.57506201171875,0.023634558087587354,0.00034749826341867447,-0.0000830203746445477
1761508343021033000,0.585032958984375,0.01854629503786564,0.006218819715920835,0.002593751953402534
1761508343031005000,0.5950048828125,0.022283143478631973,-0.0008454378481954336,0.00060211234530434
1761508343040976100,0.60497607421875,0.013293196815252303,0.003134005443099886,0.006093202308565378
1761508343050947000,0.614947021484375,0.023320085310935972,0.006212901431787759,-0.0024606362261809407
1761508343060919000,0.6249189453125,0.02796118911504745,0.00017831570897251366,0.008541517909290268
1761508343070890000,0.634889892578125,0.02436813305914402,0.001670965419523418,-0.0012123623312916606
1761508343080861200,0.644861083984375,0.014495558342337608,-0.003640018736477941,-0.000968388374429196
1761508343090833000,0.6548330078125,0.023172201272845267,-0.0036244741074740886,0.004688212615158408
1761508343100804000,0.66480419921875,0.022727964636683463,0.0006518515048548578,0.0031850597769021985
1761508343110776000,0.674776123046875,0.02182955449223518,0.0004932451433502138,-0.0004870163319632411
1761508343120747000,0.6847470703125,0.016444938844442366,-0.0005480075378902256,0.007306267892755567
1761508343130718000,0.694718017578125,0.026321605214476584,-0.001971135676186532,0.006511427720636129
1761508343140690200,0.704690185546875,0.019589082089066505,-0.0005733429085463285,0.0027484310584608464
1761508343150660900,0.714660888671875,0.013753800064325332,-0.00342708837185055,0.0013887966104317456
1761508343160631800,0.7246318359375,0.014347089782357216,-0.0002782506857998669,0.002265369382407516
1761508343170604000,0.73460400390625,0.014491466689109802,0.004022095122933387,0.005709089228650555
1761508343180575000,0.744574951171875,0.030805472630262374,0.00028941140063107015,0.0044054958167951555
1761508343190546000,0.7545458984375,0.02886018378138542,0.003174300920870155,-0.006759018406691029
1761508343200518100,0.76451806640625,0.024223756152391432,0.00040288171246647835,-0.0061067376435734325
1761508343210489000,0.774489013671875,0.015991934379935263,-0.003303041867073625,0.0021236593567766247
1761508343220461000,0.7844609375,0.02511749012172222,0.005861640308704227,0.00417336756135337
1761508343230432000,0.794431884765625,0.027810382467508315,0.0065147704551927746,0.00024307890771888194
1761508343240403200,0.8044033203125,0.015389292311668395,-0.00031273747729137537,0.005636307120230048
1761508343250375000,0.814375,0.01359656367599964,-0.0015796886731870472,-0.0028381460353732106
1761508343260346000,0.82434619140625,0.014341244563460349,0.0029197599042207,-0.0026775486461818217
1761508343270317000,0.834317138671875,0.02107376768887043,0.000303202463965863,-0.00594489814536646
1761508343280289300,0.844289306640625,0.019274024790525434,0.0021064159610308707,-0.0010495912513229996
1761508343290260000,0.854260009765625,0.018973580539226532,0.005249518026039004,0.0010746343610342592
1761508343300232200,0.864232177734375,0.02211363213062286,0.006989931952580809,0.0005094930252525956
1761508343310203100,0.874203125,0.02001929019987583,0.002286229507345706,0.002518595224805176
1761508343320174300,0.88417431640625,0.012834931653738021,-0.003843834212888032,0.007489625103026628
1761508343330146000,0.89414599609375,0.021959318351745603,0.006096471977885812,0.0008875782231800258
1761508343340117200,0.9041171875,0.005198737686872482,0.0069030573867261405,-0.003009803674696013
1761508343350088200,0.914088134765625,0.021955811220407486,0.002607826144527644,-0.0004907700584735721
1761508343360060200,0.92406005859375,0.02120528511404991,0.0020470321903005243,0.011882224905630573
1761508343370031000,0.934031005859375,0.01537117213308811,-0.000710011432878673,0.00452596212499775
1761508343380003300,0.94400341796875,0.023303718698024747,0.010496387437265366,-0.00030250834422186016
1761508343389974000,0.95397412109375,0.016718495088815687,-0.002628229611739516,0.002989354541711509
1761508343399945000,0.963945068359375,0.016419804403185842,0.005466485244967043,0.005051109377108514
1761508343409917200,0.973917236328125,0.012380758145451545,-0.0021214308670721945,0.007970659218775107
1761508343419888000,0.98388818359375,0.017173837640881536,-0.009680084352008999,-0.0037266923729330297
1761508343429859000,0.993859130859375,0.013584288716316222,0.002696764803305268,0.004293486809683963
1761508343439831000,1.0038310546875,0.018825111979246138,-0.005748955448158085,0.00027397636948153374
1761508343449802200,1.01380224609375,0.013588964891433715,-0.002769336849171668,-0.005634891481278464
1761508343459773200,1.023773193359375,0.013141805645823477,0.0034220286042429505,-0.003946673532854765
1761508343469745200,1.0337451171875,0.020326164191961288,-0.006035608636122196,-0.0023908223929814993
1761508343479716000,1.043716064453125,0.01928162357509136,-0.0011966807049699126,-0.0036582576460670677
1761508343489688000,1.05368798828125,0.0189835174113512,0.004502864377200603,-0.007925943294214085
1761508343499659000,1.063658935546875,0.01778232492804527,0.007427318722847849,-0.0030645295366179197
1761508343509630200,1.073630126953125,0.008503039929270744,-0.0024071524732746184,0.0005864763847552239
1761508343519602200,1.083602294921875,0.023914544072747228,-0.00392597780469805,-0.005134138884907588
1761508343529573000,1.093572998046875,0.024512509965896604,0.0016073986640200019,-0.0035950744830537586
1761508343539544000,1.1035439453125,0.02107318316698074,0.0022306451288983224,0.004530108577152714
1761508343549516300,1.113516357421875,0.019727613776922226,0.0003515168514102697,0.005609711374249309
1761508343559487200,1.1234873046875,0.019279285487532615,0.0015458960014395416,-0.002795037546008825
1761508343569459200,1.133459228515625,0.014641104292869567,0.0006599617460742593,-0.003853460557758808
1761508343579430100,1.14343017578125,0.029455227065086364,0.005077577258925885,0.0038649500661529597
1761508343589401000,1.153401123046875,0.01449322025477886,0.0030496881605125963,-0.004962636509211734
1761508343599373000,1.163373046875,0.031099487140774724,-0.003786277073062956,0.00032326800446026027
1761508343609344000,1.173343994140625,0.024062428110837936,-0.0021424188561737535,0.0008403050153516233
1761508343619315200,1.183315185546875,0.012087912678718567,-0.0011211312507279218,-0.00044759763702750203
1761508343629287000,1.193286865234375,0.018973580539226532,-0.007036328377574682,-0.0008139193319249897
1761508343639258000,1.203258056640625,0.02001812115609646,-0.004284052261058241,0.005695398630015552
1761508343649230000,1.21322998046875,0.018521160596609115,0.004456906343623996,-0.004905508627649396
1761508343659201000,1.223200927734375,0.01897007340788841,-0.004019903165847063,-0.001491069674817845
1761508343669172000,1.233171875,0.026299393382668495,-0.00019976035580039023,0.003381641794927418
1761508343679144200,1.243144287109375,0.01597030707001686,-0.003890157572645694,0.00474735892387107
1761508343689115100,1.253115234375,0.014022095611691474,-0.004542136941663921,0.002545273169176653
1761508343699086000,1.263086181640625,0.0002513444125652313,-0.004566011007595807,0.004610535135911777
1761508343709058000,1.27305810546875,0.006529109507799148,-0.0006806392079219222,0.010119197288481518
1761508343719029200,1.283029296875,0.008476736444234847,0.0013176219372078777,-0.0004071194961667061
1761508343729000200,1.293000244140625,0.026435586982965466,0.0007188705927692353,0.0005063512200955302
1761508343738972200,1.30297216796875,0.030473464196920392,0.008365147562231869,0.0016353095842525363
1761508343748943000,1.312943115234375,0.018352233770489692,0.0013184439211152493,0.006474082251777872
1761508343758915000,1.3229150390625,0.01341360832452774,-0.001823726562131196,-0.0014312840452883392
1761508343768886000,1.332885986328125,0.0195458274692297,-0.0019887261318042872,0.002611844732519239
1761508343778857200,1.342857177734375,0.02343523612320423,0.0023303974426351487,0.004613457745360211
1761508343788829200,1.3528291015625,0.017148118677735327,0.0018403306370601057,0.0026697489322163163
1761508343798800100,1.362800048828125,0.027622166419029235,-0.0019382380535826085,0.005745119523257017
1761508343808771000,1.37277099609375,0.017297171759605406,0.002973882977943867,0.0016124036327004431
1761508343818743300,1.382743408203125,0.027176760739088056,0.00016929215230047703,-0.004328850384010002
1761508343828714200,1.39271435546875,0.0213408941924572,0.00947095337966457,0.0011715553968679158
1761508343838686200,1.402686279296875,0.019541151294112203,-0.0030018121644854543,-0.002098808043310419
1761508343848657200,1.4126572265625,0.027176760739088056,0.0010973667826503514,0.0013790424013976007
1761508343858628000,1.422628173828125,0.017752514311671255,0.0007708199757151305,0.0030456878388300536
1761508343868600000,1.43260009765625,0.0192494748711586,-0.0029900121288374062,0.0010635923772118986
1761508343878571000,1.442571044921875,0.017303016978502273,-0.0018564963205717504,0.0025167503275908528
1761508343888542200,1.452542236328125,0.026280688682198523,0.004701181694585829,-0.0029159422456286844
1761508343898514000,1.462513916015625,0.02313888352513313,0.00382565923538059,0.00154166735089384
1761508343908485000,1.472485107421875,0.017456746235489845,0.001053692037705332,0.0006455861608497798
1761508343918456000,1.4824560546875,0.01416296538710594,-0.004780293079093098,-0.001205695128487423
1761508343928428300,1.49242822265625,0.01880290014743805,0.0012984605790115893,0.006575277603929862
1761508343938399000,1.50239892578125,0.020450082832574844,0.010057977753691374,0.0056944579150993374
1761508343948371200,1.51237109375,0.012222352713346481,0.0004698094688355922,0.0019875114222522826
1761508343958342100,1.522342041015625,0.011775193467736244,0.0005731419791467487,0.008194969493942335
1761508343968313300,1.532313232421875,0.012370821273326874,-0.0017706446680240333,-0.00035794659219682217
1761508343978285000,1.54228515625,0.02194996600151062,0.000027235066797584295,0.00556242903326638
1761508343988256300,1.55225634765625,0.02060322756767273,0.0019519743179902433,-0.0010038615466095506
1761508343998227200,1.562227294921875,0.03302490224540233,0.00015506269754841923,-0.0017168686541728674
1761508344008199200,1.57219921875,0.020307459491491316,0.0019479191973805427,0.006367827132018283
1761508344018170000,1.582170166015625,0.017321137157082556,0.010085066690016537,0.004505704788258299
1761508344028142300,1.592142333984375,0.012830255478620529,0.00021572510991245506,0.0008661883752793074
1761508344038113000,1.602113037109375,0.01791793400645256,0.001918035515770316,0.00393917521298863
1761508344048084000,1.612083984375,0.01118365731537342,0.0012178513571619986,0.00523575436216779
1761508344058056200,1.62205615234375,0.02539806062877178,-0.006702876905817538,-0.0005332118275575339
1761508344068027100,1.632027099609375,0.017017185774445533,0.010396269797347485,0.009828470713598653
1761508344077998000,1.641998046875,0.015818915900588034,0.00573123712837696,0.0026138266270514577
1761508344087970000,1.651969970703125,0.021355507239699364,-0.0026126119174994526,-0.0022260602853260932
1761508344097941200,1.661941162109375,0.02046411135792732,-0.0013750329465605318,0.004294774584472179
1761508344107913000,1.671912841796875,0.018519407030940054,-0.0008009593856520951,0.00023731588721275328
1761508344117884200,1.68188427734375,0.021214637464284897,0.00573494518911466,-0.002802170539693907
1761508344127855000,1.691855224609375,0.01628185723721981,-0.0044227300793863835,-0.0011740852806717157
1761508344137827000,1.7018271484375,0.016881576696038247,-0.0029337518969550728,-0.0042414643615018574
1761508344147798000,1.711798095703125,0.016882161217927932,0.0011149755045771598,0.0027163919523824007
1761508344157769200,1.721769287109375,0.025712533405423163,0.007139459958486258,-0.0014046335003804415
1761508344167741200,1.7317412109375,0.01927636287808418,-0.003999317035544663,0.005468211411172524
1761508344177712000,1.741712158203125,0.022118308305740356,0.002966886981576681,0.0018342388229910284
1761508344187684400,1.751684326171875,0.010446575212478637,0.002510905108693987,0.0016832312460523097
1761508344197655600,1.761655517578125,0.01792787087857723,-0.001069638525508344,0.00114106892705895
1761508344207626200,1.771626220703125,0.02645020003020763,0.008183653515484184,0.0007684636218473315
1761508344217598500,1.781598388671875,0.014179332000017164,0.00369806906664744,0.0015381876190192997
1761508344227569400,1.7915693359375,0.012387772408127783,0.003920552710909396,0.002286028577946126
1761508344237540600,1.80154052734375,0.02181494144499302,-0.005595518452115356,-0.0021008538699243216
1761508344247512300,1.81151220703125,0.021517419803142545,0.0008709558819420635,-0.0038457613084930922
1761508344257483500,1.8214833984375,0.021516250759363174,0.005606167710293084,0.0030049357033334672
1761508344267455200,1.831455322265625,0.01059153664112091,-0.003435015949979424,0.011015552473161369
1761508344277426400,1.841426513671875,0.010587444987893104,-0.002654752292484045,0.003715102399839088
1761508344287397400,1.8513974609375,0.011935352465510368,0.0054285278547555205,0.006633327934099361
1761508344297369600,1.86136962890625,0.018669629156589505,0.009705090929102152,0.002012043075310066
1761508344307340300,1.87134033203125,0.015074819535017013,0.0020364194647409023,-0.0032850221531931308
1761508344317311200,1.881311279296875,0.01985971572399139,-0.0018052045247517526,0.007676946102362125
1761508344327283500,1.891283447265625,0.020907178950309753,0.010521978536248207,0.008394583719270304
1761508344337254400,1.90125439453125,0.011783376774191856,0.002081683378573507,-0.0011474256026092916
1761508344347225300,1.911225341796875,0.008045359289646148,-0.0027856669294647873,-0.0027401564204599708
1761508344357197300,1.921197265625,0.019570377388596533,0.0004070464309304952,0.0025818788525182753
1761508344367168500,1.93116845703125,0.01628010367155075,0.0073859637991525225,0.005709281024895608
1761508344377140200,1.94114013671875,0.026304069557785987,-0.004461107594706117,0.0067340209627524015
1761508344387111400,1.951111328125,0.014184008175134658,-0.0025040552427992224,-0.003778915750514716
1761508344397082400,1.961082275390625,0.018375614646077156,0.004850819298345595,0.004728517226083204
1761508344407054300,1.971054443359375,0.012841361394524574,0.0031702092676423486,0.00506501917145215
1761508344417025300,1.981025390625,0.01793137800991535,-0.0028203363840468227,-0.0018949103685095905
1761508344426996500,1.99099658203125,0.024516017097234725,-0.0006730404233559966,0.0034488435459323224
1761508344436968400,2.000968505859375,0.014192191481590271,0.0006900646233931184,0.006610796441882848
1761508344446939400,2.010939453125,0.018085107266902923,-0.0036722222393378613,0.006043143488606437
1761508344456911400,2.020911376953125,0.024072364982962606,-0.0032749117511324585,0.00601173457019031
1761508344466882600,2.030882568359375,0.016741291442513465,-0.004517824484314769,0.0010481299465987832
1761508344476853200,2.040853271484375,0.01405190622806549,-0.009923829980008304,-0.004375173743767663
1761508344486825500,2.050825439453125,0.018097382226586342,0.0017276640428230165,0.0026932302725035696
1761508344496796400,2.06079638671875,0.020191139635443688,-0.0005452310589142143,0.002069709812989458
1761508344506767400,2.070767333984375,0.01734451803267002,-0.0029890257481485602,0.008009831318538635
1761508344516739300,2.0807392578125,0.0215326173722744,0.0007914243723265826,0.008345894872490316
1761508344526710300,2.090710205078125,0.01390460671186447,-0.0024304054846987127,0.0068807268239092076
1761508344536682200,2.10068212890625,0.02393149520754814,-0.007758030248247087,0.001240346316760406
1761508344546653200,2.110653076171875,0.030665187376737593,-0.00928038097731769,-0.00035664968425408005
1761508344556624400,2.120624267578125,0.011813771912455558,-0.004627422338631003,0.0038310203970875587
1761508344566596400,2.130596435546875,0.01674889022707939,0.0013998568605631588,0.003168811894999817
1761508344576567300,2.1405673828125,0.022585925817489624,0.007145743568800389,-0.0011400277474429457
1761508344586538200,2.150538330078125,0.015109306326508521,-0.001699570459499955,0.005178991806786507
1761508344596510500,2.160510498046875,0.014512509477138518,-0.0015317030793055891,-0.00260327783357352
1761508344606481400,2.1704814453125,0.02334288166463375,0.0010863704646006226,-0.007713643117249012
1761508344616453400,2.180453369140625,0.02139350116252899,0.0005102693433873355,-0.00035929829906672237
1761508344626424300,2.19042431640625,0.010765724164247512,0.004304747989214957,0.0014499613462947308
1761508344636395500,2.2003955078125,0.02453355275392532,0.0026387510057538748,0.0000839884890243411
1761508344646367200,2.2103671875,0.018692425510287283,0.006573021714761853,-0.006864122748980298
1761508344656338400,2.22033837890625,0.00911444982588291,0.00041729383030906315,0.002371350507531315
1761508344666309400,2.230309326171875,0.00940904885828495,0.0011479644587263464,-0.006472511349199339
1761508344676281300,2.24028125,0.021378303593397138,-0.000680529610067606,-0.003317116058198735
1761508344686252300,2.250252197265625,0.0260159002661705,-0.0028303280550986526,-0.0007901000649202615
1761508344696223200,2.26022314453125,0.01239887832403183,-0.0021117679895833134,0.004504088219907135
1761508344706195500,2.270195556640625,0.02810907315313816,-0.008495368079468607,-0.003508820971706882
1761508344716166100,2.280166259765625,0.017785832059383392,0.0020209479009732603,-0.007530130643351003
1761508344726138400,2.290138427734375,0.021379472637176513,-0.0071925966515205796,0.005453306102985516
1761508344736109300,2.300109375,0.01868482672572136,-0.005650774036999791,-0.0011007003840524702
1761508344746080500,2.31008056640625,0.020778584134578705,-0.00443445704979822,0.0038787137300241737
1761508344756052200,2.32005224609375,0.01718728164434433,-0.00414815092170611,0.013003328756894916
1761508344766023400,2.3300234375,0.019880173990130423,0.0018473083671182392,0.005258897775737568
1761508344775994400,2.339994384765625,0.015388123267889022,0.0034240561645478007,0.005067183729074895
1761508344785966300,2.34996630859375,0.02301905653774738,0.0034642237781547006,0.00009545973110944032
1761508344795937300,2.359937255859375,0.019129063361883164,0.0014668211495503783,0.002978586552524939
1761508344805909500,2.369909423828125,0.02675999663174152,-0.0019118615033105015,0.00457008439451456
1761508344815880200,2.379880126953125,0.028701778349280355,-0.00033009047089144585,-0.008336478590173646
1761508344825851400,2.389851318359375,0.016582301488518712,0.001447093535773456,0.0003121894880197942
1761508344835823400,2.3998232421875,0.020472879186272618,-0.007626640687230974,0.00021559724574908614
1761508344845794600,2.409794677734375,0.026159108129143713,-0.005858242775220424,0.0030824305194895713
1761508344855765200,2.41976513671875,0.01478606572151184,0.0037511144281364974,0.007566215736884623
1761508344865737500,2.429737548828125,0.010147300004959106,0.003338624637108296,-0.0037617819526232776
1761508344875708400,2.43970849609375,0.020323826104402542,0.001370356771443039,0.005462932447856292
1761508344885680400,2.449680419921875,0.021076105776429176,-0.0021634616442024707,-0.002180093118594959
1761508344895651300,2.4596513671875,0.021675825235247612,-0.0007421236041933297,0.006689368970273062
1761508344905622500,2.46962255859375,0.02018003371953964,-0.001590758056472987,0.002889163836557418
1761508344915594200,2.47959423828125,0.014641104292869567,-0.0015368724447675048,0.0034189324648585167
1761508344925565400,2.4895654296875,0.010749942073225974,-0.0019877580174244938,0.01213683898751624
1761508344935536400,2.499536376953125,0.014943886631727217,-0.005795863329805433,0.0016896975194569677
1761508344945508600,2.509508544921875,0.008809329399466515,0.0045513796940445895,0.003614062311314046
1761508344955479300,2.519479248046875,0.024970775127410888,0.002453293169941753,-0.004334905665460974
1761508344965450200,2.5294501953125,0.01793663870692253,0.000017060732655227183,0.008751388667151331
1761508344975422500,2.53942236328125,0.02422024902105331,0.003429499524645507,-0.004632947897119447
1761508344985393400,2.549393310546875,0.02002981159389019,-0.004311597855109721,0.0017746723891701548
1761508344995365400,2.559365478515625,0.009404957205057143,-0.0013626301227137446,0.0022529300259426237
1761508345005336300,2.56933642578125,0.02092646817266941,-0.0012866970759816466,0.004287897319113836
1761508345015307500,2.5793076171875,0.01987549781501293,-0.001969290778972208,0.0033038547178264707
1761508345025279200,2.589279296875,0.011499299135804176,0.0032620522695593532,-0.003565072070434689
1761508345035250400,2.59925048828125,0.011798574343323707,-0.0034070319645106793,0.004158991976128891
1761508345045221400,2.609221435546875,0.01972819829881191,-0.00027236893428489564,0.0006604092706460505
1761508345055193300,2.619193359375,0.0071615621924400324,-0.0069697294147685164,0.013184530542697756
1761508345065164300,2.629164306640625,0.012998597782850264,-0.007414806301146745,0.008322806257847697
1761508345075136500,2.639136474609375,0.016889760002493856,-0.0009740143976174295,0.0058988670465536415
1761508345085107200,2.649107177734375,0.021827216404676435,0.0014564824186265467,-0.0026379016223829236
1761508345095078400,2.659078369140625,0.02153203285038471,0.0019543672044761476,-0.0030740554167889055
1761508345105050400,2.66905029296875,0.02093640504479408,-0.000790036132838577,0.0009693747551180422
1761508345115021600,2.679021484375,0.02198386827111244,-0.0006113185650669038,-0.00012423830102197824
1761508345124992300,2.6889921875,0.01719604947268963,0.0033034802584908903,0.0044286209640558806
1761508345134964500,2.698964599609375,0.01974222682416439,-0.0043232700265944,-0.004710844572074711
1761508345144935400,2.708935302734375,0.016900865918397904,-0.0016699242399074135,0.004801911255856975
1761508345154907400,2.718907470703125,0.013908698365092276,0.0014622180396690963,0.006564975405624136
1761508345164878300,2.72887841796875,0.01959317374229431,-0.0055191287476569414,0.0037698556612245737
1761508345174849300,2.738849365234375,0.027519290566444397,-0.0030056480893865226,0.00505668060136959
1761508345184821200,2.7488212890625,0.019139000234007834,0.007147752862796187,0.00006412387792952359
1761508345194792400,2.75879248046875,0.022730887246131894,0.0034534466558136046,0.000022832886315882206
1761508345204763400,2.768763427734375,0.016742460486292837,-0.004748400103487074,-0.001457213070988655
1761508345214735600,2.778735595703125,0.01598901177048683,0.004471409793011844,0.0014576057966332883
1761508345224706300,2.788706298828125,0.015392214921116828,-0.0006406542574055493,0.000842058581020683
1761508345234678500,2.798678466796875,0.026018822875618932,0.0020066088483668863,0.003571173017658293
1761508345244649500,2.8086494140625,0.020030980637669563,-0.0011211312507279218,0.0026067575654480607
1761508345254620700,2.81862060546875,0.01673895335495472,0.006390650885179638,-0.0099965390231926
1761508345264592400,2.82859228515625,0.02092822173833847,-0.005001516348030418,0.0007017002622596919
1761508345274563600,2.8385634765625,0.013145897299051284,-0.008676387202180922,0.004855924731725827
1761508345284534500,2.848534423828125,0.019578560695052146,0.0011334244767203926,0.0009745715200435369
1761508345294506500,2.858506591796875,0.016435586494207382,-0.006043134355451911,0.003996549689723178
1761508345304477400,2.8684775390625,0.020025135418772697,0.0012507672460749745,0.011576008500671014
1761508345314449700,2.87844970703125,0.008354571369290352,0.007146711683180183,-0.005726606619032099
1761508345324420400,2.88842041015625,0.025562311279773712,-0.0004456614082679152,-0.009785663618333638
1761508345334391600,2.8983916015625,0.016284195324778556,-0.004975158064067364,0.0027279636591672897
1761508345344363500,2.908363525390625,0.017782909449934957,0.0025640052691102027,0.004218110885377973
1761508345354334700,2.918334716796875,0.021671733582019806,0.00563712910413742,-0.001927223469223827
1761508345364305400,2.928305419921875,0.016581716966629027,0.001997493960149586,-0.01028474484742619
1761508345374277600,2.938277587890625,0.027951836764812468,-0.006988708109874278,0.001955280519928783
1761508345384248600,2.94824853515625,0.011343231791257858,-0.006021433980297297,0.007795056056696921
1761508345394219500,2.958219482421875,0.006702712509036064,-0.003977050404809415,0.0006022219431586563
1761508345404191500,2.96819140625,0.011637830823659896,-0.0007430917185731232,0.007565777345467359
1761508345414162400,2.978162353515625,0.01702244647145271,-0.004994081960245967,0.008781847737496719
1761508345424134400,2.988134521484375,0.013131284251809119,0.0018384857398457825,0.008678825754439458
1761508345434105300,2.998105224609375,0.007744330516457557,0.007422222422622144,-0.0013327647074125705
1761508345444076500,3.00807666015625,0.021361352458596227,0.004106832530628889,0.003046783817373216
1761508345454048500,3.018048583984375,0.018068156132102012,-0.0035146570574492216,-0.00017397746057249604
1761508345464019500,3.02801953125,0.01672375578582287,-0.0011555997759103774,0.006573505771951749
1761508345473990400,3.037990478515625,0.02270925993621349,0.0006296579393558204,0.005686576002743094
1761508345483962600,3.047962646484375,0.021512743628025053,0.004767999853100628,0.006018255642522126
1761508345493933300,3.057933349609375,0.016122867283225057,0.0014508381291292608,0.00022511399276554583
1761508345503905500,3.067905517578125,0.020016952112317084,-0.005145418330747634,0.006958230773219838
1761508345513876500,3.07787646484375,0.010291092389822006,-0.003092961046658456,0.0036826797012705355
1761508345523847700,3.08784765625,0.017920272094011307,0.004815163463074714,0.009040617404691875
1761508345533819400,3.0978193359375,0.01343231302499771,-0.0009256086786277592,0.009503558741323649
1761508345543790600,3.10779052734375,0.01717033050954342,-0.00585342046963051,0.001677312961919233
1761508345553761500,3.117761474609375,0.015225041660666464,-0.0009034151131287216,0.0018041176793631166
1761508345563733500,3.1277333984375,0.013279168289899826,-0.0017544241855852304,0.0076287595790810875
1761508345573704400,3.137704345703125,0.01687222434580326,-0.004240487113967538,-0.0005980024257674813
1761508345583676700,3.1476767578125,0.013877134183049202,0.0003562295591458678,-0.0006100855892058461
1761508345593647400,3.1576474609375,0.01672375578582287,0.001583305402379483,0.0030888602602761237
1761508345603618300,3.167618408203125,0.021660043144226072,0.000559223051648587,-0.0019227664898149668
1761508345613590500,3.177590576171875,0.021812018835544584,-0.0016607545527629554,-0.0066963832329493015
1761508345623561500,3.1875615234375,0.012532733836770057,0.001566664794832468,0.002446945627545938
1761508345633532400,3.197532470703125,0.016720833176374433,-0.0000016074351966381072,0.00020394334057345986
1761508345643504400,3.20750439453125,0.02300561253428459,0.0014931976998224853,0.003950728653464466
1761508345653475600,3.2174755859375,0.012381342667341231,-0.003955788421072065,-0.0038842392885126173
1761508345663447300,3.227447265625,0.010580430725216866,0.002128664325457066,0.0019929730486590415
1761508345673418500,3.23741845703125,0.017163316246867177,0.0061165649178437885,0.0038692883145529777
1761508345683389400,3.247389404296875,0.012524550530314444,0.008127046223729848,0.005897360076056793
1761508345693361400,3.257361328125,0.011623802298307418,-0.00373135028174147,-0.002912846106244251
1761508345703332400,3.267332275390625,0.017011340555548666,-0.0035233335542492568,0.012844631063845008
1761508345713303600,3.277303466796875,0.023293781825900077,0.004026405971869826,0.005857594321249052
1761508345723275500,3.287275634765625,0.017460253366827962,0.0011101897316053509,0.008971022767201065
1761508345733246500,3.29724658203125,0.030627777975797653,0.00126991033796221,-0.0007562891268637031
1761508345743218400,3.307218505859375,0.023147066831588743,-0.0010000621543265879,0.007148410449922084
1761508345753189600,3.317189697265625,0.010582184290885924,-0.0008668824950233101,0.0019862967127002775
1761508345763160600,3.32716064453125,0.02165536696910858,0.001838577071391046,0.00030186902340501547
1761508345773132500,3.337132568359375,0.014924012887477875,-0.0031735154695808885,0.004299898284161463
1761508345783103500,3.347103515625,0.01567453899383545,0.005751238736789673,0.006603836978133768
1761508345793074700,3.35707470703125,0.018365677773952482,0.003815028243511915,0.008784140159282833
1761508345803046400,3.36704638671875,0.02509995446503162,0.0025578677892684936,-0.002252866093860939
1761508345813017600,3.377017578125,0.01626958227753639,0.001046604709792882,0.004278919428214431
1761508345822989600,3.386989501953125,0.01956394764780998,0.0000855959242209792,0.00032010793299414215
1761508345832960500,3.39696044921875,0.02480243282318115,0.000871357740741223,-0.002169653922971338
1761508345842931500,3.406931396484375,0.016722586742043494,-0.007122910682484507,0.0022403628053143617
1761508345852903700,3.416903564453125,0.0045984337061643595,-0.008391049188468605,0.011188844947144389
1761508345862874600,3.42687451171875,0.012383096233010291,0.00006513765808194875,-0.0007618055521976203
1761508345872845300,3.43684521484375,0.015075404056906699,0.0018909283131361007,-0.002674580370960757
1761508345882817500,3.446817626953125,0.014623568636178969,0.005191833022050559,0.007918362775957212
1761508345892788500,3.45678857421875,0.023750877943634986,-0.003570241435896605,-0.0009669910017866641
1761508345902760400,3.466760498046875,0.016719664132595062,0.0029000140241347253,0.0038147907814942298
1761508345912731400,3.4767314453125,0.027341595911979672,0.007173398760706186,-0.0026022549202665687
1761508345922702600,3.48670263671875,0.0182125330388546,-0.002484473759494722,-0.008732702232990414
1761508345932674300,3.49667431640625,0.022701661151647567,0.004743559531588107,0.011684190716035664
1761508345942645500,3.5066455078125,0.014773206239938734,0.00029901947919279333,-0.0028524850879795846
1761508345952616400,3.516616455078125,0.012977554994821547,-0.010698723342642187,-0.002183600249933079
1761508345962588700,3.526588623046875,0.02165536696910858,0.00266430557211861,-0.0012877747882157563
1761508345972559400,3.536559326171875,0.017613982623815534,0.006230930278822779,-0.0023731771384365857
1761508345982530600,3.546530517578125,0.01746434502005577,0.0036751813814044,-0.003222852770332247
1761508345992502500,3.55650244140625,0.016118775629997254,0.001966404702141881,-0.001283235610416159
1761508346002473500,3.566473388671875,0.01551847164928913,-0.0003654723115265369,0.002044602771196514
1761508346012445400,3.576445556640625,0.018057634738087653,0.009670056148339063,-0.004595657227188348
1761508346022416600,3.586416748046875,0.007580664387345314,0.00016381225958466528,0.0015851137669757008
1761508346032387600,3.5963876953125,0.012817395997047424,0.0016980908884666858,0.0011349223140627144
1761508346042359600,3.606359619140625,0.02224398051202297,-0.007831205082312226,0.0012496895338408648
1761508346052330500,3.61633056640625,0.01700783342421055,-0.0008150427099317312,0.0011943334842566401
1761508346062301400,3.626301513671875,0.022096680995821953,0.000752042210008949,0.007640513948956504
1761508346072273400,3.6362734375,0.018505963027477264,-0.0010300919664092362,-0.0006138667151797563
1761508346082244400,3.646244384765625,0.021348492977023122,0.0005049355811439454,0.0068183291121851645
1761508346092216600,3.656216552734375,0.022996844705939292,0.0014735248849727213,0.004996575311431661
1761508346102187500,3.6661875,0.017162147203087806,0.003525836038589477,-0.003097856417484581
1761508346112158500,3.676158447265625,0.017313538372516632,-0.0036211679055355487,0.0024643351537641136
1761508346122130400,3.68613037109375,0.023293781825900077,0.0027964623181149363,0.0034067853693384676
1761508346132101600,3.6961015625,0.018503624939918518,0.00861440961556509,0.0031519612248986956
1761508346142072300,3.706072265625,0.01969897220432758,0.002438716655317694,0.003419608318293467
1761508346152044500,3.71604443359375,0.008920973080396652,0.0039008981623686848,0.0027923341322690248
1761508346162015500,3.726015380859375,0.014756255105137825,0.003349730553012341,-0.0012705679250881075
1761508346171987500,3.735987548828125,0.02508183428645134,0.002453804626595229,0.004233363253436983
1761508346181958400,3.74595849609375,0.022087328645586966,0.0026113150095567104,0.008598371796216815
1761508346191929300,3.755929443359375,0.015056699356436729,-0.0016228519614785908,-0.0006087247491814195
1761508346201901300,3.7659013671875,0.012214169406890869,0.006250164702255278,0.008688552564010023
1761508346211872300,3.775872314453125,0.022091420298814772,0.008539864808320998,-0.002049763003503904
1761508346221843500,3.785843505859375,0.015511457386612892,0.00003160071466118097,-0.0036523484950885176
1761508346231815400,3.7958154296875,0.002941314148902893,0.002012198338937014,0.003824143131729215
1761508346241786400,3.805786376953125,0.02104629516005516,-0.0035212329287081954,-0.0005994180647190659
1761508346251757300,3.81575732421875,0.024786066210269925,0.0012811989169567823,0.0031959282307885586
1761508346261729500,3.8257294921875,0.02284311544895172,-0.0012387845473363994,0.006747574564069509
1761508346271700500,3.835700439453125,0.029275778844952582,0.006849427503347397,-0.003987763595068827
1761508346281672400,3.84567236328125,0.01745265458226204,0.005695416896324605,0.002348608952760696
1761508346291643400,3.855643310546875,0.02149462344944477,-0.006076653032563627,-0.003745634535420686
1761508346301614300,3.8656142578125,0.01820201164484024,-0.0015480879585258662,0.0013074932688381521
1761508346311586300,3.87558642578125,0.014611878198385237,0.0009627258186228573,0.0008298475534189492
1761508346321557200,3.88555712890625,0.0235889653801918,0.001353917093295604,0.007230882835295051
1761508346331528400,3.895528564453125,0.013113164073228835,0.00705859500830993,0.004273357337107882
1761508346341500200,3.905500244140625,0.012365560576319694,0.007850987495016306,0.0008786368648987263
1761508346351471400,3.915471435546875,0.020446575701236723,0.002275123591441661,-0.0035895854571834206
1761508346361443300,3.925443359375,0.020296938097476958,-0.005245517704356461,-0.0029464743812102822
1761508346371414500,3.93541455078125,0.01760463027358055,0.004139748419541865,0.010658363932790235
1761508346381385200,3.94538525390625,0.018351064726710317,0.004523943697847426,0.003014699045522138
1761508346391357400,3.955357421875,0.019251812958717345,0.0019392974995076655,0.0020059969270136207
1761508346401328400,3.965328369140625,0.02224573407769203,0.004265566756296903,0.0011144092489965259
1761508346411299600,3.975299560546875,0.024789573341608046,0.002825030825473368,0.0013906232413370162
1761508346421271300,3.985271240234375,0.021048633247613906,-0.009319105552509427,0.005935856322385371
1761508346431242500,3.995242431640625,0.02045358996391296,0.0010161730389110744,0.005142203460354358
1761508346441214200,4.005214111328125,0.02374327915906906,-0.007216799511015415,0.004499412044789642
1761508346451184400,4.015184326171875,0.0152104286134243,0.00060454176440835,-0.008111300665326416
1761508346461155300,4.0251552734375,0.011616203513741492,0.004612571829371154,0.005971758752828463
1761508346471127300,4.035127197265625,0.02238952646255493,0.004643387092743069,-0.0007585176165681331
1761508346481098500,4.045098388671875,0.025681553745269772,0.0013706490323878823,-0.0072078764190431684
1761508346491070200,4.0550703125,0.017451485538482664,0.0004133483075536787,-0.0009911573286633937
1761508346501041400,4.06504150390625,0.012960603860020637,0.0034670915886759754,0.004697765894792974
1761508346511012400,4.075012451171875,0.018194997382164,0.004507138693518937,0.006190433871652931
1761508346520984300,4.084984375,0.01879413231909275,0.000323624197486788,0.00015385712115094065
1761508346530955300,4.094955322265625,0.006076105043292045,0.0028169753831811246,-0.0016373828103300183
1761508346540926500,4.104926513671875,0.013559738796949385,0.0028125914690084754,-0.0071482643194496626
1761508346550898400,4.1148984375,0.019395605343580244,0.00725227268319577,-0.0015281502821948378
1761508346560869400,4.124869384765625,0.02104103446304798,-0.004796677958313376,0.0006759812991134822
1761508346570841300,4.13484130859375,0.013859598526358603,0.002344882625713944,0.0015348448844626544
1761508346580812500,4.1448125,0.025530747097730636,0.002483944036532193,0.005027701102057472
1761508346590783200,4.154783203125,0.016402268746495245,0.0014156389515846968,0.0027865893780719487
1761508346600755500,4.16475537109375,0.018945523488521576,0.0010177256751805544,0.0027519473229534923
1761508346610726400,4.174726318359375,0.02013970170915127,0.0033810390067286786,0.0017342307809274642
1761508346620697300,4.184697265625,0.01938742203712463,0.004612370899971574,0.003555226529855281
1761508346630669300,4.19466943359375,0.01175356615781784,0.005793981899973005,-0.004133811869099736
1761508346640640300,4.20464013671875,0.017139350849390028,0.0087255235735327,-0.0011755191859323532
1761508346650612500,4.214612548828125,0.0178898769557476,0.009110979227162898,0.0009988839773926884
1761508346660583200,4.224583251953125,0.021335633495450017,-0.00010663871224969625,0.0034020269958302376
1761508346670554400,4.234554443359375,0.027320553123950958,-0.0015853329626843331,0.003267276433948427
1761508346680526300,4.2445263671875,0.024776129338145256,-0.000495400567818433,-0.0026077165466733276
1761508346690497300,4.254497314453125,0.01894260087907314,0.0040335663650184865,-0.0007877254447434097
1761508346700468200,4.26446826171875,0.017148703199625016,-0.0006156842129305005,-0.004364862412307411
1761508346710440400,4.2744404296875,0.017747838136553763,0.0000751293291337788,0.0037756186817307024
1761508346720411400,4.284411376953125,0.013258710023760795,0.007679978309664875,0.007868020828207953
1761508346730383400,4.29438330078125,0.021938860085606575,0.0006495682162232696,0.00911059563467279
1761508346740354300,4.304354248046875,0.019694880551099775,0.0008101108064875007,0.0003944152782205492
1761508346750325500,4.314325439453125,0.011764672073721885,0.013097181052807718,-0.00043941433057188985
1761508346760297200,4.324297119140625,0.010269465079903601,0.004497311419248581,0.0025783625880256293
1761508346770268400,4.334268310546875,0.024185177707672117,0.003934161111153662,0.00015949227749370036
1761508346780239400,4.3442392578125,0.01790039834976196,-0.0012257606689818202,0.006553540696157142
1761508346790211300,4.35421142578125,0.016551321828365325,0.0018726254714652895,0.0004296144557651132
1761508346800182300,4.364182373046875,0.021491700839996335,0.0010690357373096047,-0.0033705541453324258
1761508346810154500,4.374154541015625,0.030770985838770866,-0.00026418562782928347,-0.005263491752464324
1761508346820125400,4.38412548828125,0.021344401323795316,-0.003176328481175005,0.0031910602594260123
1761508346830097400,4.394097412109375,0.019101590833067894,0.0015120850633829831,0.0005101506123784929
1761508346840068400,4.404068359375,0.016710311782360075,0.004960471951588988,0.0012069463706575333
1761508346850039600,4.41403955078125,0.021349662020802497,0.0024711393538862465,-0.0005786127387080341
1761508346860011300,4.42401123046875,0.02778700159192085,0.0010276442809961735,0.0005848780827131122
1761508346869982500,4.433982421875,0.015969138026237485,0.005524827836081385,0.0015970690662506968
1761508346879954400,4.443954345703125,0.02390051554739475,0.002761500602588057,0.004333827953226864
1761508346889925400,4.45392529296875,0.010582768812775612,-0.007751837969478219,0.0002065280233044177
1761508346899896300,4.463896240234375,0.025247838503122327,-0.0023286804095841943,0.006330043271742761
1761508346909868500,4.47386865234375,0.022254501906037328,0.00810052354298532,0.001035498793888837
1761508346919839500,4.483839599609375,0.018216624692082403,-0.0007862732731737196,0.0011059702142141759
1761508346929810200,4.49381005859375,0.017173837640881536,0.00658725116951391,-0.004163896480109543
1761508346939782400,4.503782470703125,0.017030629777908323,0.0010065649603493512,0.005273419491434469
1761508346949753300,4.51375341796875,0.013739187017083166,-0.003153824388422072,0.00399321608832106
1761508346959725300,4.523725341796875,0.014186930784583092,0.0009399842638522386,-0.007236865051509812
1761508346969696300,4.5336962890625,0.015384031614661215,0.0052637840134091675,0.006390148561680689
1761508346979667500,4.54366748046875,0.013887655577063559,0.002949698384758085,0.0005089633022900671
1761508346989639200,4.55363916015625,0.016128712502121924,-0.0025965375655330717,-0.00032429091776721176
1761508346999610400,4.5636103515625,0.019417817175388336,0.011518606624472886,-0.003652878218051046
1761508347009581300,4.573581298828125,0.01702478455901146,0.0043983628231100734,-0.007117047197278589
1761508347019553500,4.583553466796875,0.019571546432375908,-0.0038092195572331546,0.003781719628954306
1761508347029524200,4.593524169921875,0.017179682859778403,-0.0028783867142163216,0.003785984812118113
1761508347039496400,4.603496337890625,0.017331658551096914,0.000634955168981105,0.002538395903818309
1761508347049467400,4.61346728515625,0.015239070186018944,0.005808430550433695,0.0027998324521351604
1761508347059438600,4.6234384765625,0.023916882160305974,-0.0026522863407619298,-0.00695857783309184
1761508347069410300,4.633410400390625,0.024665070179104805,0.0010096884991973637,0.000018960428796708584
1761508347079381500,4.643381591796875,0.021822540229558943,0.006393262967374176,0.004205808526230976
1761508347089352400,4.6533525390625,0.022720365852117536,0.0033467166120186445,-0.00020869258092716335
1761508347099324400,4.663324462890625,0.02077273891568184,-0.007359459384717047,0.000882536721881479
1761508347109295400,4.67329541015625,0.012542086187005043,-0.0031576785796321926,0.0012117138773202894
1761508347119267600,4.683267578125,0.021074352210760115,0.003787391317915171,0.0009989753089379519
1761508347129238300,4.69323828125,0.027062194448709487,-0.003130827105324715,0.0007099749002605676
1761508347139209200,4.703209228515625,0.019431261178851127,0.004492836173530668,-0.0037737372518982736
1761508347149181400,4.713181396484375,0.018978256714344024,0.0014846855998039245,-0.0005744845528621226
1761508347159152400,4.72315234375,0.011498130092024803,0.0071910440152511,0.007897584849409759
1761508347169123300,4.733123291015625,0.009550503155589102,-0.0003019055560231209,-0.0022763200346846133
1761508347179095300,4.74309521484375,0.023764321947097777,0.000172397424839437,0.0007982925045304
1761508347189066500,4.75306640625,0.02510930681526661,-0.005711071123182773,-0.003686661756644025
1761508347199038000,4.763037841796875,0.030197569864988325,-0.005288918454665691,-0.001895467490935698
1761508347209009200,4.773009033203125,0.028398996010422704,-0.0006715425860136747,-0.0008520959178451448
1761508347218980000,4.78297998046875,0.021067337948083877,-0.0025892127756029365,-0.0007615772233344614
1761508347228952000,4.7929521484375,0.012092004331946373,-0.0068673832851462065,0.008133832157542929
1761508347238923000,4.802923095703125,0.013294950380921364,0.008957670095283537,-0.008147869816049933
1761508347248894200,4.812894287109375,0.01329728846848011,-0.004441617442946881,-0.0034216906775254756
1761508347258866200,4.8228662109375,0.018231237739324568,-0.0015808029180392623,0.0013929521957412362
1761508347268837000,4.832837158203125,0.01508709449470043,-0.0015644728377461432,0.0039010534259956327
1761508347278809000,4.84280908203125,0.02062836200892925,0.003376673358865082,-0.007581468104943633
1761508347288780300,4.8527802734375,0.021825462839007378,-0.00010132321631535887,-0.0019976035580039023
1761508347298751200,4.862751220703125,0.012850129222869872,-0.0026663879313506183,-0.00883718552077189
1761508347308723200,4.87272314453125,0.015846388429403304,0.004111435640510171,-0.0016011059205513446
1761508347318694100,4.882694091796875,0.0246826058357954,-0.004214896014984697,0.003938408028008416
1761508347328665000,4.8926650390625,0.009269348126649856,-0.002489971918519586,0.0033037542531266805
1761508347338637000,4.902636962890625,0.015554127484560011,-0.003855451585445553,-0.0024712854843586683
1761508347348608000,4.91260791015625,0.02123918738365173,0.0004192117927595973,0.005100382745778188
1761508347358580200,4.922580322265625,0.02213935109376907,-0.0012157689979299903,-0.0010047839952167124
1761508347368551000,4.932551025390625,0.015856325301527977,0.0027740312905982136,0.003728738199546933
1761508347378522000,4.942522216796875,0.022290742263197896,-0.006765987003594636,-0.00257610669885762
1761508347388494000,4.952494140625,0.014807108509540557,0.0019725604482926425,0.0016249069212470203
1761508347398465300,4.96246533203125,0.012262684723734854,0.006319814138673246,-0.002995227160071954
1761508347408436000,4.97243603515625,0.0185480486035347,0.001233231589384377,0.0002660944571252912
1761508347418408200,4.982408203125,0.016602759754657744,0.0018510164278559386,0.00129009460946545
1761508347428379100,4.992379150390625,0.018545125994086264,0.003469721937179565,-0.0015090254566166549
1761508347438351000,5.00235107421875,0.018692425510287283,0.0014438969316892326,-0.00279257159428671
1761508347448322000,5.012322021484375,0.01614507911503315,0.0019650164626538753,0.006439120536250993
1761508347458293200,5.022293212890625,0.021233342164754865,-0.004006842754874378,0.0035471893538720906
1761508347468265000,5.032264892578125,0.013451602247357367,-0.0003939312210306525,-0.0024119473794009536
1761508347478236200,5.042236083984375,0.015547113221883773,0.00022577157989144323,-0.0009781060508452354
1761508347488207000,5.05220703125,0.01374912388920784,0.005393931465409695,0.007268593630334362
1761508347498179000,5.062178955078125,0.0210837045609951,-0.0015663360012695192,-0.003700288423197344
1761508347508150000,5.07214990234375,0.016749474748969078,-0.004865541943442076,-0.0029386564009357243
1761508347518122200,5.082122314453125,0.028276830935478208,-0.0025091880756430325,-0.0015510105679742991
1761508347528093200,5.09209326171875,0.013613514810800552,-0.002862348894868046,0.009070875545637682
1761508347538064100,5.102064208984375,0.0094242464274168,0.0012224727333523333,-0.0011902144315652549
1761508347548036000,5.1120361328125,0.00478489618897438,0.001881228903029114,-0.005124713469436392
1761508347558007000,5.122007080078125,0.017353285861015318,0.0013256591131910681,-0.004495119462162256
1761508347567978200,5.131978271484375,0.010168927314877509,0.002545994688384235,-0.007432844281336292
1761508347577950000,5.141949951171875,0.016601590710878373,0.006822722159512341,0.00037568317828699945
1761508347587921200,5.151921142578125,0.020041502031683922,0.0009256269449368119,-0.004748527967650443
1761508347597893000,5.16189306640625,0.018092706051468847,-0.003239785638824105,-0.002214406380150467
1761508347607864000,5.171864013671875,0.01629413219690323,0.0000693754417821765,0.0016713490120135246
1761508347617835000,5.1818349609375,0.015243746361136436,-0.0018593275984749196,-0.00534170808782801
1761508347627807200,5.19180712890625,0.01658639314174652,0.005987458645459264,-0.010238448887132108
1761508347637778000,5.20177783203125,0.014643442380428313,-0.003550824349373579,0.0014191734823863953
1761508347647749000,5.2117490234375,0.02362228312790394,-0.0023737981929443774,0.007533948301943019
1761508347657721000,5.22172119140625,0.02362345217168331,0.0019157156945206223,-0.004421387505671009
1761508347667692300,5.2316923828125,0.03395136944055557,0.0007115275365300476,0.0005120411753654479
1761508347677664000,5.2416640625,0.022432781082391738,0.002490684304572642,0.0019692999121267347
1761508347687635200,5.25163525390625,0.016296470284461975,0.005478961134050041,-0.0009355181512888521
1761508347697606100,5.261606201171875,0.014800678768754004,0.0007164229073561727,-0.00157572488412261
1761508347707578000,5.271578125,0.017494155636429785,0.0014714790583588181,0.0038225174302235244
1761508347717549000,5.281549072265625,0.017346856120228765,0.0009088219406083225,0.002124956264719367
1761508347727520300,5.291520263671875,0.020040332987904547,0.004217288901470601,0.010146304491115733
1761508347737492000,5.301491943359375,0.018392565780878067,0.001624824722856283,-0.001541639951430261
1761508347747463200,5.311463134765625,0.019138415712118148,-0.00010278452103957533,-0.005668245761608705
1761508347757435100,5.32143505859375,0.020482231536507606,-0.0013035203466191887,-0.0019171495997812598
1761508347767406300,5.33140625,0.02227496017217636,0.006756050131469965,-0.011025261016422882
1761508347777377000,5.341376953125,0.023172785794734953,0.005731036198977381,-0.0007479870893992483
1761508347787349200,5.351349365234375,0.01748304972052574,-0.0012626768795773386,-0.006898938334034755
1761508347797320200,5.3613203125,0.020175942066311837,0.003958363970648497,-0.0010152140576858073
1761508347807291100,5.371291015625,0.016585224097967147,0.0028447584392502904,0.0003789619807619601
1761508347817263000,5.38126318359375,0.010301029261946678,-0.003332925548683852,-0.004679636583058163
1761508347827234000,5.391234130859375,0.018835633373260496,0.00007366802440956234,0.0007703633179888128
1761508347837206000,5.4012060546875,0.025417934373021124,0.003967369261011481,0.0019278536568861453
1761508347847177000,5.411177001953125,0.016288871499896048,0.0033915604007430373,-0.0011798117685597389
1761508347857148200,5.421148193359375,0.021080197429656982,-0.002807202907837927,-0.0035187487106770276
1761508347867120000,5.4311201171875,0.025419687938690184,0.0021102701522409915,0.008780359033308923
1761508347877091000,5.441091064453125,0.014042553877830504,0.00224730400275439,0.0029231391713954507
1761508347887062000,5.45106201171875,0.020176526588201522,-0.0018072686176747084,0.0060247767148539424
1761508347897034200,5.4610341796875,0.01464051977097988,0.007571860026381909,0.004410774780111387
1761508347907005200,5.471005126953125,0.014338321954011916,0.003608673750143498,0.00044271139935590326
1761508347916977200,5.48097705078125,0.01493687236905098,0.0017891484390944242,0.002129276246810332
1761508347926948000,5.490947998046875,0.023917466682195663,0.003987352603115141,-0.0019976035580039023
1761508347936919300,5.500919189453125,0.019131985971331596,-0.0038600912279449402,0.004929711487144232
1761508347946891000,5.51089111328125,0.01823825200200081,-0.0022682371929287908,-0.0020302454522810875
1761508347956862200,5.5208623046875,0.02347323004603386,-0.0007903101274743676,-0.004152187776006758
1761508347966833200,5.530833251953125,0.01688566834926605,0.004372004539147019,-0.0035603867621626702
1761508347976805000,5.54080517578125,0.006562427255511283,0.00047022959394380447,-0.007094561370834708
1761508347986776000,5.550776123046875,0.014196283134818076,-0.007120663926471024,-0.005082098170416429
1761508347996748300,5.560748291015625,0.012103694769740103,-0.0016695041147992014,-0.004972134989919141
1761508348006719200,5.57071923828125,0.01958966661095619,0.00001667714016512036,-0.001147873127181083
1761508348016690000,5.58068994140625,0.0154021517932415,0.005157675024121999,0.00798012116686441
1761508348026662100,5.590662109375,0.00836509276330471,-0.0030894539153203367,0.004448558640386909
1761508348036633000,5.600633056640625,0.016743045008182526,-0.0008884550060145556,0.0018996413425542414
1761508348046604000,5.61060400390625,0.0165916538387537,0.0031718349691480397,-0.0013167086217552423
1761508348056576000,5.620575927734375,0.016743045008182526,0.001876132602803409,-0.006844897458702325
1761508348066547200,5.630547119140625,0.027969372421503064,0.0027497553658671677,0.0006768124161753803
1761508348076519000,5.640518798828125,0.02542377959191799,-0.0009413725033402443,0.004735577154532075
1761508348086490000,5.650489990234375,0.020637714359164238,-0.004976400173082947,0.00218792936517857
1761508348096461000,5.6604609375,0.022883447459340095,0.0015093816496431827,-0.0073388915207237004
1761508348106433300,5.670433349609375,0.015554127484560011,0.0002367861642502248,0.004237418374046683
1761508348116404000,5.680404052734375,0.014205635485053061,-0.0027610439448617395,0.002357888237759471
1761508348126375200,5.690375244140625,0.02049216840863228,-0.002300312831625342,0.0006546005843672901
1761508348136347100,5.70034716796875,0.014355857610702514,0.0054406749502755695,0.0010891012778040021
1761508348146318000,5.710318115234375,0.023330022183060645,0.006933817851170897,0.0037038320871535684
1761508348156290000,5.7202900390625,0.01420095930993557,0.0006522898962721228,0.004679837512457743
1761508348166261200,5.73026123046875,0.017944237491488456,0.00017522870274260639,0.0024635953682474792
1761508348176232200,5.740232177734375,0.019289806881546974,-0.00003435892732813954,0.00405259072589688
1761508348186204200,5.7502041015625,0.0210837045609951,0.004413962251041084,-0.009874200418312102
1761508348196174800,5.7601748046875,0.011503390789031983,0.0026263481819070876,-0.0027088662330526855
1761508348206145800,5.770145751953125,0.007462590965628624,0.0039872978041879835,0.005688731427211314
1761508348216117800,5.78011767578125,0.018832710763812065,0.0031096381868235766,-0.0004960855544079095
1761508348226088700,5.790088623046875,0.014489713123440742,0.0037085356617346404,-0.0028708244622685014
1761508348236061000,5.80006103515625,0.017181436425447463,-0.0028293416744098066,-0.0020642299202736467
1761508348246032000,5.810031982421875,0.020174188500642776,0.006734331490006297,0.0022864487030543387
1761508348256002800,5.8200029296875,0.005209259080886841,-0.001166924887523055,-0.000007315656775608658
1761508348265974800,5.829974853515625,0.020023381853103636,-0.004571801427565515,0.001763986598374322
1761508348275946000,5.839946044921875,0.021516250759363174,-0.0010574914299882948,-0.003363749945210293
1761508348285917000,5.8499169921875,0.009993570747971534,0.00011619199188426136,0.005841739164991304
1761508348295889000,5.859888916015625,0.013584873238205909,0.0005516060007736087,-0.0032704091059509665
1761508348305859800,5.86985986328125,0.014780805024504661,-0.0007352920046076178,-0.0068654196569230405
1761508348315831800,5.879831787109375,0.01777414162158966,-0.003900569368805736,-0.0073035918784793465
1761508348325802800,5.889802734375,0.014932196193933486,-0.008957706627901643,-0.0027214699862990526
1761508348335774000,5.89977392578125,0.02256196042001247,0.0036639658676460383,0.003596462722541764
1761508348345746000,5.909745849609375,0.018522914162278175,-0.001058039419259876,0.0033383049766998736
1761508348355716900,5.919716796875,0.009846271231770514,0.0019165742110460995,0.005800749567477032
1761508348365687800,5.929687744140625,0.016880407652258872,0.005119315775111317,-0.0049118744363542645
1761508348375660000,5.939659912109375,0.022567221117019653,0.0016490823812782764,-0.003876521772937849
1761508348385630700,5.949630615234375,0.027356208959221837,0.0017461678138934074,0.005759878700971603
1761508348395603000,5.95960302734375,0.021971593311429023,-0.006889576850645244,-0.0016076543923467398
1761508348405574000,5.969573974609375,0.007756605476140975,0.0013393588449805973,0.005567890659673139
1761508348415544800,5.979544921875,0.017483634242415426,-0.006023899932019412,-0.008669400338968262
1761508348425516800,5.989516845703125,0.014939794978499411,-0.004181596533581614,-0.0031734241380356252
1761508348435488000,5.999488037109375,0.014942133066058159,0.002811440691538155,0.01108090932695195
1761508348445459000,6.009458984375,0.013750877454876898,0.0012711159143596886,0.0019895298494026063
1761508348455431000,6.019430908203125,0.025121581774950025,0.00164296316774562,-0.003690022757509723
1761508348465401900,6.02940185546875,0.018538111731410026,0.0036837848129682243,0.0030563462301623073
1761508348475374000,6.0393740234375,0.0037216508716344833,0.000854223942849785,0.004663653562637046
1761508348485344800,6.0493447265625,0.01329728846848011,0.0005168452146463096,-0.003964318787399679
1761508348495315700,6.059315673828125,0.023169278663396835,0.0038018399683758613,0.007784333733282983
1761508348505288000,6.069287841796875,0.011795067211985588,0.0061981605203822255,0.004902933078072965
1761508348515259000,6.0792587890625,0.020475801795721053,0.004651570399198681,0.0030528025662060823
1761508348525229800,6.089229736328125,0.02122223624885082,-0.0033976978805847465,-0.006902061872882768
1761508348535201800,6.099201904296875,0.023617606952786443,0.0014537790048867463,-0.010413056535366921
1761508348545173000,6.109173095703125,0.0189835174113512,0.0010092135751619935,-0.0006885119871236383
1761508348555144700,6.119144775390625,0.013296119424700737,0.007500073431804775,0.002319209328340366
1761508348565116000,6.129115966796875,0.025564649367332458,0.000983914737123996,-0.0037979218450840562
1761508348575086800,6.1390869140625,0.02092471460700035,0.00002681494168937206,-0.004744947771076113
1761508348585058800,6.149058837890625,0.01927811644375324,0.006470237193722277,0.006811707575153559
1761508348595029800,6.15902978515625,0.01882978815436363,-0.00047676893258467314,-0.0024080201229546216
1761508348605001000,6.1690009765625,0.019428338569402695,-0.007084441835619509,-0.005950423703854903
1761508348614973000,6.178972900390625,0.018680735072493553,0.0049099108081310985,-0.0026110592812299727
1761508348624943900,6.18894384765625,0.013141221123933792,0.0011279811166226862,0.006618176030740141
1761508348634915800,6.198915771484375,0.021069091513752938,0.0001547156376764178,-0.0006166249278467148
1761508348644887000,6.208886962890625,0.014937456890940665,-0.005956204990670085,0.0059360755180940025
1761508348654858000,6.21885791015625,0.02152151145637035,0.0026342026947997507,-0.0005843118271324783
1761508348664830000,6.228829833984375,0.018079262048006056,0.0004509221052750945,-0.007223128787102177
1761508348674801000,6.23880078125,0.018674305331707,0.0008246325221844017,-0.0003822225169278681
1761508348684771800,6.248771728515625,0.01612929702401161,-0.007361687874421477,-0.0015301230435725301
1761508348694743800,6.258743896484375,0.014633505508303642,-0.0072224072678945955,0.004729969397652894
1761508348704714800,6.26871484375,0.01852057607471943,0.003432093340530991,-0.007557256112294271
1761508348714687000,6.27868701171875,0.01881985128223896,0.0003105089875869453,-0.0020457809481304137
1761508348724657700,6.28865771484375,0.022712767067551612,-0.002586692024953663,-0.004388617747230455
1761508348734628900,6.29862890625,0.020620178702473638,-0.006689231972955167,-0.0004107727579772472
1761508348744600800,6.308600830078125,0.009399111986160278,0.0008777509489096701,0.0034462405968923118
1761508348754572000,6.318572021484375,0.017031214299798012,-0.0006236300573684275,-0.002892716633668169
1761508348764542700,6.328542724609375,0.01867372080981731,0.005197988768201321,-0.0023949414456728843
1761508348774515000,6.338514892578125,0.02211713926196098,0.006782024822942912,-0.00000748005355708301
1761508348784486000,6.34848583984375,0.023162848922610283,0.0041849758007563645,0.000553012506570667
1761508348794457900,6.358457763671875,0.026451953595876692,0.0032073629402555523,-0.0023164785151369867
1761508348804428800,6.3684287109375,0.020314473754167554,-0.0016089513002894818,-0.00033675767369568347
1761508348814400000,6.37839990234375,0.021958149307966232,0.0029353410658426583,-0.005341616756282746
1761508348824371700,6.388371826171875,0.01821545564830303,-0.001586958664190024,-0.0009017072132322937
1761508348834343000,6.398343017578125,0.017620412364602087,-0.00554207123182714,-0.003873672228725627
1761508348844313900,6.40831396484375,0.013876549661159514,-0.00023353476123884318,-0.004683152847550809
1761508348854286000,6.4182861328125,0.02001052237153053,0.0022033187305554747,-0.0022705661473330107
1761508348864256800,6.4282568359375,0.01986205381155014,0.004048599537368864,-0.0014558522309642285
1761508348874229000,6.43822900390625,0.01223112054169178,-0.002793667572829872,0.0014069989874027668
1761508348884200000,6.448199951171875,0.02270633732676506,0.003861278538033366,0.0043262291686609385
1761508348894171000,6.4581708984375,0.01777063449025154,-0.000761851217970252,0.002593934616493061
1761508348904142800,6.468142822265625,0.016125205370783807,0.0028338899853639302,-0.0037361360547132788
1761508348914113800,6.47811376953125,0.023605916514992713,-0.0012556626169010997,-0.0023178667546249923
1761508348924085000,6.4880849609375,0.026901450929045674,-0.001657357019279152,-0.004362451259512454
1761508348934056700,6.498056640625,0.01987082163989544,-0.0012076222240924835,-0.005948825401812792
1761508348944028000,6.50802783203125,0.023013795840740203,-0.0038993820587173104,0.0026927827479317785
1761508348954000000,6.517999755859375,0.01583002181649208,-0.002658661282621324,-0.002695668824762106
1761508348963970800,6.527970703125,0.018070494219660758,-0.0032631482481025155,0.003961615373659879
1761508348973941800,6.537941650390625,0.018070494219660758,-0.00174793964587152,0.001088114897115156
1761508348983914000,6.5479140625,0.013282675421237945,-0.001327778005041182,0.003353685208922252
1761508348993885000,6.557885009765625,0.011036942321062088,0.0004872355276718735,0.010133709871023893
1761508349003856000,6.56785595703125,0.01866729106903076,0.0012428944668732582,0.00477024660911411
1761508349013827800,6.577827880859375,0.028690087911486625,0.0009272526464425027,-0.004368643538281322
1761508349023799000,6.587799072265625,0.01836275516450405,0.00698048827080056,0.0018193974468857048
1761508349033770800,6.597770751953125,0.013422960674762724,-0.0003439911320805549,-0.0010706523056607693
1761508349043742000,6.607741943359375,0.008335282146930694,0.005242339366581291,-0.002601359871122986
1761508349053713000,6.617712890625,0.014921090278029441,0.002835533953178674,-0.00707702571414411
1761508349063684900,6.627684814453125,0.01627133584320545,0.00362259267764166,0.002829095079237595
1761508349073655800,6.63765576171875,0.021208207723498344,-0.0007910590461455285,0.0024841906317044048
1761508349083627000,6.647626953125,0.020759294912219048,0.0037149471362121402,-0.00007895612088032067
1761508349093598700,6.6575986328125,0.022251579296588896,-0.0013903401135466993,0.005241453450592235
1761508349103570000,6.66756982421875,0.014617723417282104,0.00846325590815395,-0.00435064209070988
1761508349113542000,6.6775419921875,0.010278817430138587,0.00367362874513492,-0.005134887803578749
1761508349123513000,6.68751318359375,0.022699907585978507,0.00844387535424903,0.004520664895372465
1761508349133483800,6.69748388671875,0.028389059138298034,0.0038169827385805544,0.011874297327501698
1761508349143456000,6.7074560546875,0.018514146333932877,0.005137381154764443,-0.007643089498532936
1761508349153427000,6.717427001953125,0.018211363995075225,-0.006553915155492722,0.0028897848910652097
1761508349163398000,6.72739794921875,0.014622984114289283,0.00036512525165453553,0.004064600824099034
1761508349173369900,6.737369873046875,0.01626841323375702,0.0001967829474247992,0.006380768811982125
1761508349183340800,6.7473408203125,0.015220365485548972,-0.0028020700749941166,0.0019298994835000485
1761508349193313500,6.7573134765625,0.007138765838742255,-0.0004658639460802078,0.0038724483860190957
1761508349203284700,6.76728466796875,0.010130933392047882,0.002615443195402622,0.008579712761519476
1761508349213255700,6.777255615234375,0.01806172639131546,0.0032931049949489533,-0.0011856204548384994
1761508349223227600,6.7872275390625,0.02374853985607624,-0.0006067154551856219,-0.0009274718421511352
1761508349233198600,6.797198486328125,0.01880757632255554,-0.0008492372404783964,-0.002202058355230838
1761508349243169500,6.80716943359375,0.012073299631476402,0.0025452640360221265,-0.00360598860271275
1761508349253141800,6.817141845703125,0.01686053390800953,0.007707140311226248,0.004004669064097106
1761508349263112400,6.827112548828125,0.009382160851359367,0.0023123685956001282,-0.0018468699757009743
1761508349273084700,6.837084716796875,0.005792611926794052,-0.0014615969851613044,-0.004615677101910114
1761508349283055600,6.8470556640625,0.01970949359834194,0.00019760493133217096,-0.001688336679432541
1761508349293026600,6.857026611328125,0.024794249516725538,0.008939275922067462,0.005006859243428335
1761508349302998500,6.86699853515625,0.023600071296095846,0.0037095220424234864,0.0005213569929823279
1761508349312969700,6.8769697265625,0.02015957545340061,0.007313939742557704,0.0004433050544001162
1761508349322941400,6.88694140625,0.016119944673776625,0.0047122328115627166,-0.003777965902443975
1761508349332912600,6.89691259765625,0.019859131202101706,-0.00014505276018753646,0.008949906913936137
1761508349342883600,6.906883544921875,0.021202947026491163,0.0005614150087349117,-0.00012638459233567118
1761508349352855800,6.916855712890625,0.012376666492223739,0.0012162987208925186,0.0002692088628187775
1761508349362826500,6.926826416015625,0.02210369525849819,-0.0026654198169708252,-0.0011273874615784735
1761508349372797700,6.936797607421875,0.023302549654245375,-0.0004852079673670232,0.004245492082647979
1761508349382769700,6.946769775390625,0.016270166799426077,0.002312204198818654,-0.008595184325287117
1761508349392740600,6.95674072265625,0.01926174983084202,-0.0011177702498622237,0.0007395845872350036
1761508349402711600,6.966711669921875,0.019407880303263663,0.000984974183049053,0.00733092740997672
1761508349412683800,6.976683837890625,0.015966215416789054,0.005953191049676388,0.0059365047763567415
1761508349422654700,6.98665478515625,0.02748772638440132,0.004292363431677222,0.0003300813377369195
1761508349432626700,6.996626708984375,0.020901333731412886,0.0016156915683299303,0.00044364298111759126
1761508349442597600,7.00659765625,0.012521627920866012,-0.002180010920204222,-0.0019889453275129198
1761508349452568800,7.01656884765625,0.015813655203580856,0.006019516017846763,0.0000025938158854842186
1761508349462540500,7.02654052734375,0.014021511089801788,-0.0012325922685675322,0.0008832308416254818
1761508349472511700,7.03651171875,0.020607319220900533,-0.0031161409928463397,-0.0034311252261511977
1761508349482483700,7.046483642578125,0.011334463962912558,0.004938552380725741,0.003804881308833137
1761508349492454700,7.05645458984375,0.02495323947072029,0.006442746398597955,-0.0019867899030447003
1761508349502425600,7.066425537109375,0.02181494144499302,0.003358187854103744,0.00011715097310952841
1761508349512397800,7.076397705078125,0.012538579055666924,-0.0012449768261052667,0.004822150326287374
1761508349522368800,7.08636865234375,0.012537994533777236,0.0016500139630399643,0.0017954503157176075
1761508349532339500,7.09633935546875,0.018074585872888564,0.004675115671567619,-0.0031872243345249444
1761508349542311700,7.106311767578125,0.017924363747239113,0.0008318477142602204,-0.012330379665084183
1761508349552282600,7.11628271484375,0.008495441144704819,0.004684303625021129,-0.012674060269910841
1761508349562254600,7.126254638671875,0.01912088005542755,0.007039780709985643,0.004190601823944598
1761508349572225500,7.1362255859375,0.014032032483816147,0.004504983269050717,0.0023093820540700106
1761508349582196700,7.14619677734375,0.014629998376965521,0.003655362436082214,0.003330267800716683
1761508349592168400,7.15616845703125,0.01791793400645256,0.001088343225978315,-0.001966066775424406
1761508349602139600,7.1661396484375,0.01881459058523178,0.0017125030063092708,0.001553832712722942
1761508349612110600,7.176110595703125,0.01656768844127655,0.010163447422161697,-0.0014192374144680797
1761508349622082800,7.186082763671875,0.02001052237153053,0.004708634348679333,-0.0060078712458256625
1761508349632053500,7.196053466796875,0.01761632071137428,0.005411467122100293,-0.0068630907025188205
1761508349642025700,7.206025634765625,0.025695582270622252,0.01231889015669003,0.002622293061297387
1761508349651996700,7.21599658203125,0.021503975799679755,0.0022061317421495914,0.002051406971318647
1761508349661968000,7.2259677734375,0.009682020580768584,-0.0004643478424288332,0.009980117611354216
1761508349671939600,7.235939697265625,0.005196399599313736,-0.0003545855913311243,-0.0031948048527818173
1761508349681910800,7.245910888671875,0.01656593487560749,0.002870970592740923,0.0004454787451773882
1761508349691881700,7.2558818359375,0.027488310906291006,0.003926160467788577,0.004560330185480415
1761508349701853700,7.265853759765625,0.02374678629040718,0.0012488675499334931,0.007278968893876299
1761508349711824600,7.27582470703125,0.007137596794962882,-0.0017858239708468317,0.0008748831383883953
1761508349721796900,7.285796875,0.017316460981965064,-0.0028017230151221153,-0.00026578392987139523
1761508349731767600,7.295767578125,0.015367080479860304,0.0005322802457958459,0.0003663490943610668
1761508349741738500,7.305738525390625,0.014319617253541946,0.00005856178682297468,0.002487789094587788
1761508349751710700,7.315710693359375,0.022549100938439367,-0.005743165028188378,-0.007236326195392757
1761508349761681700,7.325681640625,0.019108020573854446,0.004237180912028998,-0.00005105433380231261
1761508349771652600,7.335652587890625,0.024794249516725538,-0.0004455883430317044,0.0013833623834885655
1761508349781624600,7.34562451171875,0.014167057040333747,-0.0047385180302895605,-0.0028275059103500095
1761508349791595800,7.355595703125,0.020602058523893355,-0.0008912132186815142,-0.0013183982553426176
1761508349801567500,7.3655673828125,0.017460253366827962,0.0040578970886766905,-0.0022729864332824944
1761508349811538700,7.37553857421875,0.016263737058639524,-0.00015897168768569826,0.0007200670360121876
1761508349821509600,7.385509521484375,0.024342998617887496,-0.0008079553820192813,0.001850769832683727
1761508349831481600,7.395481689453125,0.02225041025280952,0.0034668541266582903,-0.006899449790688231
1761508349841452500,7.40545263671875,0.024050153151154517,-0.00006539338640868664,-0.005240741064539179
1761508349851423700,7.415423828125,0.022406477597355843,-0.005837857574317604,0.00008692936478182673
1761508349861395700,7.425395751953125,0.018809914410114287,-0.001281034520175308,0.007469778758240863
1761508349871366700,7.43536669921875,0.013571429234743117,-0.00703455654559657,0.0024815694163553416
1761508349881338600,7.445338623046875,0.018957213926315306,-0.0004385740803554654,-0.0025354550280608235
1761508349891309800,7.455309814453125,0.025092940202355384,0.005912073587998747,-0.0025211068422999233
1761508349901280800,7.46528076171875,0.011481178957223892,0.0007952237646095455,0.004862235741503536
1761508349911252700,7.475252685546875,0.015965630894899368,0.004841576545964926,0.0037837015234865245
1761508349921223700,7.4852236328125,0.019852701461315153,0.008694726576469839,0.007597104065492749
1761508349931194600,7.495194580078125,0.02254500928521156,0.0007346344174817204,0.0006745747933164239
1761508349941166600,7.50516650390625,0.01865209349989891,0.001362483992241323,-0.0003979863416403532
1761508349951137500,7.515137451171875,0.01580956355035305,0.0041795324406586586,-0.0026577753666322678
1761508349961109800,7.52510986328125,0.02763151876926422,-0.004443845932651311,0.004171522664139047
1761508349971080400,7.53508056640625,0.02089548851251602,0.00748180712275207,-0.007929697020724415
1761508349981051600,7.5450517578125,0.01610591614842415,0.010446027223207055,-0.0014191734823863953
1761508349991023600,7.555023681640625,0.02134264775812626,0.000753284319024533,0.0019966537099331614
1761508350000994600,7.56499462890625,0.01939794343113899,-0.0005173201386816799,-0.00019213417177088557
1761508350010965500,7.574965576171875,0.013562076884508133,-0.0035312428660690784,-0.0031329551303293556
1761508350020937700,7.584937744140625,0.01775017622411251,0.0037046266715973614,0.0010733831188641488
1761508350030908700,7.59490869140625,0.018946692532300947,-0.003364434931799769,0.0019113957124296576
1761508350040880600,7.604880615234375,0.015800211200118063,0.005807535501290113,0.006724924340844154
1761508350050851600,7.6148515625,0.011908464458584785,0.0013216222588904201,0.0032023488384205845
1761508350060822800,7.62482275390625,0.017442717710137366,-0.0023250088814646005,0.000819307893095538
1761508350070794500,7.63479443359375,0.01968903533220291,0.0011030110721476376,0.000003908990137279033
1761508350080765700,7.644765625,0.016694529691338538,0.004159293370228261,0.005544053126359358
1761508350090736600,7.654736572265625,0.01445055015683174,0.0026831016041338443,-0.0018598299219738691
1761508350100708600,7.66470849609375,0.02208499055802822,0.010937938925996421,-0.0033770204187370833
1761508350110679600,7.674679443359375,0.02792085710465908,0.005967657966446131,0.004178957051923498
1761508350120651800,7.68465185546875,0.020889058771729467,0.0008718143984675407,0.0046152843762654805
1761508350130622700,7.694622802734375,0.01221066227555275,-0.0006943024070933461,-0.002206533600948751
1761508350140593700,7.70459375,0.022684710016846656,-0.0005713153482414782,-0.0006338591904379427
1761508350150565600,7.714565673828125,0.012808043646812439,0.0017908106732182204,-0.003996367026632652
1761508350160536800,7.724536865234375,0.010415011030435562,0.0016222126406617461,-0.0029986155604012307
1761508350170507800,7.7345078125,0.014002806389331816,-0.001750478662829846,0.0009774484637193382
1761508350180479700,7.744479736328125,0.030760464444756507,-0.0030599172935821114,0.007315501511981711
1761508350190450700,7.75445068359375,0.03554828324317932,0.003805602828040719,0.004409185611223802
1761508350200422100,7.764422119140625,0.02701543269753456,0.0012319712140597403,-0.004811756796436384
1761508350210393000,7.77439306640625,0.02252864267230034,-0.0043462125107645985,-0.002059635943546891
1761508350220364000,7.784364013671875,0.020287001225352284,0.002107256211247295,0.0025543241253122686
1761508350230336300,7.794336181640625,0.030312720677256582,0.0026276998887769876,0.0038458617731928824
1761508350240307200,7.80430712890625,0.018797054928541182,-0.0023869134028442203,0.00508304801848717
1761508350250278100,7.814278076171875,0.020294015488028526,0.0015094729811884462,-0.0005071914703119546
1761508350260250000,7.82425,0.027625673550367352,0.007901457306928933,-0.007635244118794798
1761508350270221300,7.83422119140625,0.02403378653824329,0.004572605145163834,0.0014407642596866936
1761508350280193000,7.844193115234375,0.022237550771236417,0.002897292344085872,-0.0035805892999749627
1761508350290164200,7.854164306640625,0.018946108010411262,0.005941500611882656,0.0035055695686955005
1761508350300135200,7.86413525390625,0.016549568262696265,0.0048251551341265434,-0.0024540877543855455
1761508350310107100,7.874107177734375,0.01714753415584564,0.0003657097735442221,0.00263122528642416
1761508350320078000,7.884078125,0.01295826577246189,-0.003683108959533274,0.001255982277309522
1761508350330049000,7.894049072265625,0.013401917886734008,0.0048471295039169485,0.003822718359623104
1761508350340021200,7.904021240234375,0.015943419063091276,-0.0031818631728179753,-0.008991882892139256
1761508350349992000,7.913991943359375,0.020580431213974952,0.00232851601280272,0.0020350129589438437
1761508350359964200,7.923964111328125,0.011897358542680739,0.007680087907519191,0.005297841546637937
1761508350369935000,7.93393505859375,0.01653670878112316,0.007981682936288415,0.007327301547629758
1761508350379906300,7.94390625,0.012201309925317764,-0.0010111498039215802,0.0020514252376277
1761508350389878000,7.9538779296875,0.024469255346059798,0.004122084898687899,-0.0017305592528078703
1761508350399849200,7.96384912109375,0.020576339560747146,-0.00031065511805936693,-0.0040488369993865484
1761508350409820200,7.973820068359375,0.01967909846007824,-0.002565156046580523,-0.0006173647133633494
1761508350419792100,7.983792236328125,0.022672435057163237,0.0034308329652063545,-0.00276384782330133
1761508350429763000,7.99376318359375,0.01488894157409668,0.004152370439097285,-0.004753277208004146
1761508350439735300,8.0037353515625,0.01683949111998081,0.00996363226743415,0.0012911723216995595
1761508350449706000,8.0137060546875,0.025070143848657606,0.0012582564327865838,0.004253766720648855
1761508350459677200,8.02367724609375,0.021477087792754174,0.003569273321516812,0.008633159981807694
1761508350469648100,8.033648193359374,0.018633973321318626,0.007223813773691654,-0.0037235505677759646
1761508350479620000,8.0436201171875,0.017287819409370422,0.009212850432749838,0.0008207874641288071
1761508350489591000,8.053591064453125,0.01668926899433136,0.009036726680863649,-0.005135709787486121
1761508350499562000,8.06356201171875,0.009507248535752296,0.005534874306060374,-0.0006064688600134104
1761508350509534200,8.0735341796875,0.012950082466006279,0.0053312597590498625,-0.00014473309977911411
1761508350519505000,8.0835048828125,0.022826748836040495,0.00572104452792555,-0.0007058101817965508
1761508350529477000,8.09347705078125,0.018186814075708387,0.001676609709020704,0.0014931520340498536
1761508350539448000,8.103447998046875,0.01623918713927269,0.0016950769474729894,0.003117565764952451
1761508350549419300,8.113419189453126,0.010698504146933555,-0.0018452260078862309,-0.0010249956661835312
1761508350559391000,8.123390869140625,0.017136428239941597,0.00043208954064175486,-0.0034768183982465412
1761508350569362200,8.133362060546874,0.014146598774194717,0.007476601224672049,0.0029218970623798666
1761508350579334100,8.143334228515625,0.012200725403428076,0.004435571294650435,0.0049809119514189655
1761508350589305000,8.15330517578125,0.02536766549050808,0.0060428238281980155,0.003345711965020746
1761508350599276000,8.163276123046876,0.01803250029683113,-0.0007404796363785863,0.0011411054596770554
1761508350609248300,8.173248291015625,0.013995207604765891,0.003083279902860522,0.000893122047977522
1761508350619219000,8.183218994140624,0.015340192472934722,0.0013240882106125354,0.007255021762708202
1761508350629190100,8.193190185546875,0.01159457620382309,0.00016280761258676647,-0.000921489625936374
1761508350639162000,8.203162109375,0.016681670209765433,0.0012119878719560801,0.002233010615920648
1761508350649133300,8.21313330078125,0.014585574713349342,0.005010996562428772,0.003294219239801168
1761508350659105000,8.22310498046875,0.010994856745004652,0.0041073074546642595,-0.0022623371751047667
1761508350669076200,8.233076171875,0.018476152411103248,0.004131912172958254,0.0010159995089750735
1761508350679047200,8.243047119140625,0.02370762332379818,0.008490874567441641,-0.000777094452874735
1761508350689019100,8.25301904296875,0.015775076758861542,0.0033072979170829056,0.0006169719877187162
1761508350698990000,8.262989990234376,0.018168693897128104,0.004899261549953371,0.00009326777402311563
1761508350708961000,8.2729609375,0.021309330010414122,0.00019661855064332485,-0.002615854187356308
1761508350718933000,8.28293310546875,0.02310322768986225,-0.0005545286102220416,0.0066339855212252585
1761508350728904000,8.292904052734375,0.018014380118250847,0.0054736091054975984,0.0011301822068635373
1761508350738876200,8.302876220703125,0.019957330879569052,0.0051303851583972574,0.002605917315231636
1761508350748847000,8.31284716796875,0.025045009407401085,0.008082092837151139,0.0010417641378939152
1761508350758818000,8.322818115234375,0.015468787288665771,0.00028128289310261605,0.006310078195948154
1761508350768790000,8.3327900390625,0.011131050345301628,0.0010989376852288842,0.00466567198978737
1761508350778761200,8.34276123046875,0.013823358169198035,0.005889368565846234,0.0037166093703359365
1761508350788732200,8.352732177734374,0.019507249024510384,0.006073986151441931,0.006070387688558549
1761508350798704000,8.3627041015625,0.013522329396009444,-0.0023667108650319278,0.010590851654531434
1761508350808675000,8.372675048828125,0.023848493099212643,0.0033136363263241947,0.013056027058511971
1761508350818647000,8.38264697265625,0.016366028389334677,0.005296992163266986,0.0018452716736588625
1761508350828619000,8.392618896484375,0.013523498439788818,0.0023040756912901996,0.004322457175841555
1761508350838591000,8.402591064453125,0.009034954848885536,0.005907397412881255,0.008012826993223279
1761508350848562000,8.41256201171875,0.01606967579126358,0.001944850457459688,0.0003540010694414377
1761508350858533000,8.422533203125,0.02430091304183006,-0.0013734255113638937,-0.00042807095265015956
1761508350868505000,8.432505126953124,0.016821370941400526,-0.0033204679259099066,0.0000014430384151637553
1761508350878476000,8.44247607421875,0.019513678765296937,-0.0028513708431273698,0.0018805439164396374
1761508350888447000,8.452447021484375,0.018463292929530143,-0.0005329378329217433,-0.0019369137461762874
1761508350898419200,8.462419189453126,0.028337621212005615,0.0001371617146767676,0.0010624781323596835
1761508350908390100,8.47239013671875,0.028784195935726165,0.007903704062942414,0.001202407192857936
1761508350918362000,8.482362060546874,0.020257190608978272,0.0009828370248898862,-0.0017384046325460076
1761508350928333000,8.4923330078125,0.01890869860947132,0.002724529593065381,-0.0029591055339202284
1761508350938304300,8.50230419921875,0.015914777490496634,0.0020817747101187704,0.0009888375074137003
1761508350948276000,8.51227587890625,0.02519113987982273,0.008284410476218909,0.0036764143572654575
1761508350958247200,8.5222470703125,0.019353519767522812,0.0039390564819797875,0.002220151134347543
1761508350968218000,8.532218017578124,0.021149171012639998,0.00396398999383673,0.002647792828734964
1761508350978190000,8.542190185546875,0.01740589283108711,-0.0016227971625514329,-0.00047240328472107645
1761508350988161000,8.5521611328125,0.028927988320589064,0.005318071483913809,0.004839357189415023
1761508350998133200,8.56213330078125,0.024140754044055936,0.0003584763151593506,0.0034111327508930113
1761508351008104200,8.572104248046875,0.012464344775676726,-0.004489657835755497,0.004130112941516563
1761508351018075100,8.5820751953125,0.026231004321575165,-0.0047251836246810855,0.006152001557406038
1761508351028047000,8.592047119140625,0.018598317486047743,0.0020095862567424774,0.0032350363984704014
1761508351038018300,8.602018310546875,0.022942484170198438,0.0060098714066669345,0.0012622110886964947
1761508351047990000,8.611989990234376,0.0216021754771471,0.002489935385901481,0.0008509816729929297
1761508351057961200,8.621961181640625,0.015321487772464752,-0.0009622326282784342,-0.002519809934357181
1761508351067932200,8.63193212890625,0.023254618859291077,0.0016274002724327146,0.003456396664725616
1761508351077904100,8.641904052734375,0.026844752305746077,-0.002260711473599076,-0.0009236085177864879
