time,seconds_elapsed,z,y,x
1761508342552379000,0.11637890625,0.0002511455677449703,-0.001667155185714364,0.0027175038121640682
1761508342562351000,0.12635107421875,0.00022025266662240028,-0.0008735330775380135,0.002350520109757781
1761508342572321800,0.13632177734375,-0.0020796535536646843,-0.0019901965279132128,-0.001005329075269401
1761508342582293000,0.14629296875,0.0008819377981126308,-0.000313329859636724,0.0006455727852880955
1761508342592265000,0.156264892578125,-0.0008413246832787991,-0.0013317214325070381,0.00039401359390467405
1761508342602236200,0.166236083984375,-0.0020772977732121944,-0.0009911032393574715,0.00034607667475938797
1761508342612206800,0.176206787109375,0.0010018488392233849,0.0009988107485696673,-0.0002952125505544245
1761508342622179000,0.186178955078125,-0.0021385508589446545,0.00034154264722019434,-0.000028896378353238106
1761508342632150000,0.19614990234375,0.0012856284156441689,-0.0002900022082030773,0.0005100367125123739
1761508342642121000,0.206120849609375,-0.000007336027920246124,0.00047858606558293104,-0.0023914771154522896
1761508342652093000,0.216093017578125,-0.00018393201753497124,-0.0010913013247773051,0.00041547114960849285
1761508342662064000,0.226064208984375,-0.001946412492543459,0.0018128757365047932,-0.0012990719405934215
1761508342672035800,0.236035888671875,-0.00018492992967367172,-0.0011791837168857455,-0.0013423726195469499
1761508342682007000,0.246007080078125,0.0001583518460392952,0.0011628001229837537,-0.0017138835974037647
1761508342691978000,0.25597802734375,-0.0007702261209487915,0.000847220013383776,0.000862833228893578
1761508342701950000,0.265949951171875,0.0027238409966230392,-0.0012633351143449545,-0.0009678236674517393
1761508342711921000,0.2759208984375,-0.000893421471118927,-0.0027389200404286385,-0.0004616316291503608
1761508342721891800,0.285891845703125,-0.000007120892405509949,-0.002795645035803318,-0.0016603204421699047
1761508342731864000,0.295864013671875,-0.0000477377325296402,-0.00044490175787359476,-0.0014490800676867366
1761508342741834800,0.305834716796875,-0.0001425463706254959,-0.0012814006768167019,0.00008942803833633661
1761508342751806000,0.315805908203125,-0.0022889915853738785,0.0010459036566317081,0.001240389421582222
1761508342761778000,0.32577783203125,-0.0012325160205364227,0.0023409989662468433,0.002144532511010766
1761508342771749000,0.3357490234375,0.0024050474166870117,-0.00009270175360143185,-0.001343924319371581
1761508342781719800,0.3457197265625,-0.00032762158662080765,-0.0008386530680581927,0.0032337834127247334
1761508342791692000,0.355692138671875,-0.00003366218879818916,0.0007438848842866719,0.001064326032064855
1761508342801663000,0.3656630859375,-0.0007407311350107193,-0.00037597434129565954,-0.0010230595944449306
1761508342811635000,0.375635009765625,-0.0007313205860555172,-0.00012571376282721758,-0.0008513192879036069
1761508342821606000,0.38560595703125,0.0004540523514151573,0.0002007897710427642,0.0011721504852175713
1761508342831577000,0.3955771484375,-0.00038642995059490204,-0.00035412004217505455,-0.000827022478915751
1761508342841548800,0.405548828125,-0.0012138737365603447,-0.001384497038088739,-0.001112779718823731
1761508342851520000,0.41552001953125,-0.0005199913866817951,-0.0003853072412312031,0.0036740375217050314
1761508342861491000,0.425490966796875,0.002418274525552988,0.0017817069310694933,-0.0017063466366380453
1761508342871463200,0.435463134765625,-0.001426253467798233,0.0005945623270235956,-0.000425570469815284
1761508342881433900,0.445433837890625,-0.0014467593282461166,0.001738123712129891,0.0022772718220949173
1761508342891405000,0.455405029296875,-0.0008052927441895008,-0.0006373391952365637,-0.0011872007744386792
1761508342901377000,0.465376953125,0.00041203759610652924,0.0006598865729756653,-0.0016362096648663282
1761508342911348200,0.47534814453125,-0.0017109951004385948,0.0031148367561399937,0.0016643309500068426
1761508342921320000,0.48531982421875,-0.002517400309443474,0.0001427490497007966,0.0033804718405008316
1761508342931291100,0.495291015625,0.0016190330497920513,0.000016607926227152348,-0.000189965998288244
1761508342941262000,0.505261962890625,-0.002002066932618618,-0.0006103001069277525,0.0011506692972034216
1761508342951234000,0.515234130859375,-0.0026508131995797157,0.00013804808259010315,-0.00015641015488654375
1761508342961205000,0.525205078125,-0.0016689058393239975,0.0004592253244481981,0.0004553179023787379
1761508342971176000,0.535176025390625,0.0015580467879772186,0.0013447263045236468,0.0009690416045486927
1761508342981148000,0.54514794921875,0.0005953139625489712,-0.00331021286547184,0.0006481307791545987
1761508342991118800,0.555118896484375,0.0011749579571187496,-0.0020880235824733973,-0.00006921100430190563
1761508343001091000,0.565091064453125,0.001132613979279995,0.000741851341444999,-0.0013443324714899063
1761508343011062000,0.57506201171875,-0.0024569747038185596,0.0017782406648620963,-0.00047048210399225354
1761508343021033000,0.585032958984375,0.0012253783643245697,-0.0006758621893823147,-0.0009759500389918685
1761508343031005000,0.5950048828125,-0.0009857704862952232,-0.001107232877984643,-0.000708830077201128
1761508343040976100,0.60497607421875,-0.0001434125006198883,0.00001635483931750059,-0.00029390957206487656
1761508343050947000,0.614947021484375,-0.0005616000853478909,0.000005943700671195984,-0.0013046851381659508
1761508343060919000,0.6249189453125,0.001162530854344368,-0.0003695619525387883,0.0014144021552056074
1761508343070890000,0.634889892578125,-0.0004668962210416794,-0.0007336687995120883,-0.0009679891518317163
1761508343080861200,0.644861083984375,-0.0006418656557798386,-0.0014449992449954152,-0.0011946242302656174
1761508343090833000,0.6548330078125,0.001775273121893406,-0.00043548340909183025,0.0004480599891394377
1761508343100804000,0.66480419921875,-0.0006697745993733406,-0.00039686751551926136,0.000559113803319633
1761508343110776000,0.674776123046875,0.0004914384335279465,-0.0006303666159510612,-0.0028603796381503344
1761508343120747000,0.6847470703125,0.0013529714196920395,-0.001376051688566804,0.0011559335980564356
1761508343130718000,0.694718017578125,0.00018061045557260513,-0.0006884342292323709,0.0006721169920638204
1761508343140690200,0.704690185546875,-0.0014167530462145805,0.0005209071678109467,0.0013014220166951418
1761508343150660900,0.714660888671875,0.00018208101391792297,0.001756108133122325,0.001904576551169157
1761508343160631800,0.7246318359375,-0.002279479056596756,-0.0012109194649383426,0.0021948611829429865
1761508343170604000,0.73460400390625,-0.0006279498338699341,0.0005584618193097413,0.0017809087876230478
1761508343180575000,0.744574951171875,-0.0008942661806941032,0.0017523568822070956,0.0014876946806907654
1761508343190546000,0.7545458984375,-0.002319809515029192,-0.000630716560408473,0.001095874235033989
1761508343200518100,0.76451806640625,0.00019714375957846642,0.001669455785304308,-0.0006977648008614779
1761508343210489000,0.774489013671875,-0.002234797924757004,-0.0016689742915332317,0.0015765875577926636
1761508343220461000,0.7844609375,0.00029786815866827965,-0.0007728205528110266,0.0012458229903131723
1761508343230432000,0.794431884765625,-0.0004491405561566353,-0.00015459803398698568,-0.0022657811641693115
1761508343240403200,0.8044033203125,-0.0011572744697332382,0.0009721854003146291,0.0006093675037845969
1761508343250375000,0.814375,-0.00027336180210113525,-0.0012020508293062449,0.0014648066135123372
1761508343260346000,0.82434619140625,-0.000014236196875572205,-0.0015578493475914001,0.00008768599946051836
1761508343270317000,0.834317138671875,0.0016147857531905174,-0.0007511057192459702,-0.0013780316803604364
1761508343280289300,0.844289306640625,0.0005252864211797714,-0.0009907904313877225,0.002268102252855897
1761508343290260000,0.854260009765625,-0.00011979741975665092,0.003490399569272995,0.0016483655199408531
1761508343300232200,0.864232177734375,0.0012764977291226387,-0.0009376383386552334,-0.00025952316354960203
1761508343310203100,0.874203125,0.0020886827260255814,0.0013189306482672691,0.0006862907903268933
1761508343320174300,0.88417431640625,-0.00030603213235735893,-0.0018041583243757486,0.0026391868013888597
1761508343330146000,0.89414599609375,0.00032202620059251785,-0.00036971934605389833,-0.00042256293818354607
1761508343340117200,0.9041171875,0.000819238368421793,-0.000032030511647462845,0.0012227380648255348
1761508343350088200,0.914088134765625,-0.0007225009612739086,-0.0006048680515959859,0.00001112010795623064
1761508343360060200,0.92406005859375,0.0024570468813180923,-0.0002080569975078106,0.0004619932733476162
1761508343370031000,0.934031005859375,-0.0013168277218937874,0.0005058743408881128,0.00028869754169136286
1761508343380003300,0.94400341796875,0.0005559073761105537,-0.001302678370848298,0.001428530435077846
1761508343389974000,0.95397412109375,-0.001987507101148367,-0.0021875957027077675,-0.00005335255991667509
1761508343399945000,0.963945068359375,0.00001838570460677147,-0.0034467382356524467,-0.0009862579172477126
1761508343409917200,0.973917236328125,-0.0025354516692459583,0.0014648507349193096,-0.001181572675704956
1761508343419888000,0.98388818359375,-0.000426227692514658,-0.0003958999877795577,-0.0033123679459095
1761508343429859000,0.993859130859375,-0.0013984544202685356,-0.0006938010919839144,-0.00031959248008206487
1761508343439831000,1.0038310546875,0.000566425733268261,0.0006289909360930324,-0.00040507997618988156
1761508343449802200,1.01380224609375,0.0028873253613710403,-0.0006132407579571009,-0.0003574306610971689
1761508343459773200,1.023773193359375,-0.0024400618858635426,0.00007678428664803505,-0.003564142854884267
1761508343469745200,1.0337451171875,0.0007984382100403309,0.00008528318721801043,-0.001715711783617735
1761508343479716000,1.043716064453125,0.0009419824928045273,-0.000475312233902514,-0.000966031919233501
1761508343489688000,1.05368798828125,-0.00004272209480404854,0.0022247082088142633,0.0006524506025016308
1761508343499659000,1.063658935546875,-0.0010240967385470867,0.0009477224666625261,0.001343540963716805
1761508343509630200,1.073630126953125,-0.00038218311965465546,-0.0019251659978181124,0.00014297571033239365
1761508343519602200,1.083602294921875,0.0013768342323601246,0.0008466521394439042,-0.003199291415512562
1761508343529573000,1.093572998046875,-0.001959640998393297,0.0006639130879193544,-0.0012532079126685858
1761508343539544000,1.1035439453125,-0.0007492336444556713,0.000415706483181566,-0.004392275586724281
1761508343549516300,1.113516357421875,-0.0019111628644168377,0.0017127535538747907,0.0009039384312927723
1761508343559487200,1.1234873046875,0.0011812997981905937,0.001832595793530345,0.0009662562515586615
1761508343569459200,1.133459228515625,0.001271597109735012,-0.0014171723742038012,-0.0033955846447497606
1761508343579430100,1.14343017578125,-0.001215529628098011,-0.0009045139886438847,0.0004228557227179408
1761508343589401000,1.153401123046875,0.0006392751820385456,0.0007596206851303577,-0.0017103836871683598
1761508343599373000,1.163373046875,-0.00011253543198108673,-0.000646528322249651,-0.00005762581713497639
1761508343609344000,1.173343994140625,-0.00007154839113354683,0.0003069789381697774,0.0036025242879986763
1761508343619315200,1.183315185546875,-0.00014025764539837837,-0.0002725248923525214,-0.003071357263252139
1761508343629287000,1.193286865234375,0.0007888521067798138,0.0016876196023076773,0.001060274662449956
1761508343639258000,1.203258056640625,-0.003479662351310253,-0.0011598322307690978,0.0021090274676680565
1761508343649230000,1.21322998046875,0.00032335054129362106,-0.0023162378929555416,0.0005018131341785192
1761508343659201000,1.223200927734375,0.0011795568279922009,0.0007842144113965333,0.00010739907156676054
1761508343669172000,1.233171875,0.00024682143703103065,-0.00016877055168151855,0.0009255055338144302
1761508343679144200,1.243144287109375,-0.0014834338799118996,0.0007201926200650632,0.0004559902008622885
1761508343689115100,1.253115234375,-0.0015937401913106441,-0.0010745639447122812,0.001581159420311451
1761508343699086000,1.263086181640625,-0.002941299695521593,0.0006993675488047302,0.00022800720762461424
1761508343709058000,1.27305810546875,0.0007443767972290516,-0.0008168384665623307,-0.0003093004343099892
1761508343719029200,1.283029296875,-0.00024685170501470566,0.0015312707982957363,-0.0009010548237711191
1761508343729000200,1.293000244140625,-0.002171013504266739,0.002573917154222727,0.0008163900347426534
1761508343738972200,1.30297216796875,-0.0011893725022673607,0.0015637802425771952,-0.00003182678483426571
1761508343748943000,1.312943115234375,0.0025612018071115017,-0.0016878232127055526,0.0010984271066263318
1761508343758915000,1.3229150390625,0.00009857676923274994,-0.000523222959600389,-0.0024041621945798397
1761508343768886000,1.332885986328125,0.0023725684732198715,0.00006516545545309782,0.00023105612490326166
1761508343778857200,1.342857177734375,0.0009118248708546162,0.0014534712536260486,0.004343775566667318
1761508343788829200,1.3528291015625,0.0008042161352932453,-0.0009442276787012815,-0.0013610697351396084
1761508343798800100,1.362800048828125,0.0026734890416264534,-0.00011704978533089161,0.0004168566083535552
1761508343808771000,1.37277099609375,0.0007273508235812187,0.00020439783111214638,-0.002231367863714695
1761508343818743300,1.382743408203125,-0.00031394511461257935,0.001660880632698536,0.002629966475069523
1761508343828714200,1.39271435546875,0.00010322732850909233,-0.0006548648234456778,0.0010822245385497808
1761508343838686200,1.402686279296875,0.001527219545096159,-0.0018982947804033756,0.0007061860524117947
1761508343848657200,1.4126572265625,0.0005787466652691364,0.0010972028831019998,-0.0022849738597869873
1761508343858628000,1.422628173828125,-0.0022924067452549934,-0.000002416316419839859,0.0012602260103449225
1761508343868600000,1.43260009765625,-0.0002841218374669552,-0.0003458451246842742,0.0012673947494477034
1761508343878571000,1.442571044921875,0.0008775489404797554,-0.0012065786868333817,0.0012330401223152876
1761508343888542200,1.452542236328125,0.0013940073549747467,-0.0009746624855324626,-0.0010003881761804223
1761508343898514000,1.462513916015625,0.0015804287977516651,-0.000298219732940197,-0.00022221251856535673
1761508343908485000,1.472485107421875,0.00045430660247802734,0.0016722161090001464,-0.0018009636551141739
1761508343918456000,1.4824560546875,-0.0009017749689519405,-0.0008431394817307591,0.001575658330693841
1761508343928428300,1.49242822265625,-0.0008465107530355453,-0.0008124420419335365,-0.002670351881533861
1761508343938399000,1.50239892578125,-0.0004952391609549522,-0.0011671751271933317,0.0001283641904592514
1761508343948371200,1.51237109375,0.0002621607854962349,0.0017986183520406485,-0.0004115767660550773
1761508343958342100,1.522342041015625,-0.0005021663382649422,-0.0007132751634344459,-0.0010723070008680224
1761508343968313300,1.532313232421875,0.0024158814921975136,-0.0018004804151132703,-0.0009673041058704257
1761508343978285000,1.54228515625,-0.00017457501962780952,0.0003979590255767107,0.001123543712310493
1761508343988256300,1.55225634765625,0.0013288697227835655,-0.0009264930849894881,-0.0005377360503189266
1761508343998227200,1.562227294921875,0.0004913057200610638,0.0008149479399435222,-0.0014147150795906782
1761508344008199200,1.57219921875,0.0009373519569635391,0.000837226863950491,-0.0004827823140658438
1761508344018170000,1.582170166015625,-0.001737793441861868,-0.0012184672523289919,0.0005699652247130871
1761508344028142300,1.592142333984375,-0.0008820877410471439,-0.0011864127591252327,0.0009996219305321574
1761508344038113000,1.602113037109375,-0.0014155185781419277,0.00104105519130826,0.0014411740703508258
1761508344048084000,1.612083984375,0.0005953377112746239,-0.001883103628642857,0.0028510952834039927
1761508344058056200,1.62205615234375,-0.0011277277953922749,0.0007587521686218679,0.000646796659566462
1761508344068027100,1.632027099609375,0.001213542651385069,-0.00258639152161777,-0.002116129267960787
1761508344077998000,1.641998046875,-0.0014086058363318443,0.0005787755362689495,-0.00014086259761825204
1761508344087970000,1.651969970703125,-0.00003952067345380783,0.0007634781068190932,-0.0032492629252374172
1761508344097941200,1.661941162109375,-0.0009226249530911446,0.0008303234935738146,-0.002259365748614073
1761508344107913000,1.671912841796875,0.0007753479294478893,-0.0014708528760820627,0.0007865587249398232
1761508344117884200,1.68188427734375,-0.0008281413465738297,0.0023537129163742065,-0.00006858236156404018
1761508344127855000,1.691855224609375,0.0011183121241629124,0.0012956643477082253,-0.0013617293443530798
1761508344137827000,1.7018271484375,0.0021689292043447495,0.000009623821824789047,-0.0011172511149197817
1761508344147798000,1.711798095703125,0.0005746758542954922,-0.0008562473813071847,0.0012142501072958112
1761508344157769200,1.721769287109375,0.0034610098227858543,-0.0009768885793164372,-0.0012571633560582995
1761508344167741200,1.7317412109375,0.000032349489629268646,-0.0030662971548736095,0.0012749432353302836
1761508344177712000,1.741712158203125,-0.000055534765124320984,0.002531667472794652,-0.0005748883704654872
1761508344187684400,1.751684326171875,0.0002631722018122673,-0.00036002497654408216,-0.0014905715361237526
1761508344197655600,1.761655517578125,0.0002469266764819622,0.0004362602485343814,0.0009528788505122066
1761508344207626200,1.771626220703125,0.002655637916177511,-0.0005807246780022979,0.0022449390962719917
1761508344217598500,1.781598388671875,0.00018289266154170036,-0.000029982998967170715,-0.0017751024570316076
1761508344227569400,1.7915693359375,-0.0012971931137144566,-0.0010949085699394345,0.0021391818299889565
1761508344237540600,1.80154052734375,0.00012546777725219727,-0.0006144744111225009,-0.0029959252569824457
1761508344247512300,1.81151220703125,-0.001925674732774496,-0.00034868402872234583,-0.0013076181057840586
1761508344257483500,1.8214833984375,-0.0016276673413813114,-0.0010735965333878994,0.0033611697144806385
1761508344267455200,1.831455322265625,-0.0005925982259213924,0.0008598205167800188,0.00006158649921417236
1761508344277426400,1.841426513671875,0.0006966381333768368,0.0007117487257346511,0.0018379149259999394
1761508344287397400,1.8513974609375,0.0008140234276652336,0.0008285405929200351,0.00047336635179817677
1761508344297369600,1.86136962890625,-0.001196929719299078,-0.00023299537133425474,0.0004081189399585128
1761508344307340300,1.87134033203125,0.00011320505291223526,-0.00023529923055320978,0.0021443134173750877
1761508344317311200,1.881311279296875,-0.0011459379456937313,-0.0009841801365837455,0.0003373586805537343
1761508344327283500,1.891283447265625,-0.0023882389068603516,-0.0015646908432245255,-0.0014998851111158729
1761508344337254400,1.90125439453125,0.001395313534885645,-0.0005281886551529169,-0.0015992210246622562
1761508344347225300,1.911225341796875,0.0003808452747762203,0.0006553056882694364,-0.0016993944300338626
1761508344357197300,1.921197265625,0.0025023194029927254,0.001335743349045515,0.0011659006122499704
1761508344367168500,1.93116845703125,-0.0009382897987961769,-0.0016018854221329093,0.00036273570731282234
1761508344377140200,1.94114013671875,0.0012897113338112831,-0.001002674107439816,0.001105757663026452
1761508344387111400,1.951111328125,-0.0015512965619564056,-0.0006451645167544484,0.0003346855519339442
1761508344397082400,1.961082275390625,-0.001439443789422512,0.0015761781251057982,0.0024036953691393137
1761508344407054300,1.971054443359375,0.0005118283443152905,-0.00009055470582097769,-0.0018063945462927222
1761508344417025300,1.981025390625,-0.0009939223527908325,0.0008894885540939867,-0.0016798943979665637
1761508344426996500,1.99099658203125,0.0015943357720971107,-0.0008360525825992227,-0.00038857065374031663
1761508344436968400,2.000968505859375,-0.002610263414680958,0.002940309699624777,-0.0018812724156305194
1761508344446939400,2.010939453125,-0.0006975149735808372,0.0008222535834647715,0.001176421414129436
1761508344456911400,2.020911376953125,0.0016149072907865047,0.0007298418786376715,-0.0007096291519701481
1761508344466882600,2.030882568359375,-0.0009504072368144989,-0.0003457603743299842,-0.00011215778067708015
1761508344476853200,2.040853271484375,0.001981999259442091,0.0017264452762901783,-0.0011284200008958578
1761508344486825500,2.050825439453125,0.0002876953221857548,0.0006892933160997927,0.0001861948985606432
1761508344496796400,2.06079638671875,0.0023521780967712402,-0.0015624093357473612,0.0004956542979925871
1761508344506767400,2.070767333984375,-0.00009511318057775497,-0.000016856123693287373,-0.000759774586185813
1761508344516739300,2.0807392578125,0.00038585346192121506,-0.0006789178587496281,0.0009888570057228208
1761508344526710300,2.090710205078125,0.00023588351905345917,0.0007803441258147359,-0.0010806844802573323
1761508344536682200,2.10068212890625,0.0003799605183303356,0.0004501121584326029,-0.0014948060270398855
1761508344546653200,2.110653076171875,-0.00006770296022295952,-0.001168442191556096,0.000014387653209269047
1761508344556624400,2.120624267578125,-0.0006682458333671093,0.000008674920536577702,0.001376594533212483
1761508344566596400,2.130596435546875,0.002131763380020857,0.0011388927232474089,0.0014796237228438258
1761508344576567300,2.1405673828125,-0.002697346732020378,-0.00035114586353302,-0.002326033543795347
1761508344586538200,2.150538330078125,0.0014206538908183575,0.002632787451148033,0.001913979183882475
1761508344596510500,2.160510498046875,-0.0003029443323612213,-0.0000908274669200182,-0.00022906652884557843
1761508344606481400,2.1704814453125,0.0005650743842124939,-0.00013763236347585917,-0.0014722580090165138
1761508344616453400,2.180453369140625,-0.001129229087382555,-0.0011448399163782597,0.0015344507992267609
1761508344626424300,2.19042431640625,0.0009952071122825146,-0.0014433868927881122,-0.0009951023384928703
1761508344636395500,2.2003955078125,-0.002068759873509407,0.0005800829967483878,-0.0006795177469030023
1761508344646367200,2.2103671875,0.0011242367327213287,-0.0011423652758821845,0.001563957310281694
1761508344656338400,2.22033837890625,-0.00043557677417993546,-0.0007229173788800836,0.00168246787507087
1761508344666309400,2.230309326171875,-0.0006289849989116192,0.0004549948498606682,-0.00010242639109492302
1761508344676281300,2.24028125,0.00031750230118632317,-0.0008124036248773336,0.0015026609180495143
1761508344686252300,2.250252197265625,-0.004555255174636841,0.0007765109767206013,-0.0006030153599567711
1761508344696223200,2.26022314453125,-0.000005776993930339813,0.0013759885914623737,0.001310732215642929
1761508344706195500,2.270195556640625,0.0007909862324595451,-0.0026806509122252464,0.000854943529702723
1761508344716166100,2.280166259765625,-0.0025203884579241276,0.00008743838407099247,-0.001566935097798705
1761508344726138400,2.290138427734375,-0.0012527862563729286,0.0008296751184388995,-0.0010164085542783141
1761508344736109300,2.300109375,-0.001466372050344944,-0.001706719514913857,0.00048721220809966326
1761508344746080500,2.31008056640625,0.0005490770563483238,0.0003088300582021475,0.0007664164295420051
1761508344756052200,2.32005224609375,-0.0020142155699431896,0.0009794140933081508,0.0014242171309888363
1761508344766023400,2.3300234375,0.0012300307862460613,-0.0022269762121140957,0.0007071886211633682
1761508344775994400,2.339994384765625,-0.0005857120268046856,0.001142455032095313,-0.0012883179588243365
1761508344785966300,2.34996630859375,-0.0012192558497190475,0.0009180944180116057,0.00021453562658280134
1761508344795937300,2.359937255859375,0.0012425705790519714,0.00029251782689243555,-0.0002003848785534501
1761508344805909500,2.369909423828125,-0.0002977810800075531,-0.0014865412376821041,-0.0014616145053878427
1761508344815880200,2.379880126953125,-0.0009273523464798927,-0.0013592422474175692,0.00017010432202368975
1761508344825851400,2.389851318359375,-0.0007005687803030014,0.0017380304634571075,-0.0001210805494338274
1761508344835823400,2.3998232421875,-0.001071547158062458,-0.0005131395300850272,-0.001096063875593245
1761508344845794600,2.409794677734375,-0.0014329375699162483,-0.0004931658040732145,0.000944716390222311
1761508344855765200,2.41976513671875,0.00021483562886714935,-0.001723857712931931,0.002478076843544841
1761508344865737500,2.429737548828125,0.0012054857797920704,-0.0016301933210343122,-0.0011495669605210423
1761508344875708400,2.43970849609375,-0.0011295736767351627,0.002750706858932972,0.0003801527200266719
1761508344885680400,2.449680419921875,-0.003512867260724306,0.0005057879607193172,-0.0009601154597476125
1761508344895651300,2.4596513671875,-0.0009959139861166477,0.0001800834434106946,-0.002042424166575074
1761508344905622500,2.46962255859375,-0.000575752928853035,0.000300132785923779,-0.0009866099571809173
1761508344915594200,2.47959423828125,0.0005113496445119381,-0.0013640766264870763,-0.0002582354354672134
1761508344925565400,2.4895654296875,-0.00010877475142478943,0.0002290352713316679,-0.0000016540288925170898
1761508344935536400,2.499536376953125,-0.0005734963342547417,0.0008620686712674797,-0.0014448210131376982
1761508344945508600,2.509508544921875,0.0015264754183590412,-0.0001967521384358406,-0.001731737283989787
1761508344955479300,2.519479248046875,0.0008891806937754154,-0.0003006154438480735,0.0022470252588391304
1761508344965450200,2.5294501953125,0.0008888649754226208,0.0017868774011731148,0.0006069773808121681
1761508344975422500,2.53942236328125,0.0010577095672488213,0.0011439903173595667,0.00031775818206369877
1761508344985393400,2.549393310546875,-0.0013847872614860535,-0.0008943385910242796,0.0010815936839208007
1761508344995365400,2.559365478515625,0.0011484120041131973,0.0036700530909001827,0.000999302021227777
1761508345005336300,2.56933642578125,-0.0008206311613321304,0.0009906023042276502,0.002570515498518944
1761508345015307500,2.5793076171875,-0.00035431142896413803,-0.0003793278010562062,0.00008951453492045403
1761508345025279200,2.589279296875,0.002621293067932129,0.000500710099004209,-0.0006272308528423309
1761508345035250400,2.59925048828125,0.0002979510463774204,-0.0008780083153396845,0.00015307532157748938
1761508345045221400,2.609221435546875,0.0022427858784794807,-0.0005844265688210726,0.00038192595820873976
1761508345055193300,2.619193359375,-0.0001434064470231533,0.0007908297120593488,0.0004029648844152689
1761508345065164300,2.629164306640625,-0.0015937881544232368,0.0008420021622441709,0.00025746715255081654
1761508345075136500,2.639136474609375,-0.0023623760789632797,0.0013370837550610304,0.0013818537117913365
1761508345085107200,2.649107177734375,0.0034049726091325283,-0.0014362843940034509,0.00022761092986911535
1761508345095078400,2.659078369140625,-0.00024116132408380508,0.0024199727922677994,-0.0014262120239436626
1761508345105050400,2.66905029296875,-0.0010490575805306435,0.00048126920592039824,-0.0005628343205899
1761508345115021600,2.679021484375,-0.0014389446005225182,-0.0008939871331676841,-0.0013205036520957947
1761508345124992300,2.6889921875,-0.002340007573366165,0.0007667649770155549,0.001718456158414483
1761508345134964500,2.698964599609375,0.0011229012161493301,-0.00002312858123332262,-0.00030874210642650723
1761508345144935400,2.708935302734375,-0.0022107893601059914,0.0005865927087143064,-0.0006565620424225926
1761508345154907400,2.718907470703125,-0.00019371090456843376,0.0014739580219611526,0.0014630479272454977
1761508345164878300,2.72887841796875,-0.0012837969698011875,0.0008884305134415627,0.002078920602798462
1761508345174849300,2.738849365234375,-0.00018364517018198967,-0.0010546117555350065,-0.00038556853542104363
1761508345184821200,2.7488212890625,-0.0013317717239260674,-0.0016031429404392838,-0.00008548307232558727
1761508345194792400,2.75879248046875,-0.0008800989016890526,-0.0007128483848646283,0.000367520609870553
1761508345204763400,2.768763427734375,-0.0012783198617398739,-0.0021247700788080692,-0.00021601567277684808
1761508345214735600,2.778735595703125,-0.0009209229610860348,-0.0027282428927719593,-0.0014903382398188114
1761508345224706300,2.788706298828125,-0.0022117318585515022,0.0010908190160989761,-0.0002730131382122636
1761508345234678500,2.798678466796875,-0.002475917339324951,0.0015387627063319087,0.001340862363576889
1761508345244649500,2.8086494140625,0.0005600554868578911,-0.00026888109277933836,-0.0008757349569350481
1761508345254620700,2.81862060546875,-0.00024075713008642197,-0.0004931192379444838,-0.0003273900947533548
1761508345264592400,2.82859228515625,-0.0012350566685199738,-0.0006184929516166449,0.0006582023343071342
1761508345274563600,2.8385634765625,-0.0001327740028500557,-0.0011625769548118114,-0.0002872198820114136
1761508345284534500,2.848534423828125,-0.0005952124483883381,-0.00204715458676219,-0.0004768674261868
1761508345294506500,2.858506591796875,-0.0005142525769770145,-0.0001294122776016593,0.001882427022792399
1761508345304477400,2.8684775390625,-0.002054348587989807,-0.0003318906528875232,-0.00032511440804228187
1761508345314449700,2.87844970703125,0.0012538298033177853,-0.0002714368747547269,-0.00005693407729268074
1761508345324420400,2.88842041015625,-0.0013213027268648148,-0.00026408443227410316,0.0017611708026379347
1761508345334391600,2.8983916015625,0.00041587743908166885,0.0018054579850286245,-0.002098814817145467
1761508345344363500,2.908363525390625,-0.0010526026599109173,-0.0009966747602447867,0.00010500650387257338
1761508345354334700,2.918334716796875,0.0026633059605956078,-0.0020824456587433815,0.0016371231758967042
1761508345364305400,2.928305419921875,-0.000809844583272934,0.0010870678815990686,0.0017747139791026711
1761508345374277600,2.938277587890625,-0.0009283553808927536,-0.0016336174448952079,0.00032488908618688583
1761508345384248600,2.94824853515625,0.0017404328100383282,-0.0003908163635060191,0.00009630643762648106
1761508345394219500,2.958219482421875,-0.0004374999552965164,-0.00018575286958366632,0.0046859984286129475
1761508345404191500,2.96819140625,0.004045066423714161,0.00005630368832498789,0.0006620666244998574
1761508345414162400,2.978162353515625,-0.0027446625754237175,0.000631013885140419,-0.0011070712935179472
1761508345424134400,2.988134521484375,0.0002589914947748184,0.0015423602890223265,0.0001708409981802106
1761508345434105300,2.998105224609375,0.0008068038150668144,-0.0016659499378874898,0.00018069474026560783
1761508345444076500,3.00807666015625,-0.0014236792922019958,0.00024567812215536833,0.0007336336420848966
1761508345454048500,3.018048583984375,-0.0011616246774792671,0.0003897551214322448,-0.0013992920285090804
1761508345464019500,3.02801953125,-0.0013565011322498322,0.0023700927849859,-0.001721925102174282
1761508345473990400,3.037990478515625,-0.0018659643828868866,-0.002378056989982724,0.0000946171348914504
1761508345483962600,3.047962646484375,-0.0007621818222105503,-0.00009010825306177139,0.0001914609456434846
1761508345493933300,3.057933349609375,0.001334258820861578,-0.0009255419718101621,-0.0000016182893887162209
1761508345503905500,3.067905517578125,-0.001310556661337614,0.001025691395625472,-0.0028152072336524725
1761508345513876500,3.07787646484375,0.0017432896420359612,0.000864570087287575,0.0004202671116217971
1761508345523847700,3.08784765625,-0.0015083434991538525,0.00043060805182904005,0.0001754937693476677
1761508345533819400,3.0978193359375,-0.0021802582778036594,-0.0007425143849104643,0.0012815045192837715
1761508345543790600,3.10779052734375,0.0003393227234482765,0.000013883458450436592,-0.0003666090196929872
1761508345553761500,3.117761474609375,-0.0009176894091069698,0.00006954360287636518,-0.0007447778480127454
1761508345563733500,3.1277333984375,0.0010123290121555328,0.00010296853724867105,0.002942296676337719
1761508345573704400,3.137704345703125,-0.0001346943899989128,-0.000013411510735750198,-0.0027504763565957546
1761508345583676700,3.1476767578125,0.0009111613035202026,0.0007093810709193349,-0.0007643222343176603
1761508345593647400,3.1576474609375,0.0015484560281038284,-0.000902363914065063,0.002527611330151558
1761508345603618300,3.167618408203125,-0.0009002732113003731,-0.0026473687030375004,-0.0012435328681021929
1761508345613590500,3.177590576171875,0.0010670037008821964,-0.000512045924551785,0.00036501651629805565
1761508345623561500,3.1875615234375,-0.00124409981071949,0.001586945028975606,0.0024839050602167845
1761508345633532400,3.197532470703125,0.001214797142893076,-0.0009244158864021301,-0.0014040437527000904
1761508345643504400,3.20750439453125,-0.00231513986364007,0.00041431246791034937,-0.001124911941587925
1761508345653475600,3.2174755859375,0.0010249968618154526,-0.0027647032402455807,0.00015100848395377398
1761508345663447300,3.227447265625,-0.0010135667398571968,-0.0018881370779126883,0.002852659672498703
1761508345673418500,3.23741845703125,0.0009941901080310345,0.0007918018382042646,0.0007077498594298959
1761508345683389400,3.247389404296875,-0.0004156464710831642,0.0019737984985113144,-0.0013474932638928294
1761508345693361400,3.257361328125,0.0006333724595606327,0.000199067872017622,0.0007564040133729577
1761508345703332400,3.267332275390625,0.0011720983311533928,0.0007060604402795434,0.0022352493833750486
1761508345713303600,3.277303466796875,0.0008173654787242413,-0.0011176723055541515,0.0019412364345043898
1761508345723275500,3.287275634765625,0.003578164614737034,0.0017444062978029251,0.0007738230051472783
1761508345733246500,3.29724658203125,-0.00015452178195118904,-0.0010481842327862978,0.0015426776371896267
1761508345743218400,3.307218505859375,0.0014923149719834328,0.0005857081850990653,-0.0008999875281006098
1761508345753189600,3.317189697265625,0.0012997686862945557,0.0005745228845626116,0.0005378531059250236
1761508345763160600,3.32716064453125,-0.002294648438692093,-0.0017780992202460766,0.0016706482274457812
1761508345773132500,3.337132568359375,-0.0009489534422755241,0.001971897901967168,-0.003879113122820854
1761508345783103500,3.347103515625,0.0005910615436732769,0.0003770202165469527,0.0014273672131821513
1761508345793074700,3.35707470703125,0.002141820266842842,-0.0015508420765399933,0.000054507749155163765
1761508345803046400,3.36704638671875,-0.0018708058632910252,0.00007013545837253332,0.001260835211724043
1761508345813017600,3.377017578125,0.0012919637374579906,0.0019718988332897425,-0.0010704960441216826
1761508345822989600,3.386989501953125,0.0004550982266664505,0.0019376336131244898,0.0011053724447265267
1761508345832960500,3.39696044921875,0.00011554500088095665,-0.0002056785160675645,-0.0006536454893648624
1761508345842931500,3.406931396484375,0.001516096293926239,-0.0005646731005981565,0.001038527931086719
1761508345852903700,3.416903564453125,-0.001353725790977478,-0.000955891446210444,0.0005333262961357832
1761508345862874600,3.42687451171875,-0.0007437057793140411,0.0013469361001625657,-0.002420536009594798
1761508345872845300,3.43684521484375,-0.0005647409707307816,-0.0021111785899847746,0.0018652891740202904
1761508345882817500,3.446817626953125,-0.00020533287897706032,-0.0004065029788762331,-0.0001386611838825047
1761508345892788500,3.45678857421875,-0.0019198758527636528,0.00014530401676893234,0.0006216713227331638
1761508345902760400,3.466760498046875,0.0021608592942357063,0.0012822281569242477,0.00234382227063179
1761508345912731400,3.4767314453125,-0.0021236338652670383,0.00009845301974564791,-0.0003433071542531252
1761508345922702600,3.48670263671875,-0.0003757220692932606,0.0019178404472768307,0.0013341562589630485
1761508345932674300,3.49667431640625,0.001240017358213663,0.0013409997336566448,-0.002972974209114909
1761508345942645500,3.5066455078125,0.0002512573264539242,0.0017354603623971343,-0.0010219782125204802
1761508345952616400,3.516616455078125,0.0006930758245289326,0.002564768772572279,0.00031705922447144985
1761508345962588700,3.526588623046875,-0.000053454190492630005,-0.0011790657881647348,-0.0016639981186017394
1761508345972559400,3.536559326171875,0.00034921569749712944,-0.002009972231462598,0.0021834708750247955
1761508345982530600,3.546530517578125,-0.001796460710465908,0.0008428378496319056,-0.0030208760872483253
1761508345992502500,3.55650244140625,0.001384152565151453,-0.0010405495995655656,-0.00027835287619382143
1761508346002473500,3.566473388671875,0.00048041483387351036,-0.0019995984621345997,-0.00044735457049682736
1761508346012445400,3.576445556640625,0.002274586819112301,-0.0014041156973689795,0.000027487054467201233
1761508346022416600,3.586416748046875,-0.0000012279488146305084,0.0016402904875576496,0.0015277299098670483
1761508346032387600,3.5963876953125,-0.00007579661905765533,0.00013959920033812523,0.0014694065321236849
1761508346042359600,3.606359619140625,-0.0002988171763718128,0.0006992590497247875,0.00020742160268127918
1761508346052330500,3.61633056640625,-0.0019662226550281048,0.0025205949787050486,0.0026530022732913494
1761508346062301400,3.626301513671875,0.0018789307214319706,-0.0004853634163737297,0.0011827768757939339
1761508346072273400,3.6362734375,0.003418237902224064,0.0009910932276397943,-0.0023909190203994513
1761508346082244400,3.646244384765625,0.0008711745031177998,0.00289746280759573,-0.0013748779892921448
1761508346092216600,3.656216552734375,-0.00034748809412121773,-0.0009862250881269574,0.0004919979255646467
1761508346102187500,3.6661875,0.00007994426414370537,0.0006293919286690652,7.21542164683342e-7
1761508346112158500,3.676158447265625,0.0016682534478604794,-0.002922998508438468,0.0006105854408815503
1761508346122130400,3.68613037109375,0.0015038056299090385,-0.0009009449277073145,-0.0009303076658397913
1761508346132101600,3.6961015625,0.0016561388038098812,0.0019046951783820987,0.0010137999197468162
1761508346142072300,3.706072265625,-0.0003577987663447857,-0.00031084148213267326,0.0005343349184840918
1761508346152044500,3.71604443359375,0.001050746999680996,-0.0004756910493597388,0.002730643842369318
1761508346162015500,3.726015380859375,-0.001988708507269621,0.00008075148798525333,0.0008166802581399679
1761508346171987500,3.735987548828125,-0.000912525225430727,0.0008112565847113729,0.0025410770904272795
1761508346181958400,3.74595849609375,0.0009758425876498222,0.002058359095826745,-0.00011141353752464056
1761508346191929300,3.755929443359375,-0.000371451023966074,0.00029880867805331945,-0.0015303457621484995
1761508346201901300,3.7659013671875,0.00026444392278790474,0.0016493728617206216,-0.00005537457764148712
1761508346211872300,3.775872314453125,0.00038881367072463036,0.0010014257859438658,-0.0019515452440828085
1761508346221843500,3.785843505859375,0.00228873360902071,-0.0006125272484496236,0.0001608197344467044
1761508346231815400,3.7958154296875,0.0013228049501776695,0.0013725929893553257,0.0006295359926298261
1761508346241786400,3.805786376953125,-0.00014075078070163727,-0.0007344228215515614,0.0003922434989362955
1761508346251757300,3.81575732421875,-0.001290703658014536,0.0004083395469933748,0.0006867890479043126
1761508346261729500,3.8257294921875,-0.003390371333807707,0.0007372648688033223,0.0011847788700833917
1761508346271700500,3.835700439453125,0.0010350034572184086,-0.0008260107133537531,0.001968813594430685
1761508346281672400,3.84567236328125,-0.0014501996338367462,-0.0008337072795256972,-0.002260401379317045
1761508346291643400,3.855643310546875,0.0008869902230799198,0.0003966732183471322,0.0003412407822906971
1761508346301614300,3.8656142578125,-0.0020648017525672913,-0.000445486162789166,-0.0005910099716857076
1761508346311586300,3.87558642578125,-0.00033800769597291946,0.0026416501495987177,-0.001258930773474276
1761508346321557200,3.88555712890625,0.0004849713295698166,-0.0026515584904700518,0.000201420858502388
1761508346331528400,3.895528564453125,-0.0005464707501232624,0.0005548875778913498,0.00017212610691785812
1761508346341500200,3.905500244140625,0.0015961681492626667,0.0012015214888378978,-0.0008815964683890343
1761508346351471400,3.915471435546875,0.001258479431271553,-0.00036867824383080006,-0.00009250181028619409
1761508346361443300,3.925443359375,-0.0009699305519461632,0.0007057323819026351,0.0009428142802789807
1761508346371414500,3.93541455078125,-0.0016112197190523148,0.00006151373963803053,0.0007119183428585529
1761508346381385200,3.94538525390625,0.0012657633051276207,0.0024832854978740215,0.00024964672047644854
1761508346391357400,3.955357421875,-0.0010661003179848194,0.0005402431124821305,-0.00004143675323575735
1761508346401328400,3.965328369140625,0.0006510443054139614,-0.0005708461394533515,0.0003024147590622306
1761508346411299600,3.975299560546875,-0.0002483050338923931,-0.0017916391370818019,-0.0005503293941728771
1761508346421271300,3.985271240234375,-0.00046509550884366035,0.0002698836615309119,-0.0006255760090425611
1761508346431242500,3.995242431640625,0.0008422504179179668,0.000582272419705987,-0.0011139997513964772
1761508346441214200,4.005214111328125,-0.00002657296136021614,0.00034732965286821127,0.00019921665079891682
1761508346451184400,4.015184326171875,0.000010444782674312592,0.0012458801502361894,0.0016852604458108544
1761508346461155300,4.0251552734375,0.0006592408753931522,0.00011293042916804552,0.0012252993183210492
1761508346471127300,4.035127197265625,0.0009873425588011742,0.00037818122655153275,0.0002428591251373291
1761508346481098500,4.045098388671875,0.00038209138438105583,-0.0006014008540660143,0.0005155846010893583
1761508346491070200,4.0550703125,-0.0001832977868616581,-0.0020656066481024027,0.0010857672896236181
1761508346501041400,4.06504150390625,-0.0026191547513008118,-0.001834529684856534,0.00035570666659623384
1761508346511012400,4.075012451171875,-0.0012015542015433311,-0.0005697943270206451,0.002015654928982258
1761508346520984300,4.084984375,0.0004325755871832371,0.00031020946335047483,-0.0007168620359152555
1761508346530955300,4.094955322265625,-0.001435631886124611,0.0009714723564684391,-0.003123294562101364
1761508346540926500,4.104926513671875,-0.00028386712074279785,0.0007302478770725429,0.00024357647635042667
1761508346550898400,4.1148984375,-0.0009176991879940033,0.0020253430120646954,0.0029056721832603216
1761508346560869400,4.124869384765625,-0.0014266204088926315,0.0018095632549375296,-0.0001077053602784872
1761508346570841300,4.13484130859375,0.001976633444428444,0.0002931593917310238,-0.0012360867112874985
1761508346580812500,4.1448125,0.0014694146811962128,0.0013117266353219748,0.00200777780264616
1761508346590783200,4.154783203125,-0.000028613489121198654,-0.00013809814117848873,0.0008413131581619382
1761508346600755500,4.16475537109375,-0.002237706445157528,0.0004951250739395618,0.00036897521931678057
1761508346610726400,4.174726318359375,0.0005575474351644516,-0.0030191822443157434,-0.001084844465367496
1761508346620697300,4.184697265625,-0.0010693562217056751,0.0007537869969382882,0.003532659262418747
1761508346630669300,4.19466943359375,0.001324026845395565,0.003008152823895216,0.0019526057876646519
1761508346640640300,4.20464013671875,-0.0010068798437714577,-0.00016164500266313553,0.00011865224223583937
1761508346650612500,4.214612548828125,-0.0003485465422272682,0.0012929736403748393,-0.00030665454687550664
1761508346660583200,4.224583251953125,0.0011095497757196426,-0.0001804417697712779,0.0003976306179538369
1761508346670554400,4.234554443359375,-0.0024987668730318546,0.00022569030988961458,-0.00031822704477235675
1761508346680526300,4.2445263671875,-0.0012275492772459984,0.0007383470074273646,-0.0017803661758080125
1761508346690497300,4.254497314453125,-0.0016014575958251953,0.000795871252194047,-0.00003253354225307703
1761508346700468200,4.26446826171875,0.0009395820088684559,0.00025485025253146887,-0.0006625157548114657
1761508346710440400,4.2744404296875,-0.0016751098446547985,-0.00006739224772900343,-0.0001482593361288309
1761508346720411400,4.284411376953125,0.0002731774002313614,0.00017786631360650063,0.0016099243657663465
1761508346730383400,4.29438330078125,-0.00033908383920788765,0.0013680330011993647,-0.000917149125598371
1761508346740354300,4.304354248046875,0.0002141823060810566,0.0002945017768070102,0.0007023031357675791
1761508346750325500,4.314325439453125,0.0018648095428943634,0.0006308590527623892,0.0008399885846301913
1761508346760297200,4.324297119140625,-0.0012014643289148808,0.0002789268037304282,0.0025960239581763744
1761508346770268400,4.334268310546875,0.00033517973497509956,0.0006709440494887531,-0.0011102973949164152
1761508346780239400,4.3442392578125,-0.0002673231065273285,-0.0008823157986626029,0.0010669559706002474
1761508346790211300,4.35421142578125,-0.001023128628730774,0.0016825746279209852,0.0011593676172196865
1761508346800182300,4.364182373046875,-0.0005833813920617104,-0.0020675468258559704,-0.00041168800089508295
1761508346810154500,4.374154541015625,-0.0001652655191719532,0.0005615256959572434,-0.0021627163514494896
1761508346820125400,4.38412548828125,-0.0006335005164146423,-0.0021326837595552206,-0.002097279764711857
1761508346830097400,4.394097412109375,0.0017574853263795376,0.002801354508846998,0.001483872882090509
1761508346840068400,4.404068359375,-0.0014872574247419834,0.0014179294230416417,-0.0004303825553506613
1761508346850039600,4.41403955078125,-0.0016198833473026752,0.001412603072822094,0.000507582793943584
1761508346860011300,4.42401123046875,-0.00021736789494752884,0.00046659389045089483,-0.00033938285196200013
1761508346869982500,4.433982421875,-0.0005729002878069878,0.0006050782976672053,-0.00040676083881407976
1761508346879954400,4.443954345703125,-0.0009902934543788433,-0.0026656282134354115,0.00027421966660767794
1761508346889925400,4.45392529296875,-0.00010399334132671356,-0.0009875703835859895,-0.0018909303471446037
1761508346899896300,4.463896240234375,-0.00025354931131005287,-0.0005984593881294131,-0.001851015374995768
1761508346909868500,4.47386865234375,-0.0019196229986846447,-0.0011246999492868781,-0.0006094496930018067
1761508346919839500,4.483839599609375,-0.00043671252205967903,0.003211196046322584,-0.0016082136426120996
1761508346929810200,4.49381005859375,0.0010384120978415012,0.0017784154042601585,-0.0009453528909943998
1761508346939782400,4.503782470703125,-0.001990208402276039,0.0020530514884740114,-0.0012081782333552837
1761508346949753300,4.51375341796875,0.0026191906072199345,0.000814148923382163,0.000552437617443502
1761508346959725300,4.523725341796875,0.0006830948404967785,-0.0014485141728073359,-0.00015911960508674383
1761508346969696300,4.5336962890625,-0.00008123228326439857,-0.00016806635539978743,-0.0016110750148072839
1761508346979667500,4.54366748046875,0.0013684164732694626,-0.0007589567685499787,0.0000083092600107193
1761508346989639200,4.55363916015625,-0.0006462652236223221,-0.003177106846123934,-0.00026493112090975046
1761508346999610400,4.5636103515625,0.0011207340285182,0.0015514991246163845,0.002066614106297493
1761508347009581300,4.573581298828125,-0.0022255275398492813,0.001585587626323104,-0.0009161261841654778
1761508347019553500,4.583553466796875,-0.00008765468373894691,-0.0018712951568886638,0.0008746414678171277
1761508347029524200,4.593524169921875,0.00004843296483159065,0.0009356765076518059,-0.0013861159095540643
1761508347039496400,4.603496337890625,0.002666099928319454,0.0009769422467797995,0.00019496504683047533
1761508347049467400,4.61346728515625,-0.0006418125703930855,-0.00037487829104065895,0.0015734171029180288
1761508347059438600,4.6234384765625,-0.00040398817509412766,0.0005031049950048327,-0.0013442032504826784
1761508347069410300,4.633410400390625,0.0006647380068898201,-0.002302268985658884,0.00034477352164685726
1761508347079381500,4.643381591796875,0.0000677499920129776,0.000607986468821764,-0.0006147549720481038
1761508347089352400,4.6533525390625,0.00043579889461398125,-0.0007475625025108457,0.000011886819265782833
1761508347099324400,4.663324462890625,-0.002151669003069401,-0.0013427945086732507,0.0009306389838457108
1761508347109295400,4.67329541015625,0.00007526669651269913,0.0008971902425400913,-0.0032888734713196754
1761508347119267600,4.683267578125,-0.0008142944425344467,0.001857575960457325,0.0007294306997209787
1761508347129238300,4.69323828125,-0.00045210402458906174,-0.000021284213289618492,0.0004764304030686617
1761508347139209200,4.703209228515625,0.00028106290847063065,0.00040734081994742155,0.0024369689635932446
1761508347149181400,4.713181396484375,-0.0022561303339898586,-0.0004888128023594618,-0.0005929091712459922
1761508347159152400,4.72315234375,0.0004981737583875656,-0.00047190289478749037,0.0017794871237128973
1761508347169123300,4.733123291015625,0.0007173521444201469,-0.0019158687209710479,-0.001628027530387044
1761508347179095300,4.74309521484375,-0.0010859998874366283,-0.0005823308601975441,0.0019676226656883955
1761508347189066500,4.75306640625,0.0015428061597049236,0.0006182220531627536,0.0012112848926335573
1761508347199038000,4.763037841796875,-0.0013057487085461617,-0.00032237288542091846,0.0012241787044331431
1761508347209009200,4.773009033203125,-0.00032330770045518875,-0.0006821659626439214,-0.0003718538209795952
1761508347218980000,4.78297998046875,-0.0011129281483590603,0.0014522491255775094,-0.0009863756131380796
1761508347228952000,4.7929521484375,-0.0009094630368053913,0.0013313415693119168,-0.000353608513250947
1761508347238923000,4.802923095703125,-0.0003190739080309868,0.003452473320066929,-0.0035451287403702736
1761508347248894200,4.812894287109375,0.001006114762276411,0.0011192780220881104,-0.002908366732299328
1761508347258866200,4.8228662109375,0.00011868029832839966,-0.00035411538556218147,0.0025814385153353214
1761508347268837000,4.832837158203125,0.002716593910008669,0.00032046332489699125,-0.0008202169556170702
1761508347278809000,4.84280908203125,0.0024944720789790154,-0.0014920776011422276,-0.003869610372930765
1761508347288780300,4.8527802734375,-0.00015803612768650055,0.0006403154111467302,-0.0006357339443638921
1761508347298751200,4.862751220703125,0.0010131224989891052,-0.0005337820621207356,-0.0012407155008986592
1761508347308723200,4.87272314453125,0.0006898147985339165,0.0025677355006337166,-0.0014295335859060287
1761508347318694100,4.882694091796875,-0.0012999963946640491,0.0008796636248007417,-0.002808375284075737
1761508347328665000,4.8926650390625,-0.0006861374713480473,-0.0014087905874475837,-0.00027624162612482905
1761508347338637000,4.902636962890625,0.0010856441222131252,-0.002527698641642928,0.002246670890599489
1761508347348608000,4.91260791015625,-0.0005801632069051266,-0.00028105603996664286,-0.0014183713356032968
1761508347358580200,4.922580322265625,0.00047993240877985954,-0.0004600725369527936,-0.001793094677850604
1761508347368551000,4.932551025390625,0.0008016419596970081,0.0009474081452935934,0.0019310697680339217
1761508347378522000,4.942522216796875,0.0005275183357298374,-0.0005368813872337341,-0.0010197937954217196
1761508347388494000,4.952494140625,-0.0005505294539034367,0.00034276070073246956,0.0006247081328183413
1761508347398465300,4.96246533203125,-0.0005017933435738087,0.00016779103316366673,-0.00040806567994877696
1761508347408436000,4.97243603515625,-0.00032966025173664093,0.00034147489350289106,0.000008189002983272076
1761508347418408200,4.982408203125,0.0016627097502350807,-0.0006022538291290402,0.0009129915852099657
1761508347428379100,4.992379150390625,0.00022247200831770897,-0.00047655252274125814,0.0008631903911009431
1761508347438351000,5.00235107421875,0.00017712172120809555,-0.0018237584736198187,0.001185181550681591
1761508347448322000,5.012322021484375,0.0014807386323809624,-0.0007568963337689638,0.0004807753721252084
1761508347458293200,5.022293212890625,-0.00037733372300863266,-0.00017005507834255695,-0.00004850851837545633
1761508347468265000,5.032264892578125,0.002065050881356001,0.0008640504092909396,0.0014657647116109729
1761508347478236200,5.042236083984375,-0.0019099949859082699,0.00010572164319455624,0.00007667834870517254
1761508347488207000,5.05220703125,0.00019816309213638306,0.0009579331963323057,0.0005115725798532367
1761508347498179000,5.062178955078125,-0.0002422998659312725,0.001351137994788587,-0.001724338624626398
1761508347508150000,5.07214990234375,0.00032841553911566734,0.0010483365040272474,-0.002551516517996788
1761508347518122200,5.082122314453125,0.0006246790289878845,-0.0015657809562981129,0.00006103049963712692
1761508347528093200,5.09209326171875,-0.0007369951345026493,0.0009490419761277735,0.0020200517028570175
1761508347538064100,5.102064208984375,-0.001213585026562214,0.001317363465204835,-0.00017324479995295405
1761508347548036000,5.1120361328125,0.0012817969545722008,-0.0011087763123214245,0.0017016205238178372
1761508347558007000,5.122007080078125,0.0014347648248076439,0.0003499541198834777,0.00019827636424452066
1761508347567978200,5.131978271484375,-0.0004337094724178314,-0.0032000395003706217,0.0006797759560868144
1761508347577950000,5.141949951171875,-0.002864939160645008,0.0018620961345732212,0.0004736590199172497
1761508347587921200,5.151921142578125,-0.0027235252782702446,-0.0008503333665430546,-0.0013125231489539146
1761508347597893000,5.16189306640625,0.00043529272079467773,0.0012844951124861836,0.004828714765608311
1761508347607864000,5.171864013671875,-0.00041851727291941643,-0.0007680031703785062,-0.000023564905859529972
1761508347617835000,5.1818349609375,-0.0012925653718411922,-0.0027089249342679977,0.0020368078257888556
1761508347627807200,5.19180712890625,0.0009269127622246742,-0.0010455148294568062,-0.0011968022445216775
1761508347637778000,5.20177783203125,0.0009566172957420349,-0.0007011876441538334,0.0012167809763923287
1761508347647749000,5.2117490234375,2.761371433734894e-7,0.001408834825269878,0.001170442090369761
1761508347657721000,5.22172119140625,0.0008339774794876575,0.0005117157124914229,0.0001266936305910349
1761508347667692300,5.2316923828125,-0.00013914145529270172,0.001782309846021235,-0.001467474503442645
1761508347677664000,5.2416640625,0.0045614223927259445,0.0018033378291875124,-0.0010319871362298727
1761508347687635200,5.25163525390625,0.0003315238282084465,-0.0003658067435026169,-0.0006884393515065312
1761508347697606100,5.261606201171875,0.0020082518458366394,-0.0030653434805572033,0.0005697242449969053
1761508347707578000,5.271578125,-0.003540976904332638,0.00262663047760725,0.0006123348139226437
1761508347717549000,5.281549072265625,-0.0001879609189927578,0.001638276968151331,-0.0011039699893444777
1761508347727520300,5.291520263671875,0.00023095449432730675,0.0003564974758774042,0.0031762621365487576
1761508347737492000,5.301491943359375,-0.0013520121574401855,0.001710222801193595,0.0015142313204705715
1761508347747463200,5.311463134765625,0.0021332665346562862,-0.0008908865274861455,-0.0011193687096238136
1761508347757435100,5.32143505859375,-0.0006999336183071136,0.0011046251747757196,0.0019127983832731843
1761508347767406300,5.33140625,-0.00005837855860590935,-0.00006183935329318047,0.002091230358928442
1761508347777377000,5.341376953125,-0.0007713311351835728,0.00063299824250862,-0.00047511333832517266
1761508347787349200,5.351349365234375,0.0012193815782666206,-0.00043306511361151934,0.0019531571306288242
1761508347797320200,5.3613203125,0.00002816133201122284,-0.0012898736167699099,-0.0014258865267038345
1761508347807291100,5.371291015625,-0.0013588126748800278,0.00030802295077592134,-0.000060483929701149464
1761508347817263000,5.38126318359375,-0.00061060581356287,0.0016241064295172691,-0.0021231230348348618
1761508347827234000,5.391234130859375,0.001595557201653719,-0.0006238678470253944,0.0017954520881175995
1761508347837206000,5.4012060546875,0.0008275667205452919,-0.0011348812840878963,0.00023395614698529243
1761508347847177000,5.411177001953125,-0.0018161535263061523,0.00023824465461075306,-0.00032663927413523197
1761508347857148200,5.421148193359375,-0.00007317215204238892,0.0018271426670253277,0.00044344307389110327
1761508347867120000,5.4311201171875,0.00011298293247818947,-0.001940963906235993,0.00022586272098124027
1761508347877091000,5.441091064453125,-0.0011847438290715218,-0.001149007468484342,0.0007380759343504906
1761508347887062000,5.45106201171875,0.0014701616019010544,-0.0003231613663956523,-0.002054248470813036
1761508347897034200,5.4610341796875,-0.001027238555252552,-0.0008592832600697875,0.002256064210087061
1761508347907005200,5.471005126953125,0.0001032734289765358,0.0002730927662923932,-0.00019084801897406578
1761508347916977200,5.48097705078125,-0.0014691567048430443,-0.0009875112446025014,-0.0007355785346589983
1761508347926948000,5.490947998046875,-0.0010076304897665977,-0.0012261305237188935,-0.0011976369423791766
1761508347936919300,5.500919189453125,0.0007844539359211922,0.0046780649572610855,-0.0020681447349488735
1761508347946891000,5.51089111328125,0.00027818698436021805,0.0006460389704443514,0.00046558654867112637
1761508347956862200,5.5208623046875,0.0007519824430346489,-0.001087668351829052,0.0025391201488673687
1761508347966833200,5.530833251953125,0.0015719695948064327,-0.0010535798501223326,0.000963860540650785
1761508347976805000,5.54080517578125,0.0015789009630680084,0.0010912665165960789,-0.0007121231174096465
1761508347986776000,5.550776123046875,-0.0012171524576842785,0.0009748863521963358,-0.0001470003044232726
1761508347996748300,5.560748291015625,0.0015228921547532082,0.0012469679350033402,-0.0011381381191313267
1761508348006719200,5.57071923828125,-0.0011280183680355549,0.0017068958841264248,-0.002507801866158843
1761508348016690000,5.58068994140625,0.0014415308833122253,0.0007678917609155178,-0.0006221805815584958
1761508348026662100,5.590662109375,-0.0005798083730041981,0.001015299465507269,0.00043536070734262466
1761508348036633000,5.600633056640625,-0.003115398809313774,-0.00026438268832862377,0.0005586735205724835
1761508348046604000,5.61060400390625,-0.0006847316399216652,-0.0005248398520052433,0.000691032619215548
1761508348056576000,5.620575927734375,0.0011942540295422077,0.00027084467001259327,0.00019736000103875995
1761508348066547200,5.630547119140625,0.0008216779679059982,-0.0002828264841809869,-0.0011821574298664927
1761508348076519000,5.640518798828125,-0.0013085827231407166,-0.00025927298702299595,0.00163304025772959
1761508348086490000,5.650489990234375,-0.0000566309317946434,0.001772718969732523,0.0008391519077122211
1761508348096461000,5.6604609375,-0.0005052397027611732,0.0013245963491499424,-0.000053878058679401875
1761508348106433300,5.670433349609375,0.001554449088871479,-0.000009381095878779888,-0.0008312548161484301
1761508348116404000,5.680404052734375,0.0005738926120102406,0.0003465138142928481,0.0012007183395326138
1761508348126375200,5.690375244140625,-0.00032519083470106125,0.000375808565877378,0.0004443806246854365
1761508348136347100,5.70034716796875,-0.00026835594326257706,-0.0007746013579890132,0.001022095326334238
1761508348146318000,5.710318115234375,0.0011806702241301537,-0.0013296041870489717,0.0011099795810878277
1761508348156290000,5.7202900390625,0.0008050785399973392,-0.0015647641848772764,-0.0016179106896743178
1761508348166261200,5.73026123046875,-0.00033448776230216026,0.002480577677488327,0.0018572482513263822
1761508348176232200,5.740232177734375,-0.00043829018250107765,0.0007448393735103309,-0.0010401405161246657
1761508348186204200,5.7502041015625,0.0008767792023718357,-0.0008517258102074265,0.00039397168438881636
1761508348196174800,5.7601748046875,0.0010648821480572224,-0.0005929411854594946,0.0016988111892715096
1761508348206145800,5.770145751953125,0.00015354854986071587,0.001694181584753096,0.002398956101387739
1761508348216117800,5.78011767578125,0.00003543682396411896,-0.0003173010190948844,0.00022231199545785785
1761508348226088700,5.790088623046875,0.0013704793527722359,0.00008883106056600809,0.001561082899570465
1761508348236061000,5.80006103515625,-0.0003149118274450302,-0.001567559433169663,-0.003625455778092146
1761508348246032000,5.810031982421875,-0.00029813311994075775,0.0007286180043593049,-0.0006594933802261949
1761508348256002800,5.8200029296875,0.0006359959952533245,0.0016150771407410502,-0.0012018578127026558
1761508348265974800,5.829974853515625,0.0024450812488794327,0.0006515454151667655,0.0017185646574944258
1761508348275946000,5.839946044921875,-0.000023539643734693527,-0.0023517590016126633,0.00017169024795293808
1761508348285917000,5.8499169921875,0.0009759445674717426,-0.001054267049767077,-0.0022965273819863796
1761508348295889000,5.859888916015625,-0.001664159819483757,0.001087686512619257,0.0004867409006692469
1761508348305859800,5.86985986328125,-0.001301436685025692,0.00012175808660686016,0.001686495030298829
1761508348315831800,5.879831787109375,-0.0009455382823944092,-0.0003641173243522644,-0.0016480062622576952
1761508348325802800,5.889802734375,-0.0010158456861972809,-0.0016304503660649061,0.00032299914164468646
1761508348335774000,5.89977392578125,0.0007482375949621201,-0.0006655678153038025,0.0009707445278763771
1761508348345746000,5.909745849609375,-0.0009993291459977627,-0.0008378741331398487,-0.0016809649532660842
1761508348355716900,5.919716796875,0.001894279383122921,-0.001630914630368352,-0.0011168777709826827
1761508348365687800,5.929687744140625,-0.000983265694230795,0.0026517147198319435,-0.001400504494085908
1761508348375660000,5.939659912109375,0.003493781201541424,-0.001197317847982049,-0.0018384531140327454
1761508348385630700,5.949630615234375,-0.0002309158444404602,0.0014192378148436546,0.00015758618246763945
1761508348395603000,5.95960302734375,-0.000005881302058696747,-0.0011033520568162203,-0.00006861728616058826
1761508348405574000,5.969573974609375,0.0012958715669810772,0.0008064007852226496,0.0013138296781107783
1761508348415544800,5.979544921875,-0.0022750934585928917,-0.0027893956284970045,-0.00189510069321841
1761508348425516800,5.989516845703125,-0.0014090333133935928,0.002643719082698226,0.0006181243807077408
1761508348435488000,5.999488037109375,-0.0007244301959872246,0.0011198748834431171,0.000245674978941679
1761508348445459000,6.009458984375,0.00024123257026076317,-0.00017042667604982853,-0.0031032501719892025
1761508348455431000,6.019430908203125,-0.0004318971186876297,0.0005717321182601154,-0.00019812770187854767
1761508348465401900,6.02940185546875,-0.001266266219317913,-0.0010978035861626267,0.0001222505234181881
1761508348475374000,6.0393740234375,0.0012081833556294441,0.0005150390206836164,0.0015812921337783337
1761508348485344800,6.0493447265625,-0.001230207271873951,0.00020105228759348392,0.000026272376999258995
1761508348495315700,6.059315673828125,0.00023030908778309822,-0.0006980035686865449,0.001999177969992161
1761508348505288000,6.069287841796875,0.0005650683306157589,-0.0005363497184589505,-0.000008312752470374107
1761508348515259000,6.0792587890625,0.0016392855904996395,-0.0008588047930970788,0.0003640789072960615
1761508348525229800,6.089229736328125,0.0008089118637144566,-0.0018966385396197438,0.0005281296325847507
1761508348535201800,6.099201904296875,0.0015779552049934864,0.0010290730278939009,-0.0026865494437515736
1761508348545173000,6.109173095703125,-0.002384562510997057,0.001255441689863801,-0.0007440396584570408
1761508348555144700,6.119144775390625,-0.0012222277000546455,-0.000395412789657712,0.000856162398122251
1761508348565116000,6.129115966796875,0.0013397331349551678,0.0004232429782859981,0.0018093078397214413
1761508348575086800,6.1390869140625,-0.0019169868901371956,-0.0006607590476050973,0.000889760791324079
1761508348585058800,6.149058837890625,0.002158182207494974,0.0005208855145610869,0.0003675149055197835
1761508348595029800,6.15902978515625,-0.004243898205459118,-0.0011868546716868877,-0.0006235783221200109
1761508348605001000,6.1690009765625,-0.0009716730564832687,0.00138282950501889,0.0007988159777596593
1761508348614973000,6.178972900390625,-0.0019092359580099583,-0.0023885127156972885,-0.000032679352443665266
1761508348624943900,6.18894384765625,-0.00023224344477057457,-0.0030276712495833635,0.001077858847565949
1761508348634915800,6.198915771484375,0.0027234116569161415,-0.000896413461305201,0.002131498884409666
1761508348644887000,6.208886962890625,0.0015910356305539608,0.0009978930465877056,-0.0007351278327405453
1761508348654858000,6.21885791015625,-0.0010719364508986473,0.0016181768151000142,-0.000821744033601135
1761508348664830000,6.228829833984375,0.00018800469115376472,-0.0024806945584714413,0.002045415109023452
1761508348674801000,6.23880078125,-0.001336260698735714,-0.000007942900992929935,0.001167402253486216
1761508348684771800,6.248771728515625,0.0008043879643082619,0.0001875330926850438,-0.0011167910415679216
1761508348694743800,6.258743896484375,-0.0015141838230192661,0.00024969037622213364,0.0007395908469334245
1761508348704714800,6.26871484375,0.00022565945982933044,-0.0023836432956159115,0.00037740101106464863
1761508348714687000,6.27868701171875,-0.0008842851966619492,0.0003716015489771962,-0.0016821054741740227
1761508348724657700,6.28865771484375,-0.0007889438420534134,0.0028534014709293842,-0.0020352406427264214
1761508348734628900,6.29862890625,-0.0004101218655705452,0.0007197442464530468,0.0011526241432875395
1761508348744600800,6.308600830078125,0.0020572971552610397,0.002522704191505909,-0.0022511621937155724
1761508348754572000,6.318572021484375,-0.0013459916226565838,-0.000856290920637548,0.0020207217894494534
1761508348764542700,6.328542724609375,0.0003339308314025402,0.00011869228910654783,0.0001109689474105835
1761508348774515000,6.338514892578125,0.001562971156090498,0.0025989373680204153,0.0006911586970090866
1761508348784486000,6.34848583984375,-0.002405405044555664,-0.00018353329505771399,0.0000900832237675786
1761508348794457900,6.358457763671875,-0.00008976226672530174,-0.0007715380052104592,0.000568905845284462
1761508348804428800,6.3684287109375,-0.0006985608488321304,-0.001478074467740953,0.0010322958696633577
1761508348814400000,6.37839990234375,-0.0004533580504357815,0.0015346567379310727,0.000024881213903427124
1761508348824371700,6.388371826171875,-0.0006371163763105869,0.00020680460147559643,0.001054725726135075
1761508348834343000,6.398343017578125,-0.0010574059560894966,-0.00013063917867839336,0.001225041807629168
1761508348844313900,6.40831396484375,0.00026671774685382843,0.002808159217238426,0.0013054694281890988
1761508348854286000,6.4182861328125,-0.001491073053330183,-0.0006076191784814,0.0013554610777646303
1761508348864256800,6.4282568359375,-0.0018612523563206196,-0.0005120116984471679,0.0010489311534911394
1761508348874229000,6.43822900390625,0.0007749428041279316,0.0003429317148402333,0.0032071571331471205
1761508348884200000,6.448199951171875,0.002498806919902563,-0.00020940788090229034,0.000712041393853724
1761508348894171000,6.4581708984375,-0.000530436635017395,0.0010104570537805557,0.0005312390858307481
1761508348904142800,6.468142822265625,0.0015122080221772194,0.00044080696534365416,0.00037943897768855095
1761508348914113800,6.47811376953125,-0.00034196581691503525,0.002449893392622471,0.0008842293173074722
1761508348924085000,6.4880849609375,0.001225571148097515,-0.0006055512931197882,-0.002276676706969738
1761508348934056700,6.498056640625,0.00044895801693201065,-0.000887590111233294,0.00020216742996126413
1761508348944028000,6.50802783203125,-0.0001880698837339878,0.001745210844092071,-0.0007903926307335496
1761508348954000000,6.517999755859375,-0.00015469780191779137,-0.0005546152824535966,0.0004174400819465518
1761508348963970800,6.527970703125,-0.001264436636120081,-0.0007024207152426243,0.00263771740719676
1761508348973941800,6.537941650390625,-0.0002251751720905304,-0.0012652414152398705,-0.0012541331816464663
1761508348983914000,6.5479140625,-0.0009282496757805347,-0.00048653315752744675,-0.0014669197844341397
1761508348993885000,6.557885009765625,-0.00029791519045829773,0.00018940959125757217,0.0017915547359734774
1761508349003856000,6.56785595703125,-0.004570957273244858,0.00011723791249096394,0.0025801167357712984
1761508349013827800,6.577827880859375,0.0003680870868265629,-0.0027321914676576853,0.0016532882582396269
1761508349023799000,6.587799072265625,0.00021229218691587448,-0.00029246939811855555,0.0003020004369318485
1761508349033770800,6.597770751953125,-0.002030923031270504,-0.0009320690296590328,0.001366725075058639
1761508349043742000,6.607741943359375,-0.0002956073731184006,-0.0012766821309924126,0.0009659194620326161
1761508349053713000,6.617712890625,-0.0018537198193371296,0.0015629710396751761,0.00030805415008217096
1761508349063684900,6.627684814453125,-0.0020505269058048725,0.001333140186034143,0.0010433528805151582
1761508349073655800,6.63765576171875,-0.0010692672803997993,-0.00006927805952727795,0.0034864756744354963
1761508349083627000,6.647626953125,0.0010562017560005188,0.001129677053540945,-0.0007500811479985714
1761508349093598700,6.6575986328125,0.00018999865278601646,-0.001533218310214579,-0.000031613511964678764
1761508349103570000,6.66756982421875,0.0012624538503587246,-0.0009395995875820518,0.0006389705231413245
1761508349113542000,6.6775419921875,0.0003150268457829952,0.0016747144982218742,-0.0031590769067406654
1761508349123513000,6.68751318359375,-0.002071165479719639,-0.0006885745096951723,-0.00009111512918025255
1761508349133483800,6.69748388671875,-0.00009474111720919609,0.002998749725520611,-0.002808217890560627
1761508349143456000,6.7074560546875,0.00038436194881796837,0.00024956848938018084,-0.0001621008850634098
1761508349153427000,6.717427001953125,0.001487984787672758,-0.0010845407377928495,-0.0025342204608023167
1761508349163398000,6.72739794921875,-0.0021016900427639484,-0.001177751226350665,-0.0013155578635632992
1761508349173369900,6.737369873046875,-0.00027171894907951355,0.00015799538232386112,0.0015058411518111825
1761508349183340800,6.7473408203125,-0.0004919618368148804,0.00004960468504577875,0.0016869361279532313
1761508349193313500,6.7573134765625,-0.0002467744052410126,-0.001148927491158247,0.00040454708505421877
1761508349203284700,6.76728466796875,0.002237688284367323,-0.0008394680917263031,0.003103927243500948
1761508349213255700,6.777255615234375,0.000006596557796001434,-0.0009195675374940038,-0.0005953795625828207
1761508349223227600,6.7872275390625,0.0005876985378563404,0.002287144772708416,0.0023836325854063034
1761508349233198600,6.797198486328125,-0.0018511437810957432,0.00024994846899062395,0.0028014034032821655
1761508349243169500,6.80716943359375,0.0007150783203542233,-0.0005748324329033494,-0.00015949917724356055
1761508349253141800,6.817141845703125,0.0013663978315889835,0.0006416062242351472,-0.00018498249119147658
1761508349263112400,6.827112548828125,-0.0010602744296193123,-0.0021682949736714363,-0.0015807452145963907
1761508349273084700,6.837084716796875,0.0024369265884160995,0.000713152636308223,0.001121916458941996
1761508349283055600,6.8470556640625,-0.0013767196796834469,-0.0005262824706733227,-0.0014919759705662727
1761508349293026600,6.857026611328125,0.0007798448204994202,-0.00021301733795553446,-0.00005929969483986497
1761508349302998500,6.86699853515625,-0.0006268373690545559,0.0006146930973045528,-0.0017120575066655874
1761508349312969700,6.8769697265625,0.0012100799940526485,0.0015893783420324326,0.0013742545852437615
1761508349322941400,6.88694140625,0.0011152713559567928,0.00088550487998873,0.0012355040526017547
1761508349332912600,6.89691259765625,0.0003573796711862087,0.00000770040787756443,0.0023800497874617577
1761508349342883600,6.906883544921875,0.0011896174401044846,-0.0011963145807385445,-0.0008820563089102507
1761508349352855800,6.916855712890625,-0.0005526784807443619,0.0008922973647713661,-0.0010393208358436823
1761508349362826500,6.926826416015625,0.0005493378266692162,0.0007346382481046021,0.00018972798716276884
1761508349372797700,6.936797607421875,-0.002360256388783455,-0.0007196568185463548,-0.001016153721138835
1761508349382769700,6.946769775390625,0.0011947969906032085,-0.0006493494147434831,-0.001632142928428948
1761508349392740600,6.95674072265625,-0.0008971882052719593,-0.00033079832792282104,-0.0012041182490065694
1761508349402711600,6.966711669921875,0.0010746163316071033,0.0014971954515203834,0.0033482895232737064
1761508349412683800,6.976683837890625,-0.0011358866468071938,-0.0026916242204606533,0.0003273600013926625
1761508349422654700,6.98665478515625,-0.001469581387937069,-0.0009062411263585091,-0.0012500303564593196
1761508349432626700,6.996626708984375,0.0014824280515313148,-0.0009140390902757645,0.0019006556831300259
1761508349442597600,7.00659765625,-0.0014534401707351208,0.0006218060152605176,-0.001829367596656084
1761508349452568800,7.01656884765625,-0.0012725088745355606,0.0013910905690863729,0.00011914025526493788
1761508349462540500,7.02654052734375,0.0005962313152849674,0.0006025285692885518,-0.0014928712043911219
1761508349472511700,7.03651171875,0.0015565701760351658,-0.0007751289522275329,-0.0013779362197965384
1761508349482483700,7.046483642578125,0.0005094148218631744,-0.0011258673621341586,-0.0013805993366986513
1761508349492454700,7.05645458984375,0.00007047923281788826,0.003557703923434019,-0.001218330580741167
1761508349502425600,7.066425537109375,0.0014201691374182701,-0.001051162602379918,-0.00021565041970461607
1761508349512397800,7.076397705078125,0.00021634623408317566,0.0005538318655453622,-0.0007417619926854968
1761508349522368800,7.08636865234375,-0.0014308192767202854,0.00035196426324546337,0.0006372227799147367
1761508349532339500,7.09633935546875,-0.0008042757399380207,0.0005951776402071118,-0.0005352057050913572
1761508349542311700,7.106311767578125,0.0009105340577661991,0.0007240746635943651,0.0016097043408080935
1761508349552282600,7.11628271484375,0.00011742254719138145,-0.00022257748059928417,-0.001354188658297062
1761508349562254600,7.126254638671875,-0.00021573901176452637,0.000008851173333823681,0.00047673447988927364
1761508349572225500,7.1362255859375,-0.00033235130831599236,-0.00028862361796200275,0.0029633445665240288
1761508349582196700,7.14619677734375,-0.00013021798804402351,-0.0016921095084398985,-0.00029796280432492495
1761508349592168400,7.15616845703125,0.000989439431577921,-0.0012346790172159672,-0.000030217808671295643
1761508349602139600,7.1661396484375,0.0009465627372264862,-0.0011561159044504166,-0.00010452000424265862
1761508349612110600,7.176110595703125,-0.0031862445175647736,0.0005802062805742025,-0.0012261556694284081
1761508349622082800,7.186082763671875,-0.0017992695793509483,-0.0015346098225563765,-0.0009814111981540918
1761508349632053500,7.196053466796875,0.000029120128601789474,0.00013897602912038565,-0.0010074834572151303
1761508349642025700,7.206025634765625,-0.0010928702540695667,-0.0030666710808873177,0.0007928134873509407
1761508349651996700,7.21599658203125,-0.0005593993701040745,-0.0011203980538994074,0.0005452829645946622
1761508349661968000,7.2259677734375,0.0005956138484179974,0.003018953138962388,-0.0013218593085184693
1761508349671939600,7.235939697265625,-0.00008568353950977325,0.0017228262731805444,0.0014886915450915694
1761508349681910800,7.245910888671875,-0.00030353013426065445,-0.002155002672225237,-0.0009475680999457836
1761508349691881700,7.2558818359375,-0.00020674429833889008,-0.0014442873653024435,0.0017430217703804374
1761508349701853700,7.265853759765625,-0.00000993628054857254,-0.00016250787302851677,0.0008734996663406491
1761508349711824600,7.27582470703125,0.0003320220857858658,0.001184397260658443,-0.0021962737664580345
1761508349721796900,7.285796875,-0.0001271069049835205,0.001615562941879034,0.0005454507190734148
1761508349731767600,7.295767578125,0.00008602440357208252,-0.0023480660747736692,0.0007676974637433887
1761508349741738500,7.305738525390625,-0.0003099879249930382,0.0005129678174853325,0.00046542868949472904
1761508349751710700,7.315710693359375,0.00035417918115854263,0.0017715852009132504,0.0013641341356560588
1761508349761681700,7.325681640625,-0.00155637226998806,-0.0017557715764269233,0.00023255706764757633
1761508349771652600,7.335652587890625,-0.0007120915688574314,-0.0009848850313574076,0.0009123679483309388
1761508349781624600,7.34562451171875,-0.001167492475360632,-0.0010197723750025034,-0.0019348175264894962
1761508349791595800,7.355595703125,-0.0022086389362812042,-0.0005073107313364744,0.001527396496385336
1761508349801567500,7.3655673828125,-0.0016110250726342201,0.0011590290814638138,-0.0002697045565582812
1761508349811538700,7.37553857421875,0.0004165251739323139,0.0009358141105622053,0.0015207483666017652
1761508349821509600,7.385509521484375,-0.0012564724311232567,0.0015246390830725431,-0.0007325522601604462
1761508349831481600,7.395481689453125,-0.0008433968760073185,0.0007737051928415895,0.0002776297042146325
1761508349841452500,7.40545263671875,0.0004242677241563797,0.0003702362300828099,-0.0022656891960650682
1761508349851423700,7.415423828125,-0.0012462250888347626,-0.0017624956090003252,0.0021085047628730536
1761508349861395700,7.425395751953125,-0.00038549210876226425,0.0015158556634560227,-0.0003402717993594706
1761508349871366700,7.43536669921875,0.00021004537120461464,0.0004199417890049517,0.000497653498314321
1761508349881338600,7.445338623046875,0.0015054065734148026,-0.0007281468715518713,-0.001799589255824685
1761508349891309800,7.455309814453125,-0.0012933672405779362,0.001743766013532877,-0.001499477424658835
1761508349901280800,7.46528076171875,0.0008811037987470627,-0.0007095378823578358,-0.00043154979357495904
1761508349911252700,7.475252685546875,0.0010941610671579838,-0.0005319728516042233,0.004547762218862772
1761508349921223700,7.4852236328125,-0.002197772264480591,-0.0009551490657031536,0.0003602078650146723
1761508349931194600,7.495194580078125,0.001966291107237339,-0.0017353349830955267,0.002391050336882472
1761508349941166600,7.50516650390625,-0.0002353442832827568,-0.0010261351708322763,-0.0001445453381165862
1761508349951137500,7.515137451171875,0.0010959701612591743,-0.00003197719343006611,-0.0017456377390772104
1761508349961109800,7.52510986328125,-0.000966440886259079,0.00047012337017804384,0.00032091420143842697
1761508349971080400,7.53508056640625,0.000443438533693552,-0.00006499036680907011,0.002509715035557747
1761508349981051600,7.5450517578125,-0.001896947156637907,0.0017544812289997935,-0.00032788305543363094
1761508349991023600,7.555023681640625,0.000467558391392231,-0.0007993504405021667,0.000636903103441
1761508350000994600,7.56499462890625,-0.0005263336934149265,-0.0011719265021383762,0.000011060270480811596
1761508350010965500,7.574965576171875,0.000039122533053159714,0.0009736735373735428,-0.0004532270831987262
1761508350020937700,7.584937744140625,0.0005230186507105827,-0.001605065306648612,-0.0008250044193118811
1761508350030908700,7.59490869140625,-0.0002009333111345768,-0.0001519521465525031,0.0002000096719712019
1761508350040880600,7.604880615234375,-0.00029201339930295944,0.0006778888055123389,0.0004135951166972518
1761508350050851600,7.6148515625,0.0003803446888923645,-0.0006251777522265911,0.0016077847685664892
1761508350060822800,7.62482275390625,-0.00036747055128216743,-0.0012222584336996078,0.0002964441664516926
1761508350070794500,7.63479443359375,0.0010010963305830956,0.0021990654058754444,0.0009067559149116278
1761508350080765700,7.644765625,-0.0003461972810328007,-0.0011437343200668693,0.0006356461672112346
1761508350090736600,7.654736572265625,0.0000015832483768463135,0.0017948123859241605,-0.00013564329128712416
1761508350100708600,7.66470849609375,-0.002828025259077549,-0.0013165588025003672,0.000032934825867414474
1761508350110679600,7.674679443359375,-0.0008763493970036507,-0.0019924212247133255,-0.002735801273956895
1761508350120651800,7.68465185546875,-0.00012347381561994553,-0.001782297738827765,-0.002256964799016714
1761508350130622700,7.694622802734375,-0.0006205672398209572,0.0005817346973344684,-0.0002075375523418188
1761508350140593700,7.70459375,0.0006247269921004772,-0.0018787598237395287,0.000008711125701665878
1761508350150565600,7.714565673828125,-0.00010968698188662529,-0.0009565813234075904,-0.0012485975166782737
1761508350160536800,7.724536865234375,-0.00040662894025444984,0.0007249386399053037,-0.0014251649845391512
1761508350170507800,7.7345078125,-0.0012608780525624752,0.00021214166190475225,0.0010841148905456066
1761508350180479700,7.744479736328125,-0.0008898996748030186,-0.0019745798781514168,0.00028223718982189894
1761508350190450700,7.75445068359375,-0.000900826882570982,-0.0000898472499102354,-0.0008539611008018255
1761508350200422100,7.764422119140625,0.0008209063671529293,0.00187157082837075,0.001186020323075354
1761508350210393000,7.77439306640625,0.0009162374772131443,0.001018160954117775,-0.000025266199372708797
1761508350220364000,7.784364013671875,0.0016121212393045425,0.00021228846162557602,-0.0011483213165774941
1761508350230336300,7.794336181640625,0.000342340674251318,0.0006899419822730124,-0.0009325305582024157
1761508350240307200,7.80430712890625,0.0005149133503437042,0.0009432085789740086,-0.0007618219242431223
1761508350250278100,7.814278076171875,-0.0004942319355905056,0.0022352479863911867,-0.0003120022010989487
1761508350260250000,7.82425,-0.00031553348526358604,0.0007361546740867198,0.0008739033946767449
1761508350270221300,7.83422119140625,-0.000076239462941885,-0.0006652632728219032,0.00026068498846143484
1761508350280193000,7.844193115234375,0.0016862405464053154,-0.0013920399360358715,0.003105740062892437
1761508350290164200,7.854164306640625,-0.0018041674047708511,0.0009035167167894542,-0.0009294984047301114
1761508350300135200,7.86413525390625,-0.002568494528532028,-0.0030387607403099537,0.0011653440305963159
1761508350310107100,7.874107177734375,0.0008372068405151367,0.0029170080088078976,-0.000428627070505172
1761508350320078000,7.884078125,-0.0004930421710014343,-0.002245795913040638,0.00029335590079426765
1761508350330049000,7.894049072265625,-0.00024918513372540474,-0.002079213736578822,0.0016093661542981863
1761508350340021200,7.904021240234375,-0.0009376122616231441,-0.0006933046970516443,0.0022890048567205667
1761508350349992000,7.913991943359375,-0.0023722141049802303,-0.0007129381410777569,-0.00007061532232910395
1761508350359964200,7.923964111328125,0.001986315008252859,0.0009304984705522656,0.00048571894876658916
1761508350369935000,7.93393505859375,-0.001666173804551363,0.000746728153899312,-0.0011496368097141385
1761508350379906300,7.94390625,0.0008039078675210476,0.0008782883523963392,-0.0015387246385216713
1761508350389878000,7.9538779296875,0.0012261518277227879,-0.0011820467188954353,0.0014988239854574203
1761508350399849200,7.96384912109375,-0.00037334300577640533,-0.001574064139276743,0.0011752499267458916
1761508350409820200,7.973820068359375,-0.0009748507291078568,0.000026354682631790638,-0.0022017396986484528
1761508350419792100,7.983792236328125,0.00006777653470635414,0.0006695080664940178,-0.00032447761623188853
1761508350429763000,7.99376318359375,-0.0009648576378822327,-0.001202020444907248,-0.001304792007431388
1761508350439735300,8.0037353515625,0.0002974811941385269,0.001092026475816965,-0.00048693519784137607
1761508350449706000,8.0137060546875,0.0013230643235147,0.00022660940885543823,0.0011349387932568789
1761508350459677200,8.02367724609375,-0.0003715050406754017,-0.0005172115052118897,-0.0012970599345862865
1761508350469648100,8.033648193359374,0.0014661690220236778,0.0013952160952612758,0.0009805114241316915
1761508350479620000,8.0436201171875,0.002763128373771906,0.0019001514883711934,0.00029634544625878334
1761508350489591000,8.053591064453125,-0.0010679122060537338,-0.00025763711892068386,-0.0009989556856453419
1761508350499562000,8.06356201171875,-0.0015174541622400284,0.0016158967046067119,-0.0001446136157028377
1761508350509534200,8.0735341796875,0.0005110069178044796,0.000554074824322015,-0.001001292490400374
1761508350519505000,8.0835048828125,0.0013706753961741924,-0.0001306238118559122,-0.002635674551129341
1761508350529477000,8.09347705078125,0.0005341786891222,-0.0011454573832452297,-0.001487936358898878
1761508350539448000,8.103447998046875,-0.0007942058145999908,-0.0015198977198451757,-0.00021574425045400858
1761508350549419300,8.113419189453126,0.0011876113712787628,0.00043795991223305464,-0.0012173724826425314
1761508350559391000,8.123390869140625,-0.0024449401535093784,0.0018220047932118177,-0.002167588332667947
1761508350569362200,8.133362060546874,0.001313425600528717,-0.0010539005743339658,-0.0004618459497578442
1761508350579334100,8.143334228515625,-0.001285020262002945,-0.0016152950702235103,-0.001306068035773933
1761508350589305000,8.15330517578125,0.0015582325868308544,-0.0009349349420517683,0.0011010661255568266
1761508350599276000,8.163276123046876,-0.0014149206690490246,0.00046828470658510923,-0.001286724116653204
1761508350609248300,8.173248291015625,-0.000026592053472995758,0.0008960075210779905,0.0009629686828702688
1761508350619219000,8.183218994140624,0.001307917758822441,-0.0006254564505070448,0.0004945186665281653
1761508350629190100,8.193190185546875,0.001786824781447649,0.000578065519221127,-0.00014904781710356474
1761508350639162000,8.203162109375,-0.0013407915830612183,-0.0005577726988121867,-0.000027607660740613937
1761508350649133300,8.21313330078125,-0.0025786063633859158,-0.0006276831263676286,0.0002819525543600321
1761508350659105000,8.22310498046875,-0.00012796558439731598,0.0008192122331820428,0.00023801042698323727
1761508350669076200,8.233076171875,-0.00130129000172019,-0.0007463332731276751,0.001941113849170506
1761508350679047200,8.243047119140625,-0.001818209420889616,-0.0017881619278341532,0.003324359655380249
1761508350689019100,8.25301904296875,-0.0008578593842685223,0.0005332035361789167,-0.0015957310097292066
1761508350698990000,8.262989990234376,0.0006556152366101742,0.0005089687765575945,0.0011585102183744311
1761508350708961000,8.2729609375,-0.0007908805273473263,-0.0015409920597448945,0.003431914374232292
1761508350718933000,8.28293310546875,0.000252546276897192,-0.0012613601284101605,-0.0001934469328261912
1761508350728904000,8.292904052734375,0.0015774872153997421,-0.0008802873780950904,0.0004524163668975234
1761508350738876200,8.302876220703125,0.0015149028040468693,0.0010443793144077063,-0.000560383836273104
1761508350748847000,8.31284716796875,0.0012996010482311249,-0.0004073077579960227,-0.0030863869469612837
1761508350758818000,8.322818115234375,-0.0022892747074365616,0.0007631515618413687,-0.002667738124728203
1761508350768790000,8.3327900390625,0.001436323393136263,-0.002127076033502817,0.00137789873406291
1761508350778761200,8.34276123046875,0.0006648055277764797,0.0002303543733432889,0.00032302073668688536
1761508350788732200,8.352732177734374,0.0007487400434911251,-0.0020699286833405495,-0.000712941458914429
1761508350798704000,8.3627041015625,0.00034607015550136566,0.00008590030483901501,-0.00044369586976245046
1761508350808675000,8.372675048828125,0.0017359359189867973,0.0004911775467917323,0.0017783817602321506
1761508350818647000,8.38264697265625,-0.0007887403480708599,0.0008882548427209258,-0.0010195353534072638
1761508350828619000,8.392618896484375,-0.00005566747859120369,0.0013411391992121935,0.002126112347468734
1761508350838591000,8.402591064453125,0.0009534042328596115,0.000018613412976264954,-0.0025906122755259275
1761508350848562000,8.41256201171875,-0.0013470328412950039,0.00034944573417305946,0.0014361023204401135
1761508350858533000,8.422533203125,-0.0002617952413856983,0.0006927271606400609,-0.0015767316799610853
1761508350868505000,8.432505126953124,-0.003378068096935749,0.00045953516382724047,-0.00028939300682395697
1761508350878476000,8.44247607421875,-6.472691893577576e-7,0.0002403570106253028,0.0012144939973950386
1761508350888447000,8.452447021484375,-0.001101671252399683,-0.0011645415797829628,-0.0009745987481437624
1761508350898419200,8.462419189453126,0.0007862434722483158,-0.0005831734742969275,0.001704541384242475
1761508350908390100,8.47239013671875,0.002066117711365223,0.001277900650165975,-0.0015172502025961876
1761508350918362000,8.482362060546874,0.00015236996114253998,0.00012794777285307646,0.0009919801959767938
1761508350928333000,8.4923330078125,-0.0008515156805515289,0.0006043671746738255,0.003386699128895998
1761508350938304300,8.50230419921875,0.0003309277817606926,0.00040569540578871965,0.0014897292712703347
1761508350948276000,8.51227587890625,0.0011183847673237324,0.0012491008965298533,0.0029076170176267624
1761508350958247200,8.5222470703125,-0.0011114804074168205,0.0008469636086374521,0.0018591306870803237
1761508350968218000,8.532218017578124,0.00011808564886450768,0.000631640781648457,0.0003783496795222163
1761508350978190000,8.542190185546875,0.00015030987560749054,-0.00017476442735642195,0.0016164531698450446
1761508350988161000,8.5521611328125,0.0004073767922818661,0.0015367550076916814,-0.00008084345608949661
1761508350998133200,8.56213330078125,0.0009927395731210709,0.0002957220422104001,0.00026856327895075083
1761508351008104200,8.572104248046875,0.0004625217989087105,0.0006580998306162655,0.0005273421993479133
1761508351018075100,8.5820751953125,0.000600739847868681,-0.0014045184943825006,0.0022240420803427696
1761508351028047000,8.592047119140625,0.001008473802357912,-0.0013099007774144411,-0.003949091769754887
1761508351038018300,8.602018310546875,0.001618870534002781,-0.0004989681765437126,-0.0002550211502239108
1761508351047990000,8.611989990234376,-0.0008739344775676727,0.0023888712748885155,-0.004800350870937109
1761508351057961200,8.621961181640625,0.0011066584847867489,-0.00034273299388587475,-0.0007419596659019589
1761508351067932200,8.63193212890625,0.002096843905746937,-0.001414781203493476,-0.0006569857359863818
1761508351077904100,8.641904052734375,-0.0007508741691708565,-0.0014171781949698925,0.0010002994677051902
