time,seconds_elapsed,z,y,x
1761468988717784600,0.06178466796875,-0.3248708365470171,-0.14637180689685045,0.16737981587313114
1761468988727739600,0.07173974609375,-0.41282793694138525,-0.14267609418407082,0.09623619537465274
1761468988737695500,0.081695556640625,-0.466290647059679,-0.1013788189601153,0.08902414510399102
1761468988747650600,0.091650634765625,-0.4635246894776821,-0.06864296278916299,0.13599544737637043
1761468988757606400,0.1016064453125,-0.4105547313123941,0.031873759448900814,0.19677198763936757
1761468988767561500,0.1115615234375,-0.24688918672204016,0.11568762255869805,0.24644969932623206
1761468988777516500,0.1215166015625,0.000032733225822448726,0.15172463916689158,0.2853464892797172
1761468988787472400,0.131472412109375,0.15231179140508175,0.14956410013213753,0.28269451346620916
1761468988797427500,0.141427490234375,0.12815700883567333,0.1548012701332569,0.24631394411735236
1761468988807383600,0.151383544921875,-0.029944471886754035,0.20332038636952637,0.20117548329532145
1761468988817338400,0.16133837890625,-0.13607435783147812,0.27094723091870543,0.11555924693867564
1761468988827294500,0.17129443359375,-0.12029109776616095,0.2588635560236871,0.023486381788551804
1761468988837249500,0.18124951171875,-0.08947977991700172,0.18606895344778895,-0.0578740237545222
1761468988847205600,0.19120556640625,0.026127543947100637,0.13960457778424024,-0.11789594625793397
1761468988857160400,0.201160400390625,0.18306757967472076,0.09704999597556889,-0.17981895314231514
1761468988867116500,0.211116455078125,0.27782150060236455,0.050065103569254275,-0.21578918812461195
1761468988877071600,0.221071533203125,0.2727893516540527,0.0009214987590909004,-0.2651709856048226
1761468988887026400,0.2310263671875,0.2760375397950411,-0.04198386924862861,-0.36280104649066924
1761468988896982500,0.240982421875,0.34492695162594317,-0.08523732004165649,-0.4647021357592195
1761468988906937600,0.2509375,0.40826048289537425,-0.15057751495838165,-0.504422882381454
1761468988916893400,0.2608935546875,0.4180547316789627,-0.1766410537585616,-0.5460531889520586
1761468988926848800,0.270848876953125,0.37178280984759327,-0.14499160458482802,-0.5002798642925917
1761468988936804600,0.2808046875,0.30298224534392354,-0.10720774430930614,-0.43385713483616706
1761468988946759400,0.290759521484375,0.16635025362968445,-0.07067753735668957,-0.3495220243312418
1761468988956715500,0.300715576171875,0.028416531667113304,-0.06206183083318174,-0.26503734928779304
1761468988966670600,0.310670654296875,-0.07605974185168743,-0.04868548577912152,-0.26673326648548246
1761468988976625400,0.32062548828125,-0.16456687734425066,-0.05956599542945623,-0.26544585702344775
1761468988986581500,0.33058154296875,-0.2628349438726902,-0.09807911982759833,-0.2714079802982509
1761468988996536600,0.34053662109375,-0.35965807228982444,-0.1230747371353209,-0.2465470222208649
1761468989006492700,0.35049267578125,-0.34546412724256514,-0.12842771553583443,-0.26215835978537794
1761468989016447500,0.360447509765625,-0.25826748982667924,-0.15029614073373376,-0.2430839492201805
1761468989026403300,0.3704033203125,-0.16894260821044443,-0.20144487482123075,-0.20084018692634997
1761468989036358000,0.38035791015625,0.004520107772946358,-0.23634938026815652,-0.17515972915962338
1761468989046314000,0.39031396484375,0.13547931454777717,-0.2611272631719708,-0.12293788594789802
1761468989056269000,0.40026904296875,0.21052607996463774,-0.25781338938362897,-0.040587738715112204
1761468989066223900,0.410223876953125,0.2700666486918926,-0.2554440299037844,0.03946260714270174
1761468989076180000,0.420179931640625,0.29826398465037346,-0.21757351425811647,0.08871303332820535
1761468989086134800,0.430134765625,0.1846381899923086,-0.16754530863314865,0.1261363166630268
1761468989096091000,0.4400908203125,-0.005064297652244568,-0.09003631782121956,0.14687866044044492
1761468989106046000,0.4500458984375,-0.1646317592740059,-0.03049611442014575,0.10959142457544803
1761468989116001800,0.460001708984375,-0.26567630477845666,0.017900033023580907,0.15774784497916697
1761468989125957000,0.46995703125,-0.3108347124099731,0.06895707023963332,0.17069595468379556
1761468989135913000,0.479912841796875,-0.2668178760290146,0.0876136937841773,0.16688962120339274
1761468989145867800,0.48986767578125,-0.2797428240537643,0.10029248502813279,0.1668050116598606
1761468989155823900,0.499823974609375,-0.36019583242833614,0.12499109215065836,0.14586911807171998
1761468989165779000,0.509779052734375,-0.3634334991753101,0.1371194829702377,0.08963716243579983
1761468989175733800,0.519733642578125,-0.2533744570881128,0.12974793128892778,0.03177965142466128
1761468989185689900,0.52968994140625,-0.14803776734769344,0.07587495986931025,-0.008587357211858033
1761468989195645000,0.53964501953125,-0.06444120025038719,0.05884476848281919,-0.05733436391986906
1761468989205601000,0.54960107421875,0.0525415036201477,0.042080899882316586,-0.08346336917169392
1761468989215555800,0.559555908203125,0.17277239563167093,0.018954510512575507,-0.09488017765581608
1761468989225512000,0.569511962890625,0.18684066847264766,-0.0011885521974414586,-0.11822159801572561
1761468989235467000,0.579467041015625,0.16344693340361116,-0.02730038711875677,-0.14192746777385473
1761468989245422800,0.5894228515625,0.2298901211261749,-0.050987259915471074,-0.17577033533863723
1761468989255378000,0.5993779296875,0.2919388732820749,-0.08848908837921916,-0.19582126278579234
1761468989265333000,0.6093330078125,0.34885376968085763,-0.08848178185559809,-0.18135558812506497
1761468989275288800,0.619288818359375,0.35630993090569973,-0.11220292224809526,-0.16542678210921585
1761468989285244000,0.629243896484375,0.333125454673171,-0.09285327493809163,-0.11835625724606215
1761468989295199700,0.63919970703125,0.28304361916482446,-0.08053571822196244,-0.08426686757430434
1761468989305154800,0.64915478515625,0.1554559346497059,-0.0810599612917751,-0.039900414038076995
1761468989315111000,0.65911083984375,0.039711248141527176,-0.07797295506186783,-0.0346718657348305
1761468989325065700,0.669065673828125,-0.052311786517500874,-0.06019260289520025,0.003971022522822022
1761468989335022000,0.67902197265625,-0.1480693315297365,-0.016998846400156618,0.0548590598475188
1761468989344977000,0.688976806640625,-0.2033119108021259,-0.0015297668505460022,0.0705171591632068
1761468989354931700,0.698931640625,-0.30365619908273217,0.010895341893285513,0.025657588347792623
1761468989364888000,0.70888818359375,-0.3654688043951988,0.01247793490961194,0.015765432147681713
1761468989374843000,0.7188427734375,-0.30394086124300956,0.003462050087377429,0.01397993697039783
1761468989384799000,0.728799072265625,-0.19025602987408638,0.02261770919524133,0.06412577762566507
1761468989394754000,0.738754150390625,-0.08747311626970768,0.015232494314759969,0.10826412149444221
1761468989404710000,0.7487099609375,0.0243646259278059,0.0015285247415304183,0.15273980755880473
1761468989414665000,0.7586650390625,0.09370295056998729,-0.01673391185365617,0.18299480669945478
1761468989424620800,0.768620849609375,0.15959142701923845,-0.005796922775730491,0.20258162376619873
1761468989434576000,0.778575927734375,0.18701894764900207,-0.019779709290340543,0.16630129992142317
1761468989444532000,0.788531982421875,0.11062427475452423,-0.033724428816884755,0.14012728648409248
1761468989454486800,0.79848681640625,0.03947217868864536,-0.041820641510933634,0.05054295021407306
1761468989464442000,0.808442138671875,-0.0427425786614418,-0.025742636282742024,-0.053932373456656926
1761468989474398000,0.81839794921875,-0.1386287184894085,-0.0635454204544425,-0.13878792763911188
1761468989484352800,0.828352783203125,-0.2682119607359171,-0.08825681399330497,-0.1962475253738463
1761468989494308900,0.838308837890625,-0.28692659807801246,-0.06748692462183535,-0.24635990215092896
1761468989504264000,0.848263916015625,-0.15172434690594672,-0.08974807546436786,-0.24204810336641966
1761468989514220000,0.858219970703125,0.026572365105152127,-0.10183379618600011,-0.16946056766994297
1761468989524174800,0.8681748046875,0.15308628290891646,-0.07809351270161569,-0.1088817419361323
1761468989534130700,0.878130615234375,0.22062194204330443,-0.06843078134320676,-0.08231924063786863
1761468989544086000,0.8880859375,0.2185106489777565,-0.03994103830941021,-0.017645327610149978
1761468989554041900,0.898041748046875,0.19189035307765007,-0.014467793552577496,-0.025393311388418077
1761468989563996700,0.90799658203125,0.1413683725863695,-0.037529300992563366,-0.03546564646102488
1761468989573952000,0.917951904296875,0.09876607917845248,-0.07047573117427527,-0.04587598131634295
1761468989583907800,0.927907958984375,0.04193476940989494,-0.11244506044089793,-0.10238974956832826
1761468989593863000,0.93786279296875,0.0042979894548654555,-0.14649996332116424,-0.1453635066371411
1761468989603819000,0.947819091796875,0.051124622559547424,-0.18627872374095023,-0.18004384793937206
1761468989613773800,0.95777392578125,0.07205401334166527,-0.19644187890216708,-0.18176774912253021
1761468989623730000,0.96772998046875,0.0720218646377325,-0.22287425101473926,-0.16594108830690382
1761468989633685000,0.97768505859375,0.021635493224859238,-0.19891988638825714,-0.12237265328057109
1761468989643641000,0.98764111328125,-0.07880465664565563,-0.13716507567763328,-0.09875643456727266
1761468989653596000,0.997595947265625,-0.14467968909144402,-0.06877038856111467,-0.0688867814823985
1761468989663551700,1.0075517578125,-0.15934066712856293,-0.07589424909166992,-0.026381957099586725
1761468989673507000,1.017507080078125,-0.1310205815732479,-0.06491057132780552,0.03856412393301725
1761468989683463000,1.027462890625,-0.08659516439139843,-0.029353374125808476,0.06671827833689749
1761468989693418000,1.03741796875,-0.08701718919575215,-0.017231193851307034,0.07163688390813767
1761468989703373000,1.047373046875,-0.048320671054720876,-0.014801044094935059,0.08550430041477083
1761468989713329000,1.057328857421875,0.025599136158823966,-0.03250694278590381,0.08606142284087837
1761468989723284000,1.067283935546875,0.04474515065550804,-0.03987169940024614,0.0816499630741775
1761468989733239800,1.07723974609375,0.011337386572360992,-0.04484598068147898,0.052268020441010594
1761468989743195000,1.08719482421875,-0.00369651643037796,-0.013871215898916125,0.02147416518330574
1761468989753151000,1.09715087890625,-0.05684592281579971,-0.0171357706528157,0.02124612858109176
1761468989763105800,1.107105712890625,-0.11555880854725838,-0.031705051818490024,0.035392581224814056
1761468989773062000,1.117061767578125,-0.1517301921248436,0.003011895167082548,0.04584405180811882
1761468989783017000,1.127016845703125,-0.1941588825315237,0.02557107910811901,0.06623539019078016
1761468989792972800,1.136972900390625,-0.16046820985376833,0.023721432653442023,0.07174209784828126
1761468989802927900,1.146927978515625,-0.0690589231789112,0.005943272443860769,0.02197298155091703
1761468989812883000,1.156883056640625,0.03981821564733982,-0.042990050616487856,0.004132642825320363
1761468989822839000,1.166839111328125,0.10311258395016193,-0.06903744199946522,0.005894830192252993
1761468989832793900,1.1767939453125,0.1798550473690033,-0.09269282367937266,0.01655621719919145
1761468989842750000,1.18675,0.23679683177471159,-0.12219028245098888,-0.03910670637711882
1761468989852705000,1.196705078125,0.25008652145862575,-0.14586137315668166,-0.07796053397171199
1761468989862660900,1.206660888671875,0.19130758475363255,-0.14792721964530645,-0.10915851305089891
1761468989872616000,1.216615966796875,0.08954349280297756,-0.15505809443853794,-0.12108232120908796
1761468989882572000,1.226572021484375,-0.025241993284225463,-0.13106230182312428,-0.16055274633206426
1761468989892526800,1.23652685546875,-0.1162064588010311,-0.09429667867943645,-0.17045907718800007
1761468989902483000,1.24648291015625,-0.17845628648698328,-0.04460464620627463,-0.16597513670697808
1761468989912438000,1.25643798828125,-0.18024141633808613,-0.024886750105768442,-0.1512340791709721
1761468989922393900,1.266393798828125,-0.14545184250771998,-0.014507175714895128,-0.14655666194446385
1761468989932349000,1.276348876953125,-0.0880038621455431,-0.04093611376136541,-0.1345647569861263
1761468989942304000,1.286303955078125,-0.05515548551082611,-0.06300115750990808,-0.12278247619047761
1761468989952260000,1.296260009765625,-0.025068390282988545,-0.0453511537246406,-0.09096848410479724
1761468989962215000,1.30621484375,0.03213525992929935,-0.06054675009511411,-0.09074695030860602
1761468989972170800,1.316170654296875,0.08587094177007674,-0.10228709291145205,-0.10673735031858086
1761468989982126000,1.3261259765625,0.11597966430783271,-0.11327091680578887,-0.09517835688479244
1761468989992082000,1.33608203125,0.155341952881217,-0.10238163932710885,-0.08769823026247323
1761468990002036700,1.34603662109375,0.1876537384212017,-0.08756853946819901,-0.05170965590588748
1761468990011992800,1.355992919921875,0.18427520189881325,-0.0902695420552045,-0.05242416085079312
1761468990021948000,1.365947998046875,0.10000117393136024,-0.0722554541978985,-0.04357084617912769
1761468990031904800,1.37590478515625,-0.03538578615784645,-0.018738748870044945,-0.038043534125015134
1761468990041859600,1.385859619140625,-0.10696049154996871,-0.012855828311294316,-0.024540786212310192
1761468990051815000,1.39581494140625,-0.07899871791303158,0.01686966706253588,0.0109998982463032
1761468990061770800,1.405770751953125,0.019296821144223212,-0.007603899132460355,0.0481081973478198
1761468990071725600,1.4157255859375,0.08433598728775978,-0.05615143774561584,0.09677592827454208
1761468990081681700,1.425681640625,0.13347849611937998,-0.05378032470010221,0.11937157176844775
1761468990091636700,1.43563671875,0.13014672134816646,-0.051837520069256425,0.09775441791787742
1761468990101592800,1.4455927734375,0.007296002227067947,-0.06912680078335105,0.06928221054077148
1761468990111547600,1.455547607421875,-0.11856792723536491,-0.06744834617711604,-0.0022919833946973083
1761468990121503500,1.46550341796875,-0.19083236845731735,-0.06979797804318368,-0.0493071248088032
1761468990131458800,1.475458740234375,-0.17538754656612873,-0.0874422827400267,-0.07156454932428896
1761468990141414700,1.48541455078125,-0.11648352217674254,-0.09371902492195368,-0.04438062819205224
1761468990151369700,1.49536962890625,-0.03315057445168495,-0.08165135131366551,-0.03659567340426147
1761468990161325600,1.50532568359375,0.08121873205006122,-0.11655549143441021,-0.03992247973941266
1761468990171280600,1.51528076171875,0.04590659565031528,-0.15212467133514582,-0.06512728281840682
1761468990181235700,1.525235595703125,0.01044774425625801,-0.17212752185687422,-0.12131591076925397
1761468990191191600,1.535191650390625,0.008967150309681891,-0.17086795024983584,-0.1930469027016312
1761468990201146600,1.545146728515625,0.012139935126900672,-0.1804861848793924,-0.21078553461842237
1761468990211102700,1.555102783203125,0.017711597779393195,-0.175649996894598,-0.16335742848925291
1761468990221057500,1.5650576171875,0.041514498171210286,-0.12800393716581165,-0.12868527049347758
1761468990231014000,1.575013916015625,0.030873861691355704,-0.10467077317759393,-0.08997406623996794
1761468990240968700,1.58496875,-0.04670972872674465,-0.07333360482342541,-0.04809687223620712
1761468990250924500,1.594924560546875,-0.15025953505039213,-0.017653291720896958,-0.03970445307455957
1761468990260880000,1.6048798828125,-0.21171207487881183,0.004436082751303911,-0.030422610792517662
1761468990270835700,1.614835693359375,-0.24482056375443934,0.021576675709709524,-0.022031872131302952
1761468990280790800,1.624790771484375,-0.17262918776869773,0.024813757934793828,-0.040030177897587414
1761468990290746600,1.63474658203125,-0.028182722911238668,0.00907704042494297,-0.03064560589343309
1761468990300701700,1.64470166015625,0.042215924438834186,-0.002869052630290389,-0.0186176067084074
1761468990310656800,1.65465673828125,0.022529227194190024,-0.013297215403243898,-0.042546544632688164
1761468990320612600,1.664612548828125,-0.029084055665135382,0.023371742432937024,-0.06114858844578266
1761468990330567700,1.674567626953125,-0.06756839236021041,0.02049260680004954,-0.06416822852790355
1761468990340523800,1.684523681640625,-0.0553214897274971,0.010308774176985025,-0.06083586923480033
1761468990350478600,1.694478515625,0.006046878948807716,0.006094882808998227,-0.058148091455549
1761468990360434700,1.7044345703125,0.10222820233106612,-0.037945992034673685,-0.05484283936508
1761468990370389800,1.7143896484375,0.1590355467021465,-0.06874167392328381,-0.09505005433000624
1761468990380345600,1.724345703125,0.2012953102827072,-0.06700520551949739,-0.11872567508034407
1761468990390300700,1.73430078125,0.1609054322272539,-0.07861534461863338,-0.11115838163122534
1761468990400256500,1.744256591796875,0.12699673288464544,-0.040872400875389577,-0.10549451065063475
1761468990410211800,1.7542119140625,0.05777998879551887,-0.027732202664762735,-0.10451536342017352
1761468990420167700,1.764167724609375,0.017775310665369033,-0.05878821598999202,-0.12206811737604438
1761468990430122500,1.77412255859375,-0.000040332010388374324,-0.07293430330753325,-0.1203258037533611
1761468990440077800,1.784077880859375,0.015324410381913183,-0.11308825371526181,-0.11362513707093894
1761468990450033700,1.79403369140625,0.014290975680947303,-0.1342057144153863,-0.11386822511181234
1761468990459988500,1.803988525390625,0.015901333487033844,-0.11308131251782179,-0.08141008990369737
1761468990469944800,1.81394482421875,0.02547521751821041,-0.06695522889792918,-0.02246661028675735
1761468990479899600,1.823899658203125,-0.005813070192933082,-0.03992737511023879,-0.019042115730792283
1761468990489855700,1.833855712890625,-0.052476621690392494,-0.0326527079321444,-0.06092077103927731
1761468990499810800,1.843810791015625,-0.07102934646904469,-0.046246275933459396,-0.10263415278345346
1761468990509767000,1.853766845703125,-0.06926058323085307,-0.05384148030281066,-0.09747348208464682
1761468990519721700,1.8637216796875,-0.06886486191153526,-0.042405674857273694,-0.10424904063418507
1761468990529677600,1.873677490234375,-0.0633253479629755,-0.02518748661801219,-0.08625964882671833
1761468990539633000,1.8836328125,-0.040355975785851476,-0.006742021606117487,-0.043042949847504494
1761468990549588700,1.893588623046875,0.009539981761574745,0.012674188134074211,-0.03804448397308588
1761468990559543600,1.90354345703125,0.052070378977060315,-0.00880794115997851,-0.028921266318857667
1761468990569499600,1.913499755859375,0.06318330914378166,-0.03439414477199316,-0.05459836308471858
1761468990579454700,1.923454833984375,0.044531800165772434,-0.035499840991571545,-0.07998122614435851
1761468990589409500,1.933409423828125,0.04536299029290676,-0.04239719928987324,-0.09984598336964845
1761468990599365600,1.94336572265625,0.04360884010195732,-0.04652268172204494,-0.08819317417256534
1761468990609320700,1.95332080078125,0.04705401211977005,-0.02723762408085167,-0.09974011184237896
1761468990619276800,1.96327685546875,0.0061047466158866874,-0.02733750425875187,-0.07060191483721137
1761468990629231600,1.973231689453125,-0.0010959785431623459,-0.006786518334969877,-0.06826755360551177
1761468990639187700,1.983187744140625,0.025507950744032858,-0.02526142863705754,-0.058774625856056806
1761468990649142800,1.993142822265625,0.06223346107304096,-0.05658690655343234,-0.04905030050352215
1761468990659098600,2.0030986328125,0.05913140340447425,-0.045898266213387245,-0.019012962701544164
1761468990669053700,2.0130537109375,0.01915828945636749,-0.032272841769084334,-0.007120937921106815
1761468990679009800,2.023009765625,-0.04028583315908909,-0.03403890159353613,0.01803067366592586
1761468990688964600,2.032964599609375,-0.02982172228991985,-0.041328035688400266,0.0063982496697455645
1761468990698920700,2.042920654296875,0.07793313450813293,-0.05694558379799127,0.0025051877539604903
1761468990708875800,2.052875732421875,0.14129121569693087,-0.0898381649006158,-0.0036653175745159387
1761468990718830600,2.06283056640625,0.1340180098235607,-0.10371230340898037,0.0007054448556154966
1761468990728786700,2.07278662109375,0.06012216800749302,-0.09767134274430572,-0.0006884937208145856
1761468990738741800,2.08274169921875,-0.02894435493350029,-0.08353716506026684,-0.02225011799186468
1761468990748697900,2.09269775390625,-0.09295826968252659,-0.10630816512107849,-0.037084699030220505
1761468990758652700,2.102652587890625,-0.07909165689349174,-0.12222601135149598,-0.02567147074267268
1761468990768608800,2.11260888671875,-0.09639759648144244,-0.13410503051988779,-0.02177446330413222
1761468990778563800,2.122563720703125,-0.10789981822669506,-0.14476312959119678,-0.015500643731653689
1761468990788519700,2.132519775390625,-0.08362053249478339,-0.11258468810729681,-0.026581205998733638
1761468990798474800,2.142474853515625,0.003360416343808174,-0.09755385384447872,-0.029195553215593098
1761468990808430600,2.1524306640625,0.06512567538321018,-0.07545242360830307,0.03273527164906263
1761468990818385700,2.1623857421875,0.10872048695981502,-0.0767387370917946,0.031221871411427855
1761468990828341800,2.172341796875,0.032174422895908356,-0.051469125148281454,0.020747750604897735
1761468990838296600,2.182296630859375,-0.022878771284222603,-0.015900602834671734,0.019937895526736974
1761468990848252700,2.192252685546875,-0.07440028420686721,-0.018810645062476396,0.002338014493510127
1761468990858207700,2.202207763671875,-0.10602934817969799,-0.032714594187214965,-0.011613573165237904
1761468990868162600,2.21216259765625,-0.10259352851212024,-0.02268339484259486,-0.011834010982885956
1761468990878118700,2.22211865234375,-0.0716775812447071,-0.032284093815460796,-0.035667964100092646
1761468990888073700,2.23207373046875,-0.007589432215690612,-0.0699682200435549,-0.018749270264059304
1761468990898029800,2.24202978515625,0.09102934744656085,-0.07488302622251213,-0.04589958138763904
1761468990907984600,2.251984619140625,0.12134732882082462,-0.07518288595192134,-0.015851137669757008
1761468990917940700,2.261940673828125,0.13293547528386115,-0.052871393161639565,0.003097819884866476
1761468990927895800,2.271895751953125,0.1107037697315216,-0.031189138185605404,0.010160378682240843
1761468990937851600,2.2818515625,-0.026492870128154752,0.0035417642600834368,0.031043080778419968
1761468990947806700,2.291806640625,-0.18649229342639445,0.0536425967298448,0.03386434874422848
1761468990957762800,2.3017626953125,-0.2588718854606151,0.08651632700152695,0.008050473856180906
1761468990967717600,2.311717529296875,-0.2678536488175392,0.05067278713881969,-0.021968305375799534
1761468990977673700,2.321673828125,-0.1948515409708023,-0.013194120354950427,-0.0337396263860166
1761468990987628800,2.33162890625,-0.09981003527343273,-0.051791415905207396,-0.05619849175773561
1761468990997583600,2.34158349609375,-0.07271861473023891,-0.09179331755638122,-0.05499912590533495
1761468991007539700,2.351539794921875,-0.09317571182548999,-0.10371887928023933,-0.08237360117360949
1761468991017494800,2.361494873046875,-0.05665186154842376,-0.11999386838525533,-0.11379830168075859
1761468991027451000,2.371450927734375,0.02272854915857315,-0.12976539388038216,-0.08737688935361802
1761468991037405000,2.381405029296875,0.12450783867835997,-0.11544738406203686,-0.056897068481147284
1761468991047361000,2.391361083984375,0.23710195220112798,-0.11669475377462804,-0.011800474039465188
1761468991057316000,2.401316162109375,0.25119302139580246,-0.06710669313259422,0.050785745994001624
1761468991067272200,2.411272216796875,0.13646774106323717,-0.011192936600372195,0.08602152922190726
1761468991077227000,2.42122705078125,0.0025017536878585815,0.03239003840796649,0.09713475164957344
1761468991087183000,2.43118310546875,-0.1213350538611412,0.05565101394280791,0.0634441520370543
1761468991097138200,2.44113818359375,-0.21714579036533832,0.06566884234920144,-0.006748012955486774
1761468991107094000,2.451093994140625,-0.2609492762565613,0.026567323603853582,-0.0612487608846277
1761468991117049000,2.461049072265625,-0.19748130495250224,-0.002072422359883785,-0.0742496236898005
1761468991127005200,2.471005126953125,-0.09851531928777695,-0.04027275448180735,-0.11059424494244158
1761468991136960000,2.4809599609375,-0.003028407910466194,-0.07697758734896779,-0.11327120906673371
1761468991146916000,2.490916015625,0.05821779569089412,-0.1028019105657935,-0.11300802808590232
1761468991156871200,2.50087109375,0.08884966531991959,-0.09205131090544164,-0.13628127858042716
1761468991166826000,2.510825927734375,0.06671440587937831,-0.08134878817051648,-0.14066110109984875
1761468991176782000,2.520781982421875,-0.01631108333170414,-0.10236680708415806,-0.14854893174022435
1761468991186737200,2.530737060546875,-0.08437865738570689,-0.0936274011157453,-0.13770415099039673
1761468991196693200,2.540693359375,-0.11861994968354701,-0.09391600879877805,-0.13688808536715805
1761468991206648000,2.55064794921875,-0.1274181731671095,-0.08977744768932461,-0.11910020748116075
1761468991216604000,2.56060400390625,-0.12887597075998783,-0.08651493876203895,-0.06956197733022272
1761468991226559200,2.570559326171875,-0.1912304278641939,-0.1684488333441317,-0.1317692810487002
1761468991236515000,2.58051513671875,-0.1660819580823183,-0.1454930513009429,-0.16526428502388296
1761468991246470000,2.590469970703125,-0.1435387023627758,-0.13657953087463975,-0.14166392146684229
1761468991256426000,2.600426025390625,-0.09275485606491565,-0.08704407720267772,-0.09448854798972606
1761468991266381000,2.610381103515625,-0.04351297851204872,-0.023923019640147685,-0.05303038311563432
1761468991276337200,2.620337158203125,-0.03585223462581634,-0.018455401884019375,-0.010055091676861047
1761468991286292000,2.6302919921875,-0.03273030321300029,-0.028780542673915624,0.019100714050233364
1761468991296248000,2.640248046875,0.021308745488524437,-0.013143559211492538,0.015402590184658765
1761468991306203100,2.650203125,0.06305705241560935,-0.009222440245002508,0.019342340786382556
1761468991316158000,2.660157958984375,0.030093524968624115,-0.003262947318702936,0.07057181195989251
1761468991326114300,2.6701142578125,0.0027361469656229016,0.0422024804353714,0.08146203928664326
1761468991336069000,2.680069091796875,-0.02236556106507778,0.08079904533326625,0.07064787287078797
1761468991346025000,2.69002490234375,0.03356383142769336,0.05814867597743868,0.03590118833407759
1761468991355980000,2.69997998046875,0.15344985552430151,0.014012597130984067,-0.005420198417827486
1761468991365936000,2.70993603515625,0.27602058866024015,-0.03311711057350039,-0.03997260249145329
1761468991375891000,2.719890869140625,0.35832419333755966,-0.05643178905695676,-0.04684358423948288
1761468991385847000,2.729846923828125,0.3049766340315342,-0.06890797040089965,-0.0790414610762149
1761468991395802000,2.739802001953125,0.2145586964815855,-0.04897328974455595,-0.08371924362890422
1761468991405758200,2.74975830078125,0.12921148632466792,-0.029261458058655262,-0.10369323338232934
1761468991415713000,2.759713134765625,0.054573886230587954,-0.018963497536629438,-0.11914835747182369
1761468991425669000,2.769669189453125,0.019928104785084725,-0.018255641528218982,-0.1493552066218108
1761468991435624200,2.779624267578125,-0.043047699087858195,-0.051367491404712196,-0.15655761228129267
1761468991445580000,2.789580078125,-0.09690262339413165,-0.04847819970399141,-0.1716082472231239
1761468991455535000,2.79953515625,-0.1384925248891115,-0.03992562154456973,-0.1781538694743067
1761468991465491000,2.809490966796875,-0.1785597468614578,-0.049588206772506235,-0.1614372740816325
1761468991475446000,2.819446044921875,-0.15208791952133177,-0.05335135869830847,-0.15375366077646613
1761468991485401000,2.829401123046875,-0.11321195316016673,-0.06514584138840436,-0.15471519928500055
1761468991495357000,2.83935693359375,-0.048423546907305715,-0.08643266730606555,-0.1353776077389717
1761468991505312000,2.84931201171875,0.0336363121420145,-0.08730170522555708,-0.09832498434744774
1761468991515268000,2.85926806640625,0.09350187503993511,-0.08577697987630963,-0.07049173246100544
1761468991525223000,2.869222900390625,0.12532616932392118,-0.06867766877636312,-0.025963001035153865
1761468991535179300,2.87917919921875,0.1232213059991598,-0.05466390260159969,0.022756606209278104
1761468991545134000,2.889134033203125,0.052151042997837065,-0.031245617613196372,0.028900588857010006
1761468991555090200,2.899090087890625,-0.029436522364616392,-0.027762159411609172,0.009371493326872586
1761468991565045000,2.909044921875,-0.0894236658155918,-0.026305823123455047,0.007191665069758891
1761468991575001000,2.9190009765625,-0.11032616859078406,-0.03760229316353798,0.03232347597777843
1761468991584956200,2.9289560546875,-0.095963881239295,-0.02865852372944355,0.03884849383234978
1761468991594912000,2.938912109375,-0.048563832160830496,-0.023702947148680684,0.052009223374351855
1761468991604867000,2.9488671875,0.01409457632601261,-0.04044482311308384,0.05399016805849969
1761468991614823200,2.9588232421875,0.11953414191901683,-0.05640796978995204,0.06935366834178566
1761468991624778000,2.968778076171875,0.18948446097970006,-0.07766717704832553,0.09176321467906236
1761468991634734000,2.978734130859375,0.1797802285671234,-0.07294979313760995,0.10323043817616999
1761468991644689200,2.988689208984375,0.10353460875451564,-0.030910248178988693,0.09956555899307132
1761468991654644000,2.99864404296875,0.0010503858357667922,0.008733195423334837,0.09369812826439737
1761468991664600000,3.00860009765625,-0.09526011688411236,0.0022270283997058867,0.10026201682463287
1761468991674555100,3.01855517578125,-0.1491027662307024,-0.009791326174139976,0.020374825639277696
1761468991684511200,3.02851123046875,-0.18678806150257588,-0.031185411858558654,-0.04438055512681603
1761468991694466000,3.038466064453125,-0.20904314793050288,-0.05973740647360682,-0.09375117362588643
1761468991704422000,3.048421875,-0.192750184777379,-0.0713745066449046,-0.10218363253697753
1761468991714377200,3.058377197265625,-0.14730419237613676,-0.05339914336279034,-0.09365648107975721
1761468991724333000,3.0683330078125,-0.11502338649630546,-0.025526070922613144,-0.054697877936437725
1761468991734288000,3.078287841796875,-0.06698153238296509,-0.01697612311169505,-0.03064714026339352
1761468991744244200,3.088244140625,-0.010295768564939498,-0.012469020950794218,0.010017463080212473
1761468991754199000,3.098198974609375,0.040922377496957776,-0.0005300152234733104,0.006759849523752927
1761468991764155100,3.108155029296875,0.06695172176659107,-0.031024814469367265,-0.04105162989981472
1761468991774110000,3.11810986328125,0.05788111108243465,-0.053095922632515426,-0.10932378661520778
1761468991784066000,3.128066162109375,0.010275310298800468,-0.06565364478006959,-0.14962415975630283
1761468991794021000,3.138021240234375,-0.04253215078115463,-0.044650896500796074,-0.14834982897154986
1761468991803977000,3.14797705078125,-0.03469838841557502,-0.02457505380809307,-0.1403394679300487
1761468991813932300,3.157932373046875,-0.01416296538710594,0.004857230772823095,-0.10690664247088133
1761468991823887000,3.16788720703125,-0.027160394126176834,0.01919452981352806,-0.04949241824783385
1761468991833843000,3.177843017578125,-0.04061374993920326,0.05542421944960951,-0.03330876068808138
1761468991843798300,3.18779833984375,-0.013206103053689001,0.060708151201903815,-0.0014919921234250067
1761468991853754000,3.197754150390625,0.04328384593129158,0.05655614608898758,-0.004348696728795767
1761468991863709000,3.207708984375,0.09017828357517718,0.016644553069770335,-0.051538244861736894
1761468991873665000,3.2176650390625,0.13934943397939203,-0.01621434495896101,-0.08018463976196945
1761468991883620000,3.2276201171875,0.21282617360055445,-0.046509529979526995,-0.09217683698125183
1761468991893576200,3.237576171875,0.29333588059842586,-0.0797631264142692,-0.09653766253925859
1761468991903531000,3.247531005859375,0.29664252092838284,-0.0801432117730379,-0.09513736728727817
1761468991913486800,3.25748681640625,0.2611468446552753,-0.08346738775968551,-0.11269625872299074
1761468991923442200,3.267442138671875,0.2118786636173725,-0.05212868503555655,-0.07886771194450556
1761468991933398000,3.27739794921875,0.12328969506025314,-0.024278116688132286,-0.04322904700413346
1761468991943353000,3.28735302734375,0.0043909284353256224,-0.0052409693934023375,-0.0541407555103302
1761468991953309200,3.29730908203125,-0.13292670745551585,-0.008740063555538654,-0.030885625194385646
1761468991963264000,3.307263916015625,-0.25898469818532466,-0.006451221965998411,0.004549772258847951
1761468991973219000,3.317218994140625,-0.32489304837882516,0.0261596926510334,0.028241028969734905
1761468991983175000,3.3271748046875,-0.35929683776199817,0.03703793727904558,0.057715691387653346
1761468991993130000,3.3371298828125,-0.3801461490452289,0.02911138206347823,0.063150502852723
1761468992003086000,3.347086181640625,-0.3817728734642267,0.008444733870774507,0.04505750454030931
1761468992013041000,3.357041015625,-0.3998994817852974,0.01018675523251295,0.03897380071245134
1761468992022997200,3.366997314453125,-0.41178281180262566,0.009339344622939824,0.017662717136368154
1761468992032952000,3.3769521484375,-0.3618272330224514,0.006436316657811403,-0.004151493656262755
1761468992042908200,3.386908203125,-0.24034020346999166,-0.00349587929174304,-0.06481821686923503
1761468992052863200,3.39686328125,-0.03683072426915168,-0.028407179316878316,-0.104129798168689
1761468992062819300,3.4068193359375,0.13737901068925856,-0.06733034582063556,-0.13558153281323612
1761468992072774100,3.416774169921875,0.278607682543993,-0.08433832537531852,-0.16948752874210476
1761468992082730000,3.42672998046875,0.3473655769497156,-0.10295680886656046,-0.1822645927287638
1761468992092685300,3.436685302734375,0.3579062601864338,-0.09654694182425737,-0.19103819322772322
1761468992102641200,3.44664111328125,0.3700865273237228,-0.10061755226403474,-0.21695852416492997
1761468992112596200,3.45659619140625,0.39156010798513885,-0.09294950185418129,-0.1936796476472169
1761468992122552000,3.466552001953125,0.3973018665075302,-0.07629471965134144,-0.17132840736843644
1761468992132507100,3.476507080078125,0.3238981921225786,-0.09482552485913037,-0.15331461177207528
1761468992142462200,3.486462158203125,0.21773323486447332,-0.08573752464875578,-0.1333935212496668
1761468992152418000,3.49641796875,0.08604746738076209,-0.06806348240077495,-0.09463270570077001
1761468992162373000,3.506373046875,0.01134966153204441,-0.029103929409384725,-0.04068498854450881
1761468992172329200,3.5163291015625,-0.05753507412374019,-0.0031156478025019165,0.020497575236111877
1761468992182284000,3.526283935546875,-0.07096914071440696,-0.00580401010364294,0.049467649132758376
1761468992192240000,3.536240234375,-0.0221294142216444,-0.0245813374184072,0.06125460610352456
1761468992202195200,3.5461953125,-0.003159340813755989,-0.056602177187800404,0.08812434672005474
1761468992212151000,3.556151123046875,-0.04490589417517185,-0.06173501003161072,0.1231004560984671
1761468992222106000,3.566106201171875,-0.1790261953294277,-0.022524551019072532,0.15912549000792203
1761468992232062200,3.576062255859375,-0.3193751617401838,0.034368279678374525,0.20368607787676155
1761468992242017300,3.586017333984375,-0.4322884242147207,0.030476386806368827,0.16072642239853738
1761468992251973000,3.59597314453125,-0.4104109389275312,0.005422755701094866,0.10187354367449879
1761468992261928200,3.60592822265625,-0.3471411205440759,-0.07022402143552899,0.030054435067251323
1761468992271884300,3.61588427734375,-0.20613456700742244,-0.13980521492287515,-0.03758833770342171
1761468992281839000,3.625839111328125,-0.09372048622667789,-0.18629516341909766,-0.05921528229564428
1761468992291795200,3.635795166015625,0.025765724897384643,-0.19298092479333281,-0.07001731988228857
1761468992301750300,3.645750244140625,0.10764672024846077,-0.21671090607941149,-0.0761453012432903
1761468992311706000,3.6557060546875,0.18069383628070354,-0.22130860913321374,-0.06391359617970883
1761468992321661200,3.6656611328125,0.1879974372923374,-0.199144415859133,-0.016260376057773827
1761468992331616300,3.6756162109375,0.1409323192566633,-0.1677884697392583,0.016768763971328735
1761468992341572000,3.685572021484375,0.09619126025438308,-0.1249042906500399,-0.00844495306648314
1761468992351527200,3.695527099609375,0.015954524978995323,-0.10200199235975742,-0.0119018155220896
1761468992361483000,3.70548291015625,-0.060199909418821335,-0.09910057182982564,-0.0490438707627356
1761468992371438300,3.715438232421875,-0.12244389188587665,-0.07604176780357956,-0.045616672793030735
1761468992381394200,3.725394287109375,-0.16327216135859488,-0.041430911540985105,0.007682152000442147
1761468992391349000,3.735348876953125,-0.18245733882188797,-0.03982902930229902,0.030341435315087435
1761468992401305000,3.74530517578125,-0.179475108140707,-0.018802461756020784,0.04028612542003393
1761468992411260200,3.75526025390625,-0.12077274380326271,0.015406097315996884,0.044779272120818496
1761468992421216300,3.76521630859375,-0.04049743008315563,0.017965280279517173,0.05903123096562922
1761468992431171000,3.775171142578125,-0.025120412731170653,0.025782822162657974,0.08480002460293472
1761468992441127200,3.785127197265625,-0.027841362127661702,0.04746449261680245,0.08454232351481913
1761468992451082200,3.795082275390625,0.020148469537496567,0.03696224169433117,0.0532098313357681
1761468992461038000,3.8050380859375,0.0873807618111372,-0.011296177779138088,0.027577231298759577
1761468992470993200,3.8149931640625,0.16061083319485187,-0.05902648172527551,-0.01390643334276974
1761468992480948200,3.8249482421875,0.18301029652953146,-0.09629442836791276,-0.0678842533763498
1761468992490904000,3.834904052734375,0.2539063720077276,-0.09419131860882043,-0.09600633214153349
1761468992500859100,3.844859130859375,0.23317513414621352,-0.09444982341453433,-0.08297412435002624
1761468992510815200,3.854815185546875,0.15897709451317787,-0.09176102272197603,-0.04671155535764992
1761468992520770000,3.86477001953125,0.1345621997028589,-0.056405923963338135,-0.05711056510135531
1761468992530726100,3.87472607421875,0.09417875138819218,-0.05062997091040015,-0.06747545337975025
1761468992540681200,3.88468115234375,0.010305120915174484,-0.058473524017632006,-0.06697064566276967
1761468992550637300,3.89463720703125,-0.06561024402976036,-0.048522184976190326,-0.06886332754157483
1761468992560592100,3.904592041015625,-0.040001170998811716,-0.017383973260223864,-0.03869359553158283
1761468992570548000,3.9145478515625,-0.03329612040221691,-0.015828560511767863,0.03183415809087455
1761468992580503300,3.92450341796875,-0.03663900108933449,-0.014898293924331665,0.03168656631372869
1761468992590459100,3.934459228515625,-0.022951836520433425,-0.02168313175886869,0.03350837491340935
1761468992600414200,3.944414306640625,-0.04354337365031242,-0.02449073652550578,0.0068238546706736085
1761468992610370000,3.9543701171875,-0.08467267189621924,-0.05858136830627918,-0.04623575453944504
1761468992620325000,3.9643251953125,-0.08561842831373215,-0.04798837036043405,-0.0809012635987252
1761468992630281200,3.97428125,-0.0816986245214939,-0.04517448198348283,-0.1035322706669569
1761468992640236000,3.984236083984375,-0.04326806384027004,-0.029023119258135555,-0.08598229319006204
1761468992650813200,3.994813232421875,0.01939794343113899,-0.03134089468121529,-0.07989318253472447
1761468992660769300,4.004769287109375,0.0524848049968481,-0.0470003822363913,-0.09319975028820335
1761468992670724000,4.01472412109375,0.06645137102901935,-0.06156622933596372,-0.08477708211876452
1761468992680680200,4.02468017578125,0.07700374470353126,-0.03867269887402654,-0.0762877784539014
1761468992690635300,4.03463525390625,0.07791969050467014,-0.04463905993252992,-0.0874523657426238
1761468992700591000,4.044591064453125,0.03916764278411865,-0.06050123045295477,-0.12455555027760565
1761468992710546200,4.054546142578125,-0.0009340659797191619,-0.0507194027595222,-0.16820472238995135
1761468992720502000,4.064501953125,-0.015984920117259025,-0.046412060954421755,-0.16318302177041769
1761468992730457000,4.07445703125,-0.057695817643404,-0.02577098559439182,-0.1310016576770693
1761468992740413200,4.0844130859375,-0.07699146974384784,-0.021482933011651037,-0.09313011911809443
1761468992750368000,4.094367919921875,-0.0076876318931579585,-0.0023468553870916366,-0.03346066331416368
1761468992760324400,4.104324462890625,0.06362286960482597,-0.01332388421446085,-0.017186258731037376
1761468992770279200,4.114279052734375,0.11473229459524154,-0.04110430993512273,0.006584200695902109
1761468992780235000,4.124235107421875,0.1536906785428524,-0.06696282768249512,0.04671352811902761
1761468992790190300,4.1341904296875,0.11332827301621437,-0.051508361180126666,0.08036657220013439
1761468992800146200,4.144146240234375,0.022374328893423077,-0.026628186945617197,0.0916439722135663
1761468992810101200,4.154101318359375,-0.1302981125175953,-0.024689035576581954,0.06406133408732712
1761468992820056300,4.164056396484375,-0.28924831902384757,-0.02129135596230626,0.02927227171361446
1761468992830012200,4.17401220703125,-0.3852309049636125,-0.014540420397371053,-0.0496763965126127
1761468992839967200,4.18396728515625,-0.39162265182733536,-0.007737170123308897,-0.07776194265969097
1761468992849923000,4.193923095703125,-0.33552199442088604,-0.020810148316621778,-0.1018276587061584
1761468992859878100,4.203878173828125,-0.22351824800670145,-0.04651727489456534,-0.12020977615825831
1761468992869834200,4.213834228515625,-0.13915654175579548,-0.060030982592701905,-0.11701916342340409
1761468992879789000,4.2237890625,-0.09622048634886742,-0.07695581390857696,-0.11522555800490081
1761468992889745200,4.2337451171875,-0.04987199214994907,-0.07543152695074677,-0.11823511508442461
1761468992899700200,4.2437001953125,-0.01507891118824482,-0.0728029320128262,-0.13749686491526664
1761468992909656000,4.253656005859375,-0.000533083963394165,-0.06816182820871472,-0.15181903945207595
1761468992919611100,4.263611083984375,0.024444705426692963,-0.05134922509565949,-0.14787636624090372
1761468992929567000,4.27356689453125,0.08136544704437255,0.011414981853216885,-0.12347820336967706
1761468992939522300,4.283522216796875,0.10126257216930389,0.04640329312607646,-0.08454217738434672
1761468992949478100,4.29347802734375,0.10662731407284735,0.07046411380171776,-0.03678849256262183
1761468992959433000,4.303432861328125,0.12237082664966582,0.10386837075352669,-0.00948372152969241
1761468992969389300,4.313389404296875,0.14893793105781078,0.12720102328509092,0.02533829326555133
1761468992979966200,4.32396630859375,0.16993980255424976,0.10807181379273534,0.002441620998457074
1761468992989922000,4.333922119140625,0.1804997750133276,0.1203406359963119,-0.0018148674022406338
1761468992999877000,4.343877197265625,0.13939561120867727,0.14669965061172843,0.02548420454226434
1761468993009833200,4.353833251953125,0.061271922564506524,0.1904790249750018,0.057384267476201054
1761468993019788300,4.363788330078125,0.009147767573595046,0.23162395918145776,0.07344970548376441
1761468993029744000,4.373744140625,0.01969955672621727,0.20572423264086245,0.0703463326409459
1761468993039699200,4.38369921875,0.041941199150681494,0.13650252011567354,0.013519114525616167
1761468993049655300,4.3936552734375,0.09086801940500736,0.046047757686674594,-0.06326689577400683
1761468993059610400,4.4036103515625,0.15236322933137417,0.0036491701573133466,-0.07872560006007552
1761468993069566200,4.413566162109375,0.14126140508055687,-0.02344838786572218,-0.06884710705913603
1761468993079521300,4.423521240234375,0.10538754314482211,-0.03809855224788189,-0.0243221019603312
1761468993089477400,4.433477294921875,0.06563479394912719,-0.05468742960765958,-0.030997122744843363
1761468993099432200,4.44343212890625,0.013173369827866554,-0.08159151088520884,-0.057897696891054506
1761468993109388300,4.45338818359375,-0.06670505352914333,-0.11198021940812468,-0.09671016956195234
1761468993119343400,4.46334326171875,-0.1357651457518339,-0.14545622642189263,-0.1165790184404701
1761468993129299500,4.473299560546875,-0.20378420448899268,-0.1339518127195537,-0.15594181847050786
1761468993139254300,4.483254150390625,-0.26737200278043743,-0.11770166579484939,-0.13398586111962796
1761468993149209300,4.493209228515625,-0.2582037769407034,-0.09777078453078865,-0.10830357672199606
1761468993159165400,4.50316552734375,-0.22163608752191066,-0.08441767422184347,-0.04702317859008908
1761468993169120300,4.513120361328125,-0.16758008768558502,-0.07706058945730328,-0.008918854188546538
1761468993179076000,4.523076171875,-0.0645323856651783,-0.07865721099898218,0.009236980227008461
1761468993189031400,4.533031494140625,0.04150456129908561,-0.09717807933464646,0.030883871628716586
1761468993198987300,4.5429873046875,0.08611234931051731,-0.10121566428765653,0.02885039303973317
1761468993208942000,4.552942138671875,0.09671499186754226,-0.09665200963392853,0.014807619966194032
1761468993218898200,4.562898193359375,0.03048223202526569,-0.03734101187884807,0.004721548629179596
1761468993228853200,4.572853271484375,-0.07140577856600284,-0.022951105868071316,-0.03513604918047786
1761468993238809300,4.582809326171875,-0.0713338823735714,-0.006880407163500786,-0.04838884092010557
1761468993248764200,4.59276416015625,0.016679916644096373,0.0019891279906034467,-0.07138795064836741
1761468993258720500,4.602720458984375,0.14451660748422146,-0.02227875956445932,-0.051305385953933
1761468993268675300,4.61267529296875,0.23681027577817437,-0.035231033987551924,-0.008088833105191588
1761468993278631200,4.622631103515625,0.25647885284423827,-0.019164426936209202,-0.036964725912362335
1761468993288586500,4.63258642578125,0.203500126850605,-0.028876404263824224,-0.0681569328378886
1761468993298541300,4.642541259765625,0.12428572036027907,-0.018845424114912745,-0.125042603142187
1761468993308497200,4.6524970703125,0.11894494385421275,-0.02234159566760063,-0.16064875405244528
1761468993318452500,4.662452392578125,0.12116261990368365,-0.04345174984410405,-0.11258059645406901
1761468993328408300,4.672408203125,0.11800444813370704,-0.06831643424853683,-0.07352057876288891
1761468993338363100,4.682363037109375,0.1347077456533909,-0.0769290720321238,-0.062198389759659765
1761468993348319200,4.6923193359375,0.10090192216336727,-0.09512275424003601,-0.04531725145503878
1761468993358274300,4.7022744140625,0.033925650477409364,-0.13443974236696957,-0.0976117945767939
1761468993368230400,4.71223046875,-0.061003042495250695,-0.1580186247445643,-0.14476386024355886
1761468993378185200,4.722185302734375,-0.100160163885355,-0.1804512596964836,-0.1526253143336624
1761468993388141300,4.732141357421875,-0.14537410109639168,-0.15859920111149547,-0.11005984580479562
1761468993398096400,4.742096435546875,-0.16359715552926063,-0.11158084482699632,-0.006804200122132897
1761468993408052200,4.75205224609375,-0.1788262888431549,-0.074112553306669,0.0417637236919254
1761468993418007300,4.76200732421875,-0.21387772848010062,-0.07308189508467912,0.051681598855182524
1761468993427963100,4.771963134765625,-0.29286183334589005,-0.10287482967153191,0.029419132838398216
1761468993437918200,4.781918212890625,-0.318050635138154,-0.12433408954665064,0.02573182262778282
1761468993447874300,4.791874267578125,-0.2973147211015224,-0.1440820154592395,0.01594802217297256
1761468993457829000,4.8018291015625,-0.19951602565050125,-0.11594780786484479,0.010494140681251882
1761468993467785500,4.811785400390625,-0.09214344616830349,-0.09069836192652582,0.04046761946678162
1761468993477740300,4.821740234375,0.02110416282713413,-0.08932225126773119,0.06149396781735122
1761468993487696100,4.831696044921875,0.06144494104385376,-0.09936243763640522,0.0017967472236603498
1761468993497651500,4.8416513671875,0.08774024277329444,-0.08264204285144805,-0.024913491982221602
1761468993507606300,4.851606201171875,0.09301555282771587,-0.08927665856033563,-0.049748073509335515
1761468993517562400,4.861562255859375,0.11256254934072493,-0.12538301407769323,-0.04536182124912738
1761468993527517400,4.871517333984375,0.10546119290292262,-0.10251125705614686,-0.03932436771579086
1761468993537473300,4.881473388671875,0.11008593009412287,-0.08109481340944767,-0.07244432783350348
1761468993547428400,4.891428466796875,0.09543722701668739,-0.05066913387700915,-0.08562032800987363
1761468993557384200,4.90138427734375,0.08946049069464206,-0.06600625761002302,-0.09853921162001789
1761468993567339300,4.91133935546875,0.10320435388684272,-0.11001447229310869,-0.11042203018069266
1761468993577295400,4.92129541015625,0.12900982627272606,-0.13150763443782926,-0.11090974063239992
1761468993587250200,4.931250244140625,0.14644494519829748,-0.1338330086454749,-0.10926401925198734
1761468993597206300,4.941206298828125,0.11216565897762774,-0.1487638896651566,-0.11790471408627927
1761468993607161300,4.951161376953125,0.05513561176657676,-0.15368702528104186,-0.1250906070023775
1761468993617117200,4.9611171875,-0.017779986840486525,-0.14470803840309382,-0.12347593834735453
1761468993627072300,4.971072265625,-0.07058218722343444,-0.11180763932019472,-0.1282837039552629
1761468993637028000,4.981028076171875,-0.0981640216320753,-0.08707491073235869,-0.13130254031978547
1761468993646983400,4.9909833984375,-0.1470937644958496,-0.058786243228614324,-0.1207835574582219
1761468993656938200,5.000938232421875,-0.17793138583004472,-0.02682999312803149,-0.10301591864265501
1761468993666894000,5.01089404296875,-0.18064006026685236,-0.012437164507806301,-0.07682853426709771
1761468993676849400,5.020849365234375,-0.1043815809726715,-0.020865677896142003,-0.044081791375949975
1761468993686805200,5.03080517578125,0.05548632490038871,-0.025451690512150526,-0.0012815642431378365
1761468993696760000,5.040760009765625,0.22622399983406066,-0.033737142167985436,0.06624225832298397
1761468993706716400,5.05071630859375,0.30737434282302856,-0.05464154463931918,0.0876387551601976
1761468993716671200,5.060671142578125,0.2921808653444052,-0.044522593946009874,0.06764920251145959
1761468993726627300,5.07062744140625,0.22147885113358495,-0.029988164898008107,0.04005947705730795
1761468993736582400,5.08058251953125,0.11401859336793423,-0.015040625004470348,0.01581497037783265
1761468993746538500,5.09053857421875,-0.030690906339883802,0.0019891279906034467,0.003916808117553592
1761468993756493300,5.100493408203125,-0.13938158268332482,0.0170338446483016,-0.011582958831265568
1761468993766449200,5.11044921875,-0.10765782616436481,0.018844108940660954,-0.05255377857983112
1761468993776404500,5.120404541015625,-0.007666004583239555,-0.026605828983336684,-0.007245587214082479
1761468993786360300,5.1303603515625,-0.028359248521924018,-0.07116042550280689,0.0060224020946770904
1761468993796315100,5.140315185546875,-0.1023778399348259,-0.07779094955846667,-0.046867914963141084
1761468993806271200,5.150271240234375,-0.12832125948667525,-0.06768631965145468,-0.09886354820355772
1761468993816226300,5.160226318359375,-0.1635287664681673,-0.08305237721800804,-0.14299706976674495
1761468993826181000,5.17018115234375,-0.24609131434261797,-0.07938011844605207,-0.1579956822603941
1761468993836137200,5.18013720703125,-0.3086404172360897,-0.07432765736207365,-0.18333010306842623
1761468993846092300,5.19009228515625,-0.26761107223331926,-0.04577522435560822,-0.1961301826044917
1761468993856048400,5.20004833984375,-0.19940555101335047,-0.044367403384298086,-0.18341442035101352
1761468993866003200,5.210003173828125,-0.1226817922949791,-0.0376645447447896,-0.13898111212365327
1761468993875959300,5.219959228515625,-0.03171908034384251,-0.03533478662297129,-0.11425722442939877
1761468993885914400,5.229914306640625,0.06221008019745349,-0.03506386072710156,-0.10065729975253343
1761468993895870200,5.2398701171875,0.17446575554609298,-0.051018531836569306,-0.12741371618770062
1761468993905825300,5.2498251953125,0.2584358321309089,-0.08605097451210021,-0.12480557951591909
1761468993915781400,5.259781494140625,0.273902281332016,-0.08687354294136167,-0.09021189358383416
1761468993925736200,5.269736083984375,0.23430384591519832,-0.0596576192356646,-0.08744805489368736
1761468993935692300,5.2796923828125,0.16306114895641802,-0.03163037914708257,-0.04946721074134111
1761468993945647400,5.2896474609375,0.11294073500335215,-0.006623509792983532,0.013077581303194164
1761468993955603500,5.299603515625,0.08042144419252872,0.01370206987708807,0.0732018682025373
1761468993965558300,5.309558349609375,0.047046413335204124,0.02628200385645032,0.1262841276358813
1761468993975514000,5.31951416015625,-0.028396073400974272,0.012143734519183635,0.12879969065338373
1761468993985469400,5.329469482421875,-0.103828623265028,-0.006029343292117118,0.11478234428204595
1761468993995424300,5.33942431640625,-0.1984410898953676,0.012572042933851479,0.10022022350952028
1761468994005380400,5.34938037109375,-0.26953298020660876,0.043224370829015965,0.10348039434924722
1761468994015335400,5.35933544921875,-0.2687953135818243,0.026017507701367137,0.08025821645483375
1761468994025291300,5.369291259765625,-0.2175204688966274,-0.0050993689656257625,0.040214740684255956
1761468994035246600,5.37924658203125,-0.139739310079813,-0.0624058950304985,-0.005009717920795083
1761468994045202700,5.38920263671875,-0.04903904845714569,-0.0809668031156063,-0.05045943664908409
1761468994055157800,5.39915771484375,0.010089432337880134,-0.10329027860462665,-0.11227101904824376
1761468994065113600,5.409113525390625,-0.0097118311971426,-0.12496917257979512,-0.14485482646264136
1761468994075068700,5.419068603515625,0.023565584504604338,-0.1251331309698522,-0.1631487541746348
1761468994085024500,5.4290244140625,0.0849275234401226,-0.10088497102856636,-0.12636464552618562
1761468994094979800,5.438979736328125,0.14393267011642455,-0.0867462632998824,-0.08244111345186829
1761468994104935700,5.448935791015625,0.14451310035288334,-0.07379998022615909,-0.06841448779553175
1761468994114890500,5.458890380859375,0.15984569404125212,-0.061967065221816296,-0.0772496822886169
1761468994124846600,5.4688466796875,0.16534662954509258,-0.05009279529377818,-0.060354442393407225
1761468994134801700,5.4788017578125,0.11366437310278416,-0.034358488936722276,-0.05040171511247754
1761468994144757800,5.4887578125,0.04546235901415348,-0.023213848457485437,-0.033550679685175416
1761468994154712600,5.498712646484375,0.03280979818999767,0.005659194805473089,-0.02890000433512032
1761468994164667600,5.508667724609375,-0.0026280104160308834,0.0068003276646137235,-0.021039134766906498
1761468994174623700,5.518623779296875,-0.03909340850412845,0.0032722996689379213,0.004530190775543451
1761468994184578600,5.52857861328125,-0.08414251054227352,-0.009009820407629012,0.014798267615959048
1761468994194534700,5.53853466796875,-0.10942483583688735,-0.01695391127988696,0.020931728869676588
1761468994204489700,5.54848974609375,-0.1597556776702404,0.0021409575514495373,0.02781622768640518
1761468994214445600,5.558445556640625,-0.22519348774254322,0.026268413722515104,0.029831732227280736
1761468994224400600,5.568400634765625,-0.23041794439256189,0.03844663503319025,0.019395678408816456
1761468994234356700,5.578356689453125,-0.2720230434566736,0.004779343231022358,-0.03208513717725873
1761468994244311600,5.5883115234375,-0.28882161804437634,-0.017952128536999224,-0.09539156124405562
1761468994254267600,5.598267578125,-0.19812953972816466,-0.050868748102337116,-0.135738842266798
1761468994264222700,5.60822265625,-0.020930559825897217,-0.09915727045312524,-0.12569785218052565
1761468994274178800,5.6181787109375,0.1387146432071924,-0.10768895195499062,-0.08276647294871509
1761468994284133600,5.628133544921875,0.29182489151358604,-0.09782806767597794,-0.006481470973789692
1761468994294089500,5.63808935546875,0.37643735765516756,-0.04551423533186316,0.06284567468725144
1761468994304044800,5.648044921875,0.3778255971431732,-0.005931289745122194,0.11461370971687138
1761468994313999600,5.65799951171875,0.2537549808382988,-0.004935264445096254,0.12008856093138455
1761468994323955700,5.667955810546875,0.14497078099250793,-0.015698358260840175,0.08931282585225998
1761468994333910800,5.677910888671875,0.0446335069745779,-0.030201369257271286,0.06536445257514714
1761468994343866600,5.68786669921875,0.020042086553573608,-0.03385273137167096,0.05138838806226849
1761468994353821700,5.69782177734375,0.021488193708658218,-0.06434738448709248,0.06313121363036334
1761468994363777500,5.707777587890625,0.031087796702980994,-0.05978533726856112,0.06788498402871192
1761468994373732600,5.717732666015625,-0.028883564656972883,-0.06776829884648322,0.0699797643508762
1761468994383688700,5.727688720703125,-0.10129647443890571,-0.05000774735882878,0.0750556793756783
1761468994393643500,5.7376435546875,-0.1906517511934042,-0.03655409928485751,0.08203085215054452
1761468994403599600,5.747599609375,-0.22692016540467738,-0.020338000760227442,0.017711378583684562
1761468994413554700,5.7575546875,-0.24728140091001985,-0.03727101538255811,-0.014767507151514292
1761468994423510500,5.767510498046875,-0.28210312344431876,-0.05768164298757911,-0.07456665374971926
1761468994433465600,5.777465576171875,-0.309676774546504,-0.06245367969498038,-0.12991393550559877
1761468994443421700,5.787421630859375,-0.2385351998746395,-0.04214811989963054,-0.1497023395590484
1761468994453376800,5.797376708984375,-0.15008768561482427,-0.03969137439727783,-0.1331376467924565
1761468994463331600,5.80733154296875,-0.11042378374636172,-0.04107201510071754,-0.13176102467700837
1761468994473287700,5.81728759765625,-0.049557519373297686,0.0008371814765036105,-0.15023206252157686
1761468994483242800,5.82724267578125,0.03322071707844734,-0.018597879094630478,-0.15229688609689473
1761468994493198600,5.837198486328125,0.12049626494944095,-0.041873248481005425,-0.1617796577785164
1761468994503153700,5.847153564453125,0.20699089157581327,-0.04723272968754172,-0.16869024088457227
1761468994513109800,5.85710986328125,0.23351474136412143,-0.05895999236032366,-0.1880379154331982
1761468994523064600,5.867064697265625,0.23282559005618095,-0.05120514044985175,-0.15573453239537774
1761468994533020700,5.877020751953125,0.24317455011308192,-0.03015782237648964,-0.09080861736796796
1761468994542975700,5.886975830078125,0.2359299858123064,-0.01833060646057129,-0.013994623082876205
1761468994552931600,5.896931640625,0.20359715748429297,0.010573562593013048,0.06982325861491262
1761468994562886700,5.90688671875,0.15559095920622348,0.023190467581897974,0.07827880614064633
1761468994572842500,5.916842529296875,0.12297054610848426,-0.011623802298307418,0.05222425436452031
1761468994582797800,5.9267978515625,0.03901508257091045,-0.03346110170558095,0.05104790406152606
1761468994592753700,5.936753662109375,-0.05598141494095325,-0.04422434165179729,0.05094451675228774
1761468994602708500,5.94670849609375,-0.1467278537929058,-0.028048429007083178,0.06799085555598139
1761468994612663800,5.956663818359375,-0.22956688052117824,-0.019783581747859717,0.08001257113069296
1761468994622619600,5.96661962890625,-0.2740045726627111,-0.01939604373499751,0.08108180779740214
1761468994632574500,5.976574462890625,-0.2897317186266184,-0.03207037799954414,0.03657579966001212
1761468994642530600,5.986530517578125,-0.29988427932858464,-0.06850216607898474,-0.04202171704098582
1761468994652485600,5.996485595703125,-0.2547176883906126,-0.09043810355514287,-0.1344371850837022
1761468994662441700,6.006441650390625,-0.1848696606606245,-0.10315671535283326,-0.17932013677470385
1761468994672396500,6.016396484375,-0.07138648934364318,-0.10749956686273217,-0.18460560289695857
1761468994682352600,6.0263525390625,0.059604866135120387,-0.09918561976477504,-0.2090259045347571
1761468994692307700,6.0363076171875,0.1797761369138956,-0.0959469301044941,-0.1909348059184849
1761468994702263600,6.046263671875,0.26893676787912846,-0.06347235521823168,-0.14469488666057587
1761468994712219000,6.056218994140625,0.2835030533701181,-0.037237113112956285,-0.10168569295220077
1761468994722174700,6.0661748046875,0.20310148292183874,0.005600596486032009,-0.14166596729345618
1761468994732129500,6.076129638671875,0.08946575139164924,0.03133724141940474,-0.14577844411358237
1761468994742085600,6.086085693359375,0.041107086414098735,0.032983985713124275,-0.12400420000515877
1761468994752040700,6.096040771484375,0.0728407798051834,0.04355360278338194,-0.1026911436676979
1761468994761995500,6.10599560546875,0.09913198988139629,0.004763853400945663,-0.05088920636847615
1761468994771951600,6.11595166015625,0.13107143497765064,-0.007596884869784116,-0.012721972798556089
1761468994781906700,6.12590673828125,0.1280097093194723,-0.0007775602437555789,0.010004019076749682
1761468994791862800,6.13586279296875,0.10623451536297797,-0.03653612523674965,0.04417589940018952
1761468994801817600,6.145817626953125,0.06372808354496956,-0.05368570521920919,0.03957622358500957
1761468994811773700,6.155773681640625,-0.021034604722261426,-0.06130334061607718,0.04040156849324703
1761468994821728800,6.165728759765625,-0.11786883905529975,-0.08311842819154262,0.04339329765513539
1761468994831684600,6.1756845703125,-0.17756079895198343,-0.08437368894964456,0.0500220681451261
1761468994841639700,6.1856396484375,-0.15605916123986244,-0.08645195652842522,0.02108180486485362
1761468994851595500,6.195595458984375,-0.14656769479513168,-0.10961977388709783,0.06667027447670698
1761468994861550600,6.205550537109375,-0.26980829001665113,-0.07474266790375113,0.16507906465008854
1761468994871506700,6.215506591796875,-0.29888825402855873,-0.02237359824106097,0.09768705177009106
1761468994881461500,6.22546142578125,-0.2107540435016155,-0.07618892118930816,0.051553880822286006
1761468994891417900,6.23541796875,-0.10296002373695373,-0.0967908335827291,0.05777991573028266
1761468994901372700,6.24537255859375,0.03080897976160049,-0.09856982595399022,0.014047960705310105
1761468994911327500,6.255327392578125,0.10170856237113475,-0.1066033486753702,0.023684096317738292
1761468994921283800,6.265283935546875,0.1131874032407999,-0.07662921230271458,-0.02862469452507794
1761468994931238700,6.27523876953125,0.07369885793924331,-0.038217210191488264,-0.055458413980156177
1761468994941194800,6.28519482421875,0.012928455156087875,0.0016192717649042606,-0.0398808325547725
1761468994951149800,6.29514990234375,-0.08502923024892807,0.05461319532766938,-0.06254296541363001
1761468994961105700,6.305105712890625,-0.113356914588809,0.09250658039227128,-0.05730922947861254
1761468994971060700,6.315060791015625,-0.05715279680788517,0.09648805124387144,-0.06638743894733488
1761468994981016600,6.3250166015625,0.0265910698056221,0.08996054917126893,-0.07263802377469837
1761468994990971600,6.3349716796875,0.0800257228732109,0.04247545215785503,-0.06365333780832588
1761468995000927700,6.344927734375,0.1544002881169319,-0.006879968772083521,-0.09234861335158348
1761468995010882600,6.354882568359375,0.24214345349967478,-0.03525689908117056,-0.0964998878121376
1761468995020838700,6.364838623046875,0.2828852137327194,-0.06833893834128975,-0.08720029067769647
1761468995030793700,6.374793701171875,0.2586211255699396,-0.06829685276523233,-0.06708148562610149
1761468995040749300,6.384749267578125,0.18829320536851882,-0.06935717547312378,-0.05931172840744257
1761468995050704100,6.3947041015625,0.07736264114379883,-0.0667453855395317,-0.048185354237258435
1761468995060659200,6.4046591796875,-0.012141688692569732,-0.06203048584684729,-0.040848508543148636
1761468995070615300,6.414615234375,-0.02325052720606327,-0.06210223590880632,-0.01437865396440029
1761468995080570000,6.424570068359375,-0.03868891935646534,-0.07537541284933685,0.005931947332248091
1761468995090526500,6.4345263671875,-0.0812678318887949,-0.08299553246423602,-0.007968275465443729
1761468995100481300,6.444481201171875,-0.12756255007386208,-0.078480393127352,0.043818756525591016
1761468995110437400,6.454437255859375,-0.1979278796762228,-0.061359600847959515,0.08547470899410545
1761468995120392400,6.464392333984375,-0.2750619727611542,-0.027301994553953407,0.10808123920820653
1761468995130348300,6.474348388671875,-0.3073158906340599,-0.018383505691587924,0.09472586387693882
1761468995140303400,6.484303466796875,-0.2606646140962839,-0.028141514118015763,0.07584390714392066
1761468995150259200,6.49425927734375,-0.18939853626191616,-0.07052475794777274,0.047279199177771805
1761468995160214300,6.50421435546875,-0.08795534682869911,-0.07957417971342802,-0.022695523671805856
1761468995170170400,6.51417041015625,-0.013436404678225516,-0.09374006770998239,-0.05212861197032034
1761468995180125200,6.524125244140625,0.041074937710165974,-0.09856719560548663,-0.07251797759160399
1761468995190081300,6.534081298828125,-0.02447276247739792,-0.05666472102999687,-0.11231025508008896
1761468995200036400,6.544036376953125,-0.1787351034283638,-0.008765051866322756,-0.1498676861885935
1761468995209991200,6.5539912109375,-0.25196692837774753,0.025481354998052118,-0.18159231949038804
1761468995219947300,6.563947265625,-0.16184885055720805,0.006812164232879877,-0.14466507604420184
1761468995229902300,6.57390234375,0.03527940317392349,-0.03290565977990627,-0.10549268401972949
1761468995239858400,6.5838583984375,0.26761224127709865,-0.0504446774713695,-0.03303381620422005
1761468995249813200,6.593813232421875,0.4242909957200289,-0.05636529969200491,0.0428013231113553
1761468995259769000,6.60376904296875,0.4700689965546131,-0.06923968657329678,0.037647520544752476
1761468995269724400,6.613724365234375,0.3536830895334482,-0.06298048004806041,0.05865129173733294
1761468995279680300,6.62368017578125,0.17107962023913859,-0.0558987050935626,0.0231744662951678
1761468995289635000,6.633635009765625,0.04020926079154014,-0.04331935563609004,-0.0498465654477477
1761468995299591400,6.64359130859375,-0.08577098852694034,-0.0738256991893053,-0.13863193335980176
1761468995309546200,6.653546142578125,-0.20216332528889178,-0.11397709231376647,-0.18879289851896464
1761468995319502300,6.66350244140625,-0.18558979162871836,-0.09894289705008268,-0.21226028334610164
1761468995329457400,6.67345751953125,-0.2242956621199846,-0.09516703177317977,-0.1764337676834315
1761468995339413200,6.683413330078125,-0.19846096363961696,-0.01920607412084937,-0.15440737544484437
1761468995349368300,6.693368408203125,-0.09414368007481097,0.00613601853698492,-0.07834799891933798
1761468995359323100,6.7033232421875,0.011983867782354354,0.02901113655939698,0.016184753538295626
1761468995369279500,6.713279541015625,0.10111877978444099,0.07342194069400429,0.11507570120543241
1761468995379234300,6.723234375,0.15162906983792782,0.11619243027567863,0.14586385737471283
1761468995389190100,6.733190185546875,0.1536649595797062,0.11780118064656853,0.14130955507121978
1761468995399145500,6.7431455078125,0.11241349625885486,0.09026537733674049,0.10541245839037
1761468995409101300,6.753101318359375,0.11060849266350269,0.06040639177635312,0.05465615768656134
1761468995419056000,6.76305615234375,0.11207681165039539,-0.013981032948940991,-0.03185841574929654
1761468995429012200,6.77301220703125,0.08920797723829746,-0.08335442890450358,-0.09386837026476859
1761468995438967300,6.78296728515625,0.016477672070264817,-0.08713657779172063,-0.15876768954619763
1761468995448923400,6.79292333984375,-0.06418342609703541,-0.10464067030027509,-0.16940204241573809
1761468995458878200,6.802878173828125,-0.1211345628529787,-0.1243095396272838,-0.14058438260182737
1761468995468834300,6.812834228515625,-0.13139175297319888,-0.13944544169977308,-0.1074559469167143
1761468995478789400,6.822789306640625,-0.06870294934809207,-0.14266557279005646,-0.06454831388667226
1761468995488745200,6.8327451171875,0.05112812969088554,-0.13958850343227386,-0.05773330010958016
1761468995498700300,6.8427001953125,0.10265256522297858,-0.15486819788962602,-0.0435067679669708
1761468995508655400,6.8526552734375,0.12027005497813224,-0.15918766852393745,-0.03216843154653907
1761468995518611200,6.862611083984375,0.08587211081385612,-0.13090163136869667,-0.02981711918003857
1761468995528566300,6.872566162109375,0.007741992428898811,-0.12436711503341794,-0.0172930801063776
1761468995538522400,6.8825224609375,-0.08488952951729298,-0.08838687011376023,-0.019462971491366624
1761468995548477200,6.892477294921875,-0.14798925203084945,-0.05691255831122398,0.007909384885057807
1761468995558433300,6.902433349609375,-0.15416647936105726,-0.07226181087344885,0.010465426043421029
1761468995568388000,6.91238818359375,-0.20003800369799135,-0.06466989443972707,-0.008097600933536887
1761468995578344400,6.922344482421875,-0.2390104161709547,-0.03167743315920234,0.009470569787174463
1761468995588299300,6.93229931640625,-0.20156419035196302,-0.012048603581637143,0.05234649250470102
1761468995598255400,6.94225537109375,-0.14284019870460032,0.022316461226344106,0.0787383134111762
1761468995608210400,6.95221044921875,-0.06346154156327247,0.020647651231288908,0.07747735356464981
1761468995618166300,6.962166259765625,-0.0010772738426923752,0.009836772751063108,0.10226495414488017
1761468995628121300,6.972121337890625,0.06067921736836433,0.024239099851995707,0.12571889496855437
1761468995638076400,6.982076416015625,0.13257482527792452,0.029813538983464238,0.10474800313226879
1761468995648032300,6.9920322265625,0.1524614290088415,0.0046706221595406525,0.06948854676783084
1761468995657987300,7.0019873046875,0.1567062269717455,-0.03362988240122795,-0.027750980430468915
1761468995667943200,7.011943115234375,0.1207774199783802,-0.05879632623121142,-0.13605243826061486
1761468995677898200,7.021898193359375,0.12115560564100741,-0.08327975623309612,-0.16370207720845936
1761468995687854300,7.031854248046875,0.17909458439052103,-0.08536211546510457,-0.13196246553324162
1761468995697809200,7.04180908203125,0.2876169184297323,-0.08713336292132735,-0.10245967299938201
1761468995707765200,7.05176513671875,0.3595166179925203,-0.08502601537853478,-0.06196048935055733
1761468995717720300,7.06172021484375,0.3003244243115187,-0.09950243062898516,-0.08717018780037761
1761468995727676400,7.071676513671875,0.1672100853294134,-0.0756774645358324,-0.13877660252749918
1761468995737631200,7.08163134765625,0.04925006085932254,-0.07324483056142926,-0.18718802060559392
1761468995747587300,7.09158740234375,-0.027504092997312546,-0.06042261225879192,-0.13796411710083484
1761468995757542400,7.10154248046875,-0.1175748245447874,-0.028815029465407132,-0.04943111651465296
1761468995767497200,7.111497314453125,-0.17677520153224469,0.014330138647556305,0.034489056513831017
1761468995777453300,7.121453369140625,-0.21778876444399356,0.01312346627153456,0.09116919430866836
1761468995787408400,7.131408447265625,-0.2966968814641237,0.02541311206743121,0.08636449744068085
1761468995797364200,7.1413642578125,-0.3763607852876186,0.031151947980374097,0.028843890233710406
1761468995807319300,7.1513193359375,-0.4128261833757162,-0.0367369815710932,-0.01772277676053345
1761468995817275400,7.161275390625,-0.3773188166648149,-0.03902779592201114,-0.04691029280014336
1761468995827230200,7.171230224609375,-0.308591317397356,-0.0633003596521914,-0.0419864995971322
1761468995837186300,7.181186279296875,-0.20078443815112113,-0.07238777534067631,-0.013600582263991235
1761468995847141400,7.191141357421875,-0.055693245649337766,-0.07622618445977568,0.02027582224421203
1761468995857097500,7.201097412109375,0.07040273900330066,-0.07184855389744042,0.012077756610885261
1761468995867052300,7.21105224609375,0.16946984695494174,-0.08944514699503779,-0.01772365354336798
1761468995877008100,7.221008056640625,0.21686872698962686,-0.11051336172595619,-0.07743314909674227
1761468995886963500,7.23096337890625,0.2256809789985418,-0.11780132677704096,-0.09652699501477181
1761468995896919300,7.240919189453125,0.2291460247606039,-0.09362126363590359,-0.11085348040051758
1761468995906874000,7.2508740234375,0.11525836429595947,-0.05227291581183672,-0.1102298686094582
1761468995916829400,7.260829345703125,-0.030785598886013028,-0.019859131202101706,-0.09569551262669265
1761468995926785300,7.270785400390625,-0.09653320555984973,0.02848828172907233,-0.07908077017329633
1761468995936740400,7.280740234375,-0.05522504361569881,0.02703589096367359,-0.04921433195881545
1761468995946696200,7.2906962890625,-0.01289864453971386,0.016357114430516958,-0.027471871228143572
1761468995956651300,7.3006513671875,-0.07180792962610721,0.007224836686998606,-0.005889131103828549
1761468995966607400,7.310607421875,-0.16452829889953136,0.00861906752437353,-0.007535656201839446
1761468995976562200,7.320562255859375,-0.20764730965793132,-0.005309212324023246,-0.061019482173398136
1761468995986518300,7.330518310546875,-0.13694003475010394,-0.026614450681209562,-0.06492576889693737
1761468995996473300,7.340473388671875,-0.02082885301709175,-0.06099193657934665,0.0005489391196519136
1761468996006429200,7.35042919921875,0.08334405364096165,-0.07613894456773995,0.02643748667910695
1761468996016384300,7.36038427734375,0.1274170041233301,-0.0740633073374629,0.014260215216502546
1761468996026340400,7.37034033203125,0.1360784494847059,-0.0651683454811573,-0.009444339367374778
1761468996036295400,7.38029541015625,0.07698036382794379,-0.06343655325248837,0.03678973467163742
1761468996046251300,7.390251220703125,0.0024731121152639386,-0.06884498816728592,0.032754999262839556
1761468996056206300,7.400206298828125,-0.0991968718111515,-0.07970452809482813,0.010594751511514186
1761468996066161400,7.410161376953125,-0.18580781829357146,-0.0749126176431775,-0.07540193553008138
1761468996076117200,7.4201171875,-0.21373568966090678,-0.06974018344134092,-0.05385419365391135
1761468996086072300,7.430072265625,-0.14622633401155471,-0.07883636695817113,0.016957345345988868
1761468996096028400,7.4400283203125,-0.015275895065069198,-0.05169949983805418,0.04683233219310641
1761468996105983200,7.449983154296875,0.08957973316013812,-0.044188101294636725,0.05516169605590403
1761468996115939300,7.459939208984375,0.13934183519482612,-0.023079992944747208,0.04238390141688287
1761468996125894400,7.469894287109375,0.1360959851413965,-0.00374444722533226,0.03748436587229371
1761468996135850500,7.4798505859375,0.10925181735754012,-0.013066110061109065,0.03661832362748682
1761468996145805300,7.489805419921875,0.12453355764150618,-0.018826573283970353,0.025328429458662868
1761468996155761200,7.49976123046875,0.1392471426486969,-0.017744477135688067,-0.030522783231362698
1761468996165716500,7.509716552734375,0.03156885821819305,-0.01941752491444349,-0.10744732521884143
1761468996175672300,7.51967236328125,-0.08577391113638877,-0.0064868778012692925,-0.1642998969711363
1761468996185627100,7.529627197265625,-0.17920330546200275,-0.0191306707970798,-0.17974464579708874
1761468996195582500,7.53958251953125,-0.16400690537393092,-0.032755876045674086,-0.18415595943331717
1761468996205538300,7.549538330078125,-0.0808323630809784,-0.01781929593756795,-0.1966600516974926
1761468996215493400,7.559493408203125,0.057557285955548286,-0.03560308217033744,-0.17111958692334592
1761468996225449200,7.56944921875,0.17673837665319442,-0.04480038797408342,-0.13228848261721432
1761468996235404300,7.579404296875,0.27865093716382977,-0.021172259627282617,-0.12344196301251649
1761468996245360400,7.5893603515625,0.26508126149475575,-0.02555427410379052,-0.0895073255110532
1761468996255315200,7.599315185546875,0.14766718046963215,-0.017208470562845468,-0.13686002831645308
1761468996265271600,7.609271484375,0.015337269863486288,-0.031208792734146118,-0.1662616254981607
1761468996275226400,7.619226318359375,-0.05889934821426868,-0.03821823310479522,-0.1430782452441752
1761468996285182200,7.62918212890625,-0.08981471095979213,-0.01797930880486965,-0.06423588693663478
1761468996295137300,7.63913720703125,-0.09072598058581352,0.01484378725811839,0.023877573063224553
1761468996305093400,7.64909326171875,-0.08483107732832432,0.008741817121207713,0.10250935736000537
1761468996315048200,7.659048095703125,-0.12819500275850296,0.0112510234631598,0.08924925909675657
1761468996325004300,7.66900439453125,-0.241171393597126,0.01860153235644102,0.027536022505536675
1761468996334959400,7.67895947265625,-0.28894436764121056,0.03754135675653815,-0.0025455928295850753
1761468996344914400,7.68891455078125,-0.3337403717011213,0.025296061559021473,0.008695201500505208
1761468996354870300,7.698870361328125,-0.3341892845124006,0.01076908516511321,0.0299449102781713
1761468996364825300,7.708825439453125,-0.15387188032865523,-0.04912541156634688,0.033272739526629444
1761468996374781400,7.718781494140625,0.09460837497711182,-0.10639891214445232,0.2251522058840841
1761468996384736300,7.728736328125,0.11675415581166744,-0.11069690159931778,0.10207133126892148
1761468996394692400,7.7386923828125,0.10816285307705402,-0.1295481709331274,-0.01192673076763749
1761468996404647400,7.7486474609375,0.03804360719025135,-0.1997520263634622,-0.03024155513718724
1761468996414603300,7.758603271484375,-0.017764789271354674,-0.18326178707256913,-0.07564473131000995
1761468996424558300,7.768558349609375,-0.04830781157314777,-0.14379910686463115,-0.12254391819424927
1761468996434514200,7.77851416015625,-0.011455459994077682,-0.09439897001013159,-0.10961911629997192
