time,seconds_elapsed,z,y,x
1761468988717784600,0.06178466796875,0.17270222306251526,-0.03506926819682121,-0.04246842861175537
1761468988727739600,0.07173974609375,0.17712698876857758,-0.03406425565481186,0.00896309595555067
1761468988737695500,0.081695556640625,0.1852717399597168,-0.027897175401449203,0.0600273460149765
1761468988747650600,0.091650634765625,0.19978421926498413,-0.023958947509527206,0.10708999633789062
1761468988757606400,0.1016064453125,0.22519530355930328,-0.022375166416168213,0.13129572570323944
1761468988767561500,0.1115615234375,0.24871131777763367,-0.03619654104113579,0.12960980832576752
1761468988777516500,0.1215166015625,0.26499974727630615,-0.0710139125585556,0.10791250318288803
1761468988787472400,0.131472412109375,0.2759197950363159,-0.10044857859611511,0.08980298787355423
1761468988797427500,0.141427490234375,0.2886848747730255,-0.11447304487228394,0.09467364847660065
1761468988807383600,0.151383544921875,0.30239301919937134,-0.10425416380167007,0.11229415237903595
1761468988817338400,0.16133837890625,0.30852973461151123,-0.0861116424202919,0.13318532705307007
1761468988827294500,0.17129443359375,0.3084073066711426,-0.0655943974852562,0.14917729794979095
1761468988837249500,0.18124951171875,0.29821059107780457,-0.04419403150677681,0.15313021838665009
1761468988847205600,0.19120556640625,0.28459206223487854,-0.025471890345215797,0.13791315257549286
1761468988857160400,0.201160400390625,0.2654891908168793,-0.022276362404227257,0.10955289006233215
1761468988867116500,0.211116455078125,0.2441006451845169,-0.013919692486524582,0.08080323785543442
1761468988877071600,0.221071533203125,0.21465647220611572,0.004878229461610317,0.05335802957415581
1761468988887026400,0.2310263671875,0.17934079468250275,0.022320730611681938,0.024774324148893356
1761468988896982500,0.240982421875,0.13450273871421814,0.03273608535528183,-0.016221310943365097
1761468988906937600,0.2509375,0.09035240113735199,0.03363097459077835,-0.0611262246966362
1761468988916893400,0.2608935546875,0.04909949749708176,0.032873570919036865,-0.09971090406179428
1761468988926848800,0.270848876953125,0.026270635426044464,0.03073500469326973,-0.12318363040685654
1761468988936804600,0.2808046875,0.014463777653872967,0.01695873960852623,-0.12800393998622894
1761468988946759400,0.290759521484375,0.00685451366007328,0.004109209403395653,-0.1162383183836937
1761468988956715500,0.300715576171875,0.000394217437133193,-0.0007643752032890916,-0.10063379257917404
1761468988966670600,0.310670654296875,-0.009001185186207294,-0.004950737114995718,-0.08992867171764374
1761468988976625400,0.32062548828125,-0.01731743849813938,-0.004725433886051178,-0.07030836492776871
1761468988986581500,0.33058154296875,-0.030949681997299194,0.014736562967300415,-0.04286792129278183
1761468988996536600,0.34053662109375,-0.04233762249350548,0.04056283459067345,-0.01705443114042282
1761468989006492700,0.35049267578125,-0.0523311011493206,0.06738343089818954,0.008457706309854984
1761468989016447500,0.360447509765625,-0.059222832322120667,0.08059351146221161,0.02369631454348564
1761468989026403300,0.3704033203125,-0.07135993242263794,0.07278148829936981,0.028607692569494247
1761468989036358000,0.38035791015625,-0.08309862017631531,0.05815514549612999,0.020998243242502213
1761468989046314000,0.39031396484375,-0.08708121627569199,0.04772435128688812,0.00671885022893548
1761468989056269000,0.40026904296875,-0.09396228939294815,0.027333589270710945,-0.013468176126480103
1761468989066223900,0.410223876953125,-0.09398240596055984,0.009768307209014893,-0.03329279646277428
1761468989076180000,0.420179931640625,-0.08780919760465622,0.004569284617900848,-0.04798012971878052
1761468989086134800,0.430134765625,-0.08489245176315308,0.005704975686967373,-0.04422484338283539
1761468989096091000,0.4400908203125,-0.07930433750152588,0.01420472003519535,-0.02930421754717827
1761468989106046000,0.4500458984375,-0.07330767810344696,0.030959151685237885,-0.003999549895524979
1761468989116001800,0.460001708984375,-0.06654325127601624,0.04211832955479622,0.018589116632938385
1761468989125957000,0.46995703125,-0.06183161586523056,0.029844986274838448,0.03731155022978783
1761468989135913000,0.479912841796875,-0.05984862521290779,0.014571490697562695,0.04976582154631615
1761468989145867800,0.48986767578125,-0.05480888485908508,0.017736174166202545,0.0692954733967781
1761468989155823900,0.499823974609375,-0.048989877104759216,0.029646363109350204,0.09437818825244904
1761468989165779000,0.509779052734375,-0.049199726432561874,0.03185170143842697,0.10678359866142273
1761468989175733800,0.519733642578125,-0.04933394864201546,0.027169328182935715,0.11280394345521927
1761468989185689900,0.52968994140625,-0.055332694202661514,0.02703023888170719,0.11383350193500519
1761468989195645000,0.53964501953125,-0.06247822195291519,0.018761921674013138,0.10930053144693375
1761468989205601000,0.54960107421875,-0.06630098074674606,0.00305772852152586,0.0921335518360138
1761468989215555800,0.559555908203125,-0.06179571896791458,0.005103835370391607,0.07857300341129303
1761468989225512000,0.569511962890625,-0.054166488349437714,0.023249054327607155,0.0697503387928009
1761468989235467000,0.579467041015625,-0.05030783638358116,0.036790963262319565,0.06089159846305847
1761468989245422800,0.5894228515625,-0.04955672100186348,0.04091350734233856,0.04458498954772949
1761468989255378000,0.5993779296875,-0.0480930469930172,0.04678897559642792,0.027161523699760437
1761468989265333000,0.6093330078125,-0.04152672737836838,0.05156394839286804,0.010303428396582603
1761468989275288800,0.619288818359375,-0.0363846980035305,0.04419977590441704,-0.010583210736513138
1761468989285244000,0.629243896484375,-0.02659044787287712,0.034077804535627365,-0.03468918055295944
1761468989295199700,0.63919970703125,-0.01912161335349083,0.030298778787255287,-0.05245167016983032
1761468989305154800,0.64915478515625,-0.013969994150102139,0.02952965907752514,-0.06308593600988388
1761468989315111000,0.65911083984375,-0.012873570434749126,0.0208624005317688,-0.06343800574541092
1761468989325065700,0.669065673828125,-0.008676061406731606,0.01951531134545803,-0.05931972712278366
1761468989335022000,0.67902197265625,-0.005356697365641594,0.011912520043551922,-0.048926472663879395
1761468989344977000,0.688976806640625,-0.0005403637187555432,0.01920848712325096,-0.02617334946990013
1761468989354931700,0.698931640625,-0.002295386977493763,0.03719174861907959,0.00545461755245924
1761468989364888000,0.70888818359375,0.0035516610369086266,0.05144157260656357,0.035529907792806625
1761468989374843000,0.7188427734375,0.009480124339461327,0.04842367768287659,0.05583757534623146
1761468989384799000,0.728799072265625,0.01980300433933735,0.03414693847298622,0.059061624109745026
1761468989394754000,0.738754150390625,0.03273424878716469,0.012489845976233482,0.0527011938393116
1761468989404710000,0.7487099609375,0.04897665977478027,-0.006621944718062878,0.04191668704152107
1761468989414665000,0.7586650390625,0.06526853889226913,-0.030895859003067017,0.024191487580537796
1761468989424620800,0.768620849609375,0.07975061982870102,-0.06005530431866646,0.005445344839245081
1761468989434576000,0.778575927734375,0.09502411633729935,-0.07751152664422989,-0.009170083329081535
1761468989444532000,0.788531982421875,0.10253288596868515,-0.07666701078414917,-0.012839793227612972
1761468989454486800,0.79848681640625,0.10193047672510147,-0.07786383479833603,-0.012202763929963112
1761468989464442000,0.808442138671875,0.09034685790538788,-0.06747344136238098,-0.004443668760359287
1761468989474398000,0.81839794921875,0.07876237481832504,-0.036407407373189926,0.02066275104880333
1761468989484352800,0.828352783203125,0.061988744884729385,-0.004168291576206684,0.04953125864267349
1761468989494308900,0.838308837890625,0.044949572533369064,0.015031768009066582,0.058692000806331635
1761468989504264000,0.848263916015625,0.03468068689107895,0.018295496702194214,0.051605723798274994
1761468989514220000,0.858219970703125,0.02982494793832302,0.006818871479481459,0.029893238097429276
1761468989524174800,0.8681748046875,0.026710888370871544,-0.0022715141531080008,0.012724792584776878
1761468989534130700,0.878130615234375,0.028630495071411133,-0.01153531949967146,-0.0056725903414189816
1761468989544086000,0.8880859375,0.04060845077037811,-0.0228450745344162,-0.01594645529985428
1761468989554041900,0.898041748046875,0.04544954374432564,-0.028606291860342026,-0.023504771292209625
1761468989563996700,0.90799658203125,0.046483349055051804,-0.027680981904268265,-0.027536258101463318
1761468989573952000,0.917951904296875,0.0419975183904171,-0.027449553832411766,-0.024024348706007004
1761468989583907800,0.927907958984375,0.0342770479619503,-0.01828358694911003,-0.01815701648592949
1761468989593863000,0.93786279296875,0.018817663192749023,-0.01592695526778698,-0.01961536332964897
1761468989603819000,0.947819091796875,0.0026732790283858776,-0.018368681892752647,-0.03083951584994793
1761468989613773800,0.95777392578125,-0.01173442229628563,-0.016989964991807938,-0.043821629136800766
1761468989623730000,0.96772998046875,-0.025476710870862007,-0.008313620463013649,-0.046699367463588715
1761468989633685000,0.97768505859375,-0.030537515878677368,0.001731557073071599,-0.041756272315979004
1761468989643641000,0.98764111328125,-0.03294903784990311,0.00006185579695738852,-0.027971606701612473
1761468989653596000,0.997595947265625,-0.02593001164495945,0.0043428875505924225,-0.015007072128355503
1761468989663551700,1.0075517578125,-0.025770163163542747,0.0037030212115496397,-0.006041970569640398
1761468989673507000,1.017507080078125,-0.018155120313167572,-0.002754611661657691,-0.003193453885614872
1761468989683463000,1.027462890625,-0.012950829230248928,0.004151672124862671,0.003004151862114668
1761468989693418000,1.03741796875,-0.004696361720561981,0.015681028366088867,0.004793263506144285
1761468989703373000,1.047373046875,0.0007601891411468387,0.011709190905094147,-0.0002915100194513798
1761468989713329000,1.057328857421875,0.0036931282375007868,0.01289935689419508,-0.008709495887160301
1761468989723284000,1.067283935546875,0.00754796015098691,0.02481837011873722,-0.012722441926598549
1761468989733239800,1.07723974609375,0.00792000349611044,0.028389137238264084,-0.014155490323901176
1761468989743195000,1.08719482421875,0.011274165473878384,0.027639996260404587,-0.007179563865065575
1761468989753151000,1.09715087890625,0.012246484868228436,0.030942050740122795,0.007847854867577553
1761468989763105800,1.107105712890625,0.016549767926335335,0.030471287667751312,0.02698885276913643
1761468989773062000,1.117061767578125,0.025997599586844444,0.04026346281170845,0.044540949165821075
1761468989783017000,1.127016845703125,0.03778226673603058,0.050791189074516296,0.060706786811351776
1761468989792972800,1.136972900390625,0.04536295682191849,0.0510479174554348,0.06303784996271133
1761468989802927900,1.146927978515625,0.05350610241293907,0.040732160210609436,0.05796080082654953
1761468989812883000,1.156883056640625,0.06060928478837013,0.024896474555134773,0.05157001316547394
1761468989822839000,1.166839111328125,0.06599464267492294,-0.0011031593894585967,0.03986812382936478
1761468989832793900,1.1767939453125,0.06892864406108856,-0.024778129532933235,0.018743664026260376
1761468989842750000,1.18675,0.06488877534866333,-0.03741951286792755,-0.00450181495398283
1761468989852705000,1.196705078125,0.060094285756349564,-0.04722553864121437,-0.029099836945533752
1761468989862660900,1.206660888671875,0.05166781321167946,-0.0472235307097435,-0.04533660411834717
1761468989872616000,1.216615966796875,0.04176245257258415,-0.038528576493263245,-0.04081828519701958
1761468989882572000,1.226572021484375,0.03586532548069954,-0.02752785012125969,-0.029338419437408447
1761468989892526800,1.23652685546875,0.031509723514318466,-0.018713586032390594,-0.00955352932214737
1761468989902483000,1.24648291015625,0.028360802680253983,-0.009654312394559383,0.011843371205031872
1761468989912438000,1.25643798828125,0.024456342682242393,-0.004688049200922251,0.02370642125606537
1761468989922393900,1.266393798828125,0.020264413207769394,-0.006684032268822193,0.02945638820528984
1761468989932349000,1.276348876953125,0.017623888328671455,-0.006694951094686985,0.035680193454027176
1761468989942304000,1.286303955078125,0.013339211232960224,-0.005214721895754337,0.042169198393821716
1761468989952260000,1.296260009765625,0.014050275087356567,-0.013872126117348671,0.03776086866855621
1761468989962215000,1.30621484375,0.0076182447373867035,-0.020844407379627228,0.027097830548882484
1761468989972170800,1.316170654296875,0.0033715676981955767,-0.015606503002345562,0.016564762219786644
1761468989982126000,1.3261259765625,-0.002059565857052803,-0.01618289388716221,0.0029674002435058355
1761468989992082000,1.33608203125,-0.0004038785700686276,-0.024591026827692986,-0.011275185272097588
1761468990002036700,1.34603662109375,-0.006858401000499725,-0.028822273015975952,-0.024300524964928627
1761468990011992800,1.355992919921875,-0.011326919309794903,-0.030241472646594048,-0.030849771574139595
1761468990021948000,1.365947998046875,-0.01583065465092659,-0.01225108653306961,-0.02161683328449726
1761468990031904800,1.37590478515625,-0.014426102861762047,0.014333120547235012,-0.008149227127432823
1761468990041859600,1.385859619140625,-0.0074395351111888885,0.03310590982437134,0.0009093699045479298
1761468990051815000,1.39581494140625,-0.00204050843603909,0.027923397719860077,-0.0014043846167623997
1761468990061770800,1.405770751953125,0.0021607414819300175,0.017180681228637695,-0.015580058097839355
1761468990071725600,1.4157255859375,0.007117416709661484,0.009339003823697567,-0.03371059149503708
1761468990081681700,1.425681640625,0.007982203736901283,-0.014924432151019573,-0.056663207709789276
1761468990091636700,1.43563671875,0.0066429004073143005,-0.020032109692692757,-0.06501967459917068
1761468990101592800,1.4455927734375,0.00562859233468771,-0.004462745506316423,-0.05445761978626251
1761468990111547600,1.455547607421875,0.004108193330466747,0.008811780251562595,-0.03916308656334877
1761468990121503500,1.46550341796875,0.0069375722669065,0.014189108274877071,-0.021155864000320435
1761468990131458800,1.475458740234375,0.010285697877407074,0.020011311396956444,-0.009170574136078358
1761468990141414700,1.48541455078125,0.01872829720377922,0.01786368153989315,-0.001733363140374422
1761468990151369700,1.49536962890625,0.02281145565211773,0.0001712375378701836,-0.0056628575548529625
1761468990161325600,1.50532568359375,0.027545256540179253,-0.005958127789199352,-0.007479811552911997
1761468990171280600,1.51528076171875,0.02850532718002796,0.0005322617944329977,0.002037527272477746
1761468990181235700,1.525235595703125,0.019260721281170845,0.003469121642410755,0.001536835334263742
1761468990191191600,1.535191650390625,0.008964142762124538,0.001148176728747785,-0.0012200688943266869
1761468990201146600,1.545146728515625,0.00129077082965523,0.0016837894218042493,-0.0016139615327119827
1761468990211102700,1.555102783203125,-0.0040989345870912075,-0.005880120676010847,-0.007355737034231424
1761468990221057500,1.5650576171875,-0.00477975606918335,-0.017517786473035812,-0.014157388359308243
1761468990231014000,1.575013916015625,-0.0045997267588973045,-0.020670436322689056,-0.01360398344695568
1761468990240968700,1.58496875,-0.0008327377727255225,-0.013029702007770538,-0.0008190395310521126
1761468990250924500,1.594924560546875,0.0005766070680692792,0.0021372660994529724,0.017316021025180817
1761468990260880000,1.6048798828125,0.0017780177295207977,0.01816985383629799,0.03786560893058777
1761468990270835700,1.614835693359375,-0.00035623955773189664,0.023726539686322212,0.050781141966581345
1761468990280790800,1.624790771484375,-0.0062447236850857735,0.011044199578464031,0.04246767237782478
1761468990290746600,1.63474658203125,-0.010894602164626122,-0.0046005407348275185,0.029596615582704544
1761468990300701700,1.64470166015625,-0.018272483721375465,-0.007133870385587215,0.02511216700077057
1761468990310656800,1.65465673828125,-0.020298616960644722,-0.004348470363765955,0.030382562428712845
1761468990320612600,1.664612548828125,-0.024049729108810425,0.0008725131629034877,0.03998662531375885
1761468990330567700,1.674567626953125,-0.02330484241247177,0.010070006363093853,0.047956135123968124
1761468990340523800,1.684523681640625,-0.021083539351820946,0.01256740465760231,0.04869982600212097
1761468990350478600,1.694478515625,-0.023234840482473373,0.011745287105441093,0.04362623766064644
1761468990360434700,1.7044345703125,-0.026527395471930504,0.009934079833328724,0.02978343702852726
1761468990370389800,1.7143896484375,-0.03509638458490372,-0.0010237630922347307,0.010804418474435806
1761468990380345600,1.724345703125,-0.0389217734336853,-0.002956103766337037,0.0006225116085261106
1761468990390300700,1.73430078125,-0.037001900374889374,-0.0013310429640114307,-0.0047466871328651905
1761468990400256500,1.744256591796875,-0.03384987264871597,0.001600839663296938,-0.004444109741598368
1761468990410211800,1.7542119140625,-0.02846682444214821,0.006715973373502493,-0.0012531103566288948
1761468990420167700,1.764167724609375,-0.0277000330388546,0.017264794558286667,0.00400834484025836
1761468990430122500,1.77412255859375,-0.03133631497621536,0.01703602820634842,-0.0030620815232396126
1761468990440077800,1.784077880859375,-0.037328992038965225,0.022732097655534744,-0.008380535058677197
1761468990450033700,1.79403369140625,-0.03776761516928673,0.016480060294270515,-0.014890631660819054
1761468990459988500,1.803988525390625,-0.032140087336301804,-0.00252319173887372,-0.0190116073936224
1761468990469944800,1.81394482421875,-0.02783775143325329,-0.015127933584153652,-0.021940551698207855
1761468990479899600,1.823899658203125,-0.02739155851304531,-0.010878650471568108,-0.019625132903456688
1761468990489855700,1.833855712890625,-0.03033062256872654,0.0016613765619695187,-0.014212790876626968
1761468990499810800,1.843810791015625,-0.03328131139278412,0.008194342255592346,-0.004966198932379484
1761468990509767000,1.853766845703125,-0.03285547345876694,0.016294877976179123,0.0023388518020510674
1761468990519721700,1.8637216796875,-0.034304387867450714,0.020093316212296486,0.008857132866978645
1761468990529677600,1.873677490234375,-0.028534915298223495,0.015419200994074345,0.014917954802513123
1761468990539633000,1.8836328125,-0.01776195503771305,0.013853436335921288,0.016467811539769173
1761468990549588700,1.893588623046875,-0.01649828441441059,0.006852785125374794,0.013514898717403412
1761468990559543600,1.90354345703125,-0.01648981310427189,0.0014253853587433696,0.008723247796297073
1761468990569499600,1.913499755859375,-0.021686973050236702,-0.0006809086771681905,0.008233492262661457
1761468990579454700,1.923454833984375,-0.0279949102550745,-0.0035761049948632717,0.005585493519902229
1761468990589409500,1.933409423828125,-0.03456013277173042,-0.009224137291312218,-0.004927868023514748
1761468990599365600,1.94336572265625,-0.037655703723430634,-0.00204929756000638,-0.011879697442054749
1761468990609320700,1.95332080078125,-0.040067996829748154,0.005625666584819555,-0.011003252118825912
1761468990619276800,1.96327685546875,-0.03849507495760918,0.008406630717217922,-0.010938167572021484
1761468990629231600,1.973231689453125,-0.039982184767723083,0.017343666404485703,-0.016776083037257195
1761468990639187700,1.983187744140625,-0.03792515769600868,0.026206666603684425,-0.0227639339864254
1761468990649142800,1.993142822265625,-0.03701036050915718,0.021382883191108704,-0.029304925352334976
1761468990659098600,2.0030986328125,-0.03323373571038246,0.014298634603619576,-0.02793113887310028
1761468990669053700,2.0130537109375,-0.026645077392458916,0.01997755840420723,-0.021281223744153976
1761468990679009800,2.023009765625,-0.02218421921133995,0.027316763997077942,-0.015921905636787415
1761468990688964600,2.032964599609375,-0.015850158408284187,0.021384039893746376,-0.023391805589199066
1761468990698920700,2.042920654296875,-0.014615625143051147,0.011178837157785892,-0.03286486491560936
1761468990708875800,2.052875732421875,-0.014431599527597427,0.0009325910359621048,-0.042701780796051025
1761468990718830600,2.06283056640625,-0.012133602984249592,-0.002997789764776826,-0.04491700232028961
1761468990728786700,2.07278662109375,-0.0023435556795448065,0.005162668414413929,-0.0367397665977478
1761468990738741800,2.08274169921875,0.0027827040757983923,0.01863950304687023,-0.019247962161898613
1761468990748697900,2.09269775390625,0.002907606540247798,0.019613686949014664,-0.010137820616364479
1761468990758652700,2.102652587890625,0.004027866292744875,0.02063934877514839,-0.003054648172110319
1761468990768608800,2.11260888671875,0.011460216715931892,0.02947358600795269,0.005972402170300484
1761468990778563800,2.122563720703125,0.01833018660545349,0.04240008443593979,0.0167059525847435
1761468990788519700,2.132519775390625,0.021543556824326515,0.047129325568675995,0.017163483425974846
1761468990798474800,2.142474853515625,0.027897909283638,0.03161577880382538,0.0035602767020463943
1761468990808430600,2.1524306640625,0.03114616870880127,0.019308513030409813,-0.012160096317529678
1761468990818385700,2.1623857421875,0.03427588567137718,0.01645791530609131,-0.019454870373010635
1761468990828341800,2.172341796875,0.03951166197657585,0.014444300904870033,-0.02044796571135521
1761468990838296600,2.182296630859375,0.04422415420413017,0.01315498910844326,-0.014107529073953629
1761468990848252700,2.192252685546875,0.0445149689912796,0.022810813039541245,-0.005858653225004673
1761468990858207700,2.202207763671875,0.042376015335321426,0.02840900979936123,-0.00068297004327178
1761468990868162600,2.21216259765625,0.043683093041181564,0.040367402136325836,-0.0013319822028279305
1761468990878118700,2.22211865234375,0.04207681864500046,0.043765995651483536,-0.006468104664236307
1761468990888073700,2.23207373046875,0.03131258860230446,0.03478075563907623,-0.022820712998509407
1761468990898029800,2.24202978515625,0.027097156271338463,0.02372463420033455,-0.04028123617172241
1761468990907984600,2.251984619140625,0.030128899961709976,0.01247917115688324,-0.052766136825084686
1761468990917940700,2.261940673828125,0.030873168259859085,-0.015255031175911427,-0.06182482838630676
1761468990927895800,2.271895751953125,0.0406070239841938,-0.028148991987109184,-0.057027675211429596
1761468990937851600,2.2818515625,0.05103862285614014,-0.022741977125406265,-0.03582758083939552
1761468990947806700,2.291806640625,0.06311526149511337,-0.009809133596718311,-0.007234019692987204
1761468990957762800,2.3017626953125,0.07069064676761627,-0.0008425600826740265,0.017269963398575783
1761468990967717600,2.311717529296875,0.07211995869874954,-0.00445753475651145,0.031670473515987396
1761468990977673700,2.321673828125,0.07003483176231384,-0.015044799074530602,0.036300063133239746
1761468990987628800,2.33162890625,0.06721747666597366,-0.016872260719537735,0.038104087114334106
1761468990997583600,2.34158349609375,0.06474055349826813,-0.00653944443911314,0.04381026327610016
1761468991007539700,2.351539794921875,0.05796467512845993,0.00633720587939024,0.04968812316656113
1761468991017494800,2.361494873046875,0.05167621374130249,0.018239738419651985,0.04295562952756882
1761468991027451000,2.371450927734375,0.049009058624506,0.020712750032544136,0.02281094714999199
1761468991037405000,2.381405029296875,0.04976169019937515,0.004606458358466625,-0.009892165660858154
1761468991047361000,2.391361083984375,0.054348718374967575,-0.01383460033684969,-0.03416155278682709
1761468991057316000,2.401316162109375,0.06580185890197754,-0.021472955122590065,-0.047970402985811234
1761468991067272200,2.411272216796875,0.08003858476877213,-0.022426100447773933,-0.04398418217897415
1761468991077227000,2.42122705078125,0.09143181890249252,-0.01884031854569912,-0.030102042481303215
1761468991087183000,2.43118310546875,0.09631578624248505,-0.016883695498108864,-0.007701663766056299
1761468991097138200,2.44113818359375,0.09423479437828064,-0.007334930822253227,0.020547019317746162
1761468991107094000,2.451093994140625,0.08768928050994873,-0.0021550823003053665,0.040903422981500626
1761468991117049000,2.461049072265625,0.08128836750984192,-0.00605741236358881,0.05179441720247269
1761468991127005200,2.471005126953125,0.07336653023958206,-0.012875370681285858,0.05300083011388779
1761468991136960000,2.4809599609375,0.06541670113801956,-0.020373666658997536,0.04759689047932625
1761468991146916000,2.490916015625,0.058703403919935226,-0.0257487241178751,0.03902071341872215
1761468991156871200,2.50087109375,0.0544193871319294,-0.029323337599635124,0.03134418651461601
1761468991166826000,2.510825927734375,0.05238313600420952,-0.027271904051303864,0.028536416590213776
1761468991176782000,2.520781982421875,0.05306744948029518,-0.020524967461824417,0.03179032728075981
1761468991186737200,2.530737060546875,0.05421633645892143,-0.012951204553246498,0.040530554950237274
1761468991196693200,2.540693359375,0.06173793599009514,-0.027384331449866295,0.0589527003467083
1761468991206648000,2.55064794921875,0.06925018876791,-0.04596094787120819,0.07829923927783966
1761468991216604000,2.56060400390625,0.06313318759202957,-0.017294438555836678,0.09046425670385361
1761468991226559200,2.570559326171875,0.050582509487867355,0.008508930914103985,0.09722016006708145
1761468991236515000,2.58051513671875,0.04394910857081413,0.0007570011075586081,0.10589461028575897
1761468991246470000,2.590469970703125,0.04212404415011406,-0.014162559062242508,0.11453177034854889
1761468991256426000,2.600426025390625,0.037950899451971054,-0.02855648845434189,0.11081744730472565
1761468991266381000,2.610381103515625,0.03894532099366188,-0.03709537908434868,0.10602668672800064
1761468991276337200,2.620337158203125,0.03749099746346474,-0.04223509132862091,0.09495537728071213
1761468991286292000,2.6302919921875,0.035863008350133896,-0.04993588849902153,0.08274532109498978
1761468991296248000,2.640248046875,0.033910561352968216,-0.05712859332561493,0.07436306774616241
1761468991306203100,2.650203125,0.03340668976306915,-0.061083387583494186,0.07403789460659027
1761468991316158000,2.660157958984375,0.039576463401317596,-0.05483859032392502,0.0795036181807518
1761468991326114300,2.6701142578125,0.04663383960723877,-0.0315023772418499,0.0849820002913475
1761468991336069000,2.680069091796875,0.048596855252981186,-0.0049906084313988686,0.08777911961078644
1761468991346025000,2.69002490234375,0.04821043089032173,0.007604279555380344,0.08178301155567169
1761468991355980000,2.69997998046875,0.043111689388751984,0.005888512823730707,0.06083957105875015
1761468991365936000,2.70993603515625,0.036930494010448456,-0.0016229333123192191,0.030480066314339638
1761468991375891000,2.719890869140625,0.02955516427755356,-0.007269975729286671,0.008865567855536938
1761468991385847000,2.729846923828125,0.022382738068699837,-0.002845932263880968,-0.004444644786417484
1761468991395802000,2.739802001953125,0.0191773883998394,0.0035636399406939745,-0.011235447600483894
1761468991405758200,2.74975830078125,0.014299542643129826,0.009114200249314308,-0.01789281703531742
1761468991415713000,2.759713134765625,0.00809035636484623,0.007705437485128641,-0.020010940730571747
1761468991425669000,2.769669189453125,0.0021547027863562107,0.015049103647470474,-0.018489476293325424
1761468991435624200,2.779624267578125,-0.005730967968702316,0.011157815344631672,-0.00990353524684906
1761468991445580000,2.789580078125,-0.013616055250167847,0.011547436006367207,0.0016596432542428374
1761468991455535000,2.79953515625,-0.020051920786499977,0.017366187646985054,0.01632927544414997
1761468991465491000,2.809490966796875,-0.027038725093007088,0.023816896602511406,0.02768898755311966
1761468991475446000,2.819446044921875,-0.03824358806014061,0.02977398782968521,0.034085050225257874
1761468991485401000,2.829401123046875,-0.044653549790382385,0.03241371363401413,0.035305846482515335
1761468991495357000,2.83935693359375,-0.049342986196279526,0.031933970749378204,0.03096417337656021
1761468991505312000,2.84931201171875,-0.05629223957657814,0.022074148058891296,0.01836928352713585
1761468991515268000,2.85926806640625,-0.05518226698040962,0.017855536192655563,0.006828887388110161
1761468991525223000,2.869222900390625,-0.04993397369980812,0.011329724453389645,-0.0015060077421367168
1761468991535179300,2.87917919921875,-0.04658082500100136,0.005609404761344194,-0.005930714774876833
1761468991545134000,2.889134033203125,-0.04382631555199623,0.010416943579912186,-0.004755727481096983
1761468991555090200,2.899090087890625,-0.04152797535061836,0.01590719074010849,0.004544555675238371
1761468991565045000,2.909044921875,-0.03789302706718445,0.020924586802721024,0.017276862636208534
1761468991575001000,2.9190009765625,-0.033836886286735535,0.024759888648986816,0.02775939181447029
1761468991584956200,2.9289560546875,-0.02912175841629505,0.03438215330243111,0.03239941596984863
1761468991594912000,2.938912109375,-0.01849808171391487,0.04650202766060829,0.027556028217077255
1761468991604867000,2.9488671875,-0.013638081029057503,0.04506338760256767,0.015358484350144863
1761468991614823200,2.9588232421875,-0.008661729283630848,0.03504123538732529,0.00005703396163880825
1761468991624778000,2.968778076171875,-0.004204929806292057,0.014474976807832718,-0.023466134443879128
1761468991634734000,2.978734130859375,0.0041959541849792,0.006748763844370842,-0.03489026054739952
1761468991644689200,2.988689208984375,0.017161289229989052,0.0022118028718978167,-0.037017859518527985
1761468991654644000,2.99864404296875,0.029390674084424973,0.002737834583967924,-0.029720336198806763
1761468991664600000,3.00860009765625,0.03919856622815132,-0.0001375802094116807,-0.02019607089459896
1761468991674555100,3.01855517578125,0.04155067354440689,0.0009494961705058813,-0.0063980957493186
1761468991684511200,3.02851123046875,0.03508717939257622,0.01571805588901043,0.013019810430705547
1761468991694466000,3.038466064453125,0.028789566829800606,0.018459398299455643,0.02724255621433258
1761468991704422000,3.048421875,0.02400306612253189,0.012525343336164951,0.03898895904421806
1761468991714377200,3.058377197265625,0.023309580981731415,0.009004352614283562,0.04858366772532463
1761468991724333000,3.0683330078125,0.030697990208864212,-0.00026717595756053925,0.05060394108295441
1761468991734288000,3.078287841796875,0.034359242767095566,-0.010930272750556469,0.04931766539812088
1761468991744244200,3.088244140625,0.043674714863300323,-0.020860135555267334,0.043442729860544205
1761468991754199000,3.098198974609375,0.04431337118148804,-0.024012643843889236,0.03329288214445114
1761468991764155100,3.108155029296875,0.037378232926130295,-0.03422053903341293,0.018988244235515594
1761468991774110000,3.11810986328125,0.023731453344225883,-0.031590815633535385,0.017594577744603157
1761468991784066000,3.128066162109375,0.014152595773339272,-0.02319520339369774,0.018355442211031914
1761468991794021000,3.138021240234375,0.00474122678861022,-0.015180371701717377,0.021322093904018402
1761468991803977000,3.14797705078125,-0.00035846015089191496,-0.011206136085093021,0.022468850016593933
1761468991813932300,3.157932373046875,-0.002605044050142169,-0.013545365072786808,0.023178687319159508
1761468991823887000,3.16788720703125,0.0031929239630699158,-0.008203595876693726,0.02656649425625801
1761468991833843000,3.177843017578125,0.011479581706225872,-0.006370416842401028,0.027824310585856438
1761468991843798300,3.18779833984375,0.01943683996796608,-0.0059187449514865875,0.025723876431584358
1761468991853754000,3.197754150390625,0.01993890479207039,-0.003342818934470415,0.021340809762477875
1761468991863709000,3.207708984375,0.01869148015975952,0.003479400649666786,0.012487398460507393
1761468991873665000,3.2176650390625,0.017618821933865547,0.0010447803651914,-0.0021321773529052734
1761468991883620000,3.2276201171875,0.011173439212143421,-0.0009840157581493258,-0.021890169009566307
1761468991893576200,3.237576171875,0.007501085754483938,0.0036795539781451225,-0.04272308945655823
1761468991903531000,3.247531005859375,0.0020858137868344784,0.00859894510358572,-0.05898008868098259
1761468991913486800,3.25748681640625,-0.001039257156662643,0.013998587615787983,-0.07384872436523438
1761468991923442200,3.267442138671875,-0.0007529673748649657,0.017810635268688202,-0.07667140662670135
1761468991933398000,3.27739794921875,-0.0021344907581806183,0.016048554331064224,-0.07699955999851227
1761468991943353000,3.28735302734375,-0.007332981564104557,0.0135835325345397,-0.07061542570590973
1761468991953309200,3.29730908203125,-0.009973070584237576,0.012998520396649837,-0.052941203117370605
1761468991963264000,3.307263916015625,-0.00770991574972868,0.01163418311625719,-0.03627566993236542
1761468991973219000,3.317218994140625,-0.0033750184811651707,-0.0009239634964615107,-0.017246730625629425
1761468991983175000,3.3271748046875,-0.00044740544399246573,-0.01098884828388691,0.005201586522161961
1761468991993130000,3.3371298828125,-0.0020190058276057243,-0.020848151296377182,0.024681292474269867
1761468992003086000,3.347086181640625,-0.004763659555464983,-0.03069119341671467,0.046883001923561096
1761468992013041000,3.357041015625,-0.006830538623034954,-0.030086390674114227,0.07153189182281494
1761468992022997200,3.366997314453125,-0.0067770094610750675,-0.028253868222236633,0.09718851745128632
1761468992032952000,3.3769521484375,-0.007083833683282137,-0.022347701713442802,0.11629512161016464
1761468992042908200,3.386908203125,-0.009651653468608856,-0.020429160445928574,0.1208358108997345
1761468992052863200,3.39686328125,-0.01349646132439375,-0.02287232130765915,0.10948074609041214
1761468992062819300,3.4068193359375,-0.015866940841078758,-0.028500644490122795,0.08850275725126266
1761468992072774100,3.416774169921875,-0.016369035467505455,-0.029556872323155403,0.06977000087499619
1761468992082730000,3.42672998046875,-0.017639094963669777,-0.032460249960422516,0.05072733387351036
1761468992092685300,3.436685302734375,-0.018083693459630013,-0.024235550314188004,0.027653373777866364
1761468992102641200,3.44664111328125,-0.0221660528331995,-0.015485469251871109,0.0008558470290154219
1761468992112596200,3.45659619140625,-0.023152310401201248,-0.011388453654944897,-0.02960268408060074
1761468992122552000,3.466552001953125,-0.02755078673362732,-0.010515202768146992,-0.0565623976290226
1761468992132507100,3.476507080078125,-0.034466780722141266,-0.009127062745392323,-0.07171297073364258
1761468992142462200,3.486462158203125,-0.041750259697437286,-0.002627885201945901,-0.07617323100566864
1761468992152418000,3.49641796875,-0.04220210388302803,0.003702121553942561,-0.07384752482175827
1761468992162373000,3.506373046875,-0.039509113878011703,0.007986615411937237,-0.0677904337644577
1761468992172329200,3.5163291015625,-0.037199363112449646,0.0162906963378191,-0.06396681815385818
1761468992182284000,3.526283935546875,-0.0346861369907856,0.02176056243479252,-0.06655700504779816
1761468992192240000,3.536240234375,-0.03869040682911873,0.0072927395813167095,-0.07613962143659592
1761468992202195200,3.5461953125,-0.041551705449819565,-0.016972387209534645,-0.07816202193498611
1761468992212151000,3.556151123046875,-0.035323694348335266,-0.03427080065011978,-0.06854505091905594
1761468992222106000,3.566106201171875,-0.022565821185708046,-0.03171096742153168,-0.038308314979076385
1761468992232062200,3.576062255859375,-0.005781074054539204,-0.024649031460285187,-0.003971477039158344
1761468992242017300,3.586017333984375,0.0050199078395962715,-0.01570453867316246,0.03255670517683029
1761468992251973000,3.59597314453125,0.002463637152686715,-0.010303708724677563,0.05597997456789017
1761468992261928200,3.60592822265625,-0.00020378490444272757,-0.009219002909958363,0.06720893085002899
1761468992271884300,3.61588427734375,-0.002899174578487873,-0.004533943720161915,0.07153668999671936
1761468992281839000,3.625839111328125,-0.005282970145344734,-0.005469245836138725,0.06972148269414902
1761468992291795200,3.635795166015625,-0.006968370638787746,-0.008640329353511333,0.06176668778061867
1761468992301750300,3.645750244140625,-0.008890107274055481,-0.018549151718616486,0.045499566942453384
1761468992311706000,3.6557060546875,-0.007557285018265247,-0.03149130567908287,0.026422321796417236
1761468992321661200,3.6656611328125,-0.0004908534465357661,-0.03674039989709854,0.01638939417898655
1761468992331616300,3.6756162109375,0.006383179686963558,-0.03422629088163376,0.011414404027163982
1761468992341572000,3.685572021484375,0.011215751990675926,-0.03357887640595436,0.008954707533121109
1761468992351527200,3.695527099609375,0.012022336944937706,-0.037195466458797455,0.013164015486836433
1761468992361483000,3.70548291015625,0.009672630578279495,-0.03692062944173813,0.019473044201731682
1761468992371438300,3.715438232421875,0.00943415891379118,-0.04254966974258423,0.030997134745121002
1761468992381394200,3.725394287109375,0.010921267792582512,-0.030318569391965866,0.04279706999659538
1761468992391349000,3.735348876953125,0.01563716121017933,-0.018824240192770958,0.05809294059872627
1761468992401305000,3.74530517578125,0.022794406861066818,-0.01786310411989689,0.06873759627342224
1761468992411260200,3.75526025390625,0.027852550148963928,-0.024148456752300262,0.06902189552783966
1761468992421216300,3.76521630859375,0.037216756492853165,-0.03424982354044914,0.07070794701576233
1761468992431171000,3.775171142578125,0.04352596029639244,-0.03663678467273712,0.07426396012306213
1761468992441127200,3.785127197265625,0.05520418658852577,-0.02638920769095421,0.07548848539590836
1761468992451082200,3.795082275390625,0.05708159878849983,-0.025088701397180557,0.0661373883485794
1761468992461038000,3.8050380859375,0.057706642895936966,-0.031758856028318405,0.055361174046993256
1761468992470993200,3.8149931640625,0.05150461569428444,-0.023750048130750656,0.041790273040533066
1761468992480948200,3.8249482421875,0.04566004127264023,-0.01787937618792057,0.020367538556456566
1761468992490904000,3.834904052734375,0.03773639723658562,-0.02053685300052166,-0.0007182019762694836
1761468992500859100,3.844859130859375,0.035848747938871384,-0.011064521968364716,-0.012226786464452744
1761468992510815200,3.854815185546875,0.03206983953714371,0.0004868816176895052,-0.017844922840595245
1761468992520770000,3.86477001953125,0.02908230572938919,-0.001427664770744741,-0.02215631492435932
1761468992530726100,3.87472607421875,0.024749401956796646,0.006848199758678675,-0.019738061353564262
1761468992540681200,3.88468115234375,0.01844916120171547,0.023001601919531822,-0.012962447479367256
1761468992550637300,3.89463720703125,0.01416162122040987,0.02272764779627323,-0.010894974693655968
1761468992560592100,3.904592041015625,0.017635980620980263,0.014012453146278858,-0.010979397222399712
1761468992570548000,3.9145478515625,0.020346136763691902,0.006327235139906406,-0.013599464669823647
1761468992580503300,3.92450341796875,0.021991437301039696,0.006328300107270479,-0.013607986271381378
1761468992590459100,3.934459228515625,0.02051982656121254,0.004085818771272898,-0.010620232671499252
1761468992600414200,3.944414306640625,0.016631346195936203,0.008642753586173058,-0.00891980342566967
1761468992610370000,3.9543701171875,0.010510162450373173,0.014726154506206512,-0.001139144878834486
1761468992620325000,3.9643251953125,0.0038637120742350817,0.01892542652785778,0.008162211626768112
1761468992630281200,3.97428125,0.0008053099154494703,0.02314874343574047,0.01522812806069851
1761468992640236000,3.984236083984375,-0.00041761359898373485,0.016208812594413757,0.014187098480761051
1761468992650813200,3.994813232421875,0.0010513043962419033,0.014552280306816101,0.009977494366466999
1761468992660769300,4.004769287109375,0.0003674951149150729,0.011617468670010567,0.005864998325705528
1761468992670724000,4.01472412109375,-0.0008032304467633367,0.00452440558001399,-0.0018962519243359566
1761468992680680200,4.02468017578125,-0.0013063015649095178,-0.005372699815779924,-0.010410111397504807
1761468992690635300,4.03463525390625,-0.0027772639878094196,-0.003802439197897911,-0.018737785518169403
1761468992700591000,4.044591064453125,-0.010826135985553265,0.0071540717035532,-0.022482456639409065
1761468992710546200,4.054546142578125,-0.021820612251758575,0.01700555346906185,-0.02428334578871727
1761468992720502000,4.064501953125,-0.03130359575152397,0.02132786437869072,-0.021914729848504066
1761468992730457000,4.07445703125,-0.03442579135298729,0.03045927733182907,-0.014468168839812279
1761468992740413200,4.0844130859375,-0.033741358667612076,0.03478904440999031,-0.00863744504749775
1761468992750368000,4.094367919921875,-0.02738768607378006,0.035806696861982346,-0.011683536693453789
1761468992760324400,4.104324462890625,-0.02244619093835354,0.030085429549217224,-0.022383850067853928
1761468992770279200,4.114279052734375,-0.016216401010751724,0.020433733239769936,-0.04014452174305916
1761468992780235000,4.124235107421875,-0.00920373760163784,-0.0019030726980417967,-0.059556324034929276
1761468992790190300,4.1341904296875,0.0010121476370841265,-0.028549863025546074,-0.07301859557628632
1761468992800146200,4.144146240234375,0.010557218454778194,-0.04772048816084862,-0.07065238803625107
1761468992810101200,4.154101318359375,0.017623649910092354,-0.049626510590314865,-0.054751984775066376
1761468992820056300,4.164056396484375,0.022357210516929626,-0.0420910082757473,-0.025117024779319763
1761468992830012200,4.17401220703125,0.023030191659927368,-0.03108842298388481,0.005354330874979496
1761468992839967200,4.18396728515625,0.02460811473429203,-0.02541748806834221,0.03500623255968094
1761468992849923000,4.193923095703125,0.026498153805732727,-0.030789298936724663,0.05750300735235214
1761468992859878100,4.203878173828125,0.02827371284365654,-0.04370972514152527,0.0701904296875
1761468992869834200,4.213834228515625,0.0306849405169487,-0.049941521137952805,0.0793951079249382
1761468992879789000,4.2237890625,0.034101687371730804,-0.0495242215692997,0.08355221897363663
1761468992889745200,4.2337451171875,0.03426041081547737,-0.05386091396212578,0.0829404890537262
1761468992899700200,4.2437001953125,0.028099635615944862,-0.05366891622543335,0.07916057854890823
1761468992909656000,4.253656005859375,0.020227598026394844,-0.043343573808670044,0.07705402374267578
1761468992919611100,4.263611083984375,0.013522699475288391,-0.04100944474339485,0.07231365144252777
1761468992929567000,4.27356689453125,0.0124912578612566,-0.04573788866400719,0.06491884589195251
1761468992939522300,4.283522216796875,0.011911400593817234,-0.04873821884393692,0.05464961379766464
1761468992949478100,4.29347802734375,0.010193661786615849,-0.04320070892572403,0.046236153692007065
1761468992959433000,4.303432861328125,0.007939648814499378,-0.040558040142059326,0.032734014093875885
1761468992969389300,4.313389404296875,0.007805159315466881,-0.040192123502492905,0.021973511204123497
1761468992979966200,4.32396630859375,0.0033108091447502375,-0.046293955296278,0.006924786139279604
1761468992989922000,4.333922119140625,-0.0032510641030967236,-0.05003273859620094,-0.005642865784466267
1761468992999877000,4.343877197265625,-0.004614869132637978,-0.04632854461669922,-0.007401617243885994
1761468993009833200,4.353833251953125,0.003486342029646039,-0.03102908469736576,-0.005507794674485922
1761468993019788300,4.363788330078125,0.015243399888277054,-0.01670713722705841,-0.0020667240023612976
1761468993029744000,4.373744140625,0.02126178704202175,-0.00008394203905481845,-0.0005995456594973803
1761468993039699200,4.38369921875,0.0246791560202837,0.011713328771293163,-0.004563927184790373
1761468993049655300,4.3936552734375,0.018541427329182625,0.012826088815927505,-0.016918228939175606
1761468993059610400,4.4036103515625,0.012182330712676048,0.005809724796563387,-0.03234778344631195
1761468993069566200,4.413566162109375,0.014487859793007374,-0.001930053811520338,-0.04379206895828247
1761468993079521300,4.423521240234375,0.0198485367000103,-0.013856754638254642,-0.05252430588006973
1761468993089477400,4.433477294921875,0.02699386142194271,-0.0190727561712265,-0.05822882056236267
1761468993099432200,4.44343212890625,0.0324176549911499,-0.015472960658371449,-0.05921152979135513
1761468993109388300,4.45338818359375,0.030308425426483154,-0.016002079471945763,-0.050870515406131744
1761468993119343400,4.46334326171875,0.022330392152071,-0.010733814910054207,-0.038005582988262177
1761468993129299500,4.473299560546875,0.014223705977201462,0.0014419406652450562,-0.01881042867898941
1761468993139254300,4.483254150390625,0.012156028300523758,0.009678298607468605,0.0037265713326632977
1761468993149209300,4.493209228515625,0.012518186122179031,0.007119101472198963,0.024439452216029167
1761468993159165400,4.50316552734375,0.016191750764846802,0.008035494945943356,0.04249009117484093
1761468993169120300,4.513120361328125,0.022624671459197998,0.012290810234844685,0.05198955163359642
1761468993179076000,4.523076171875,0.02559036761522293,0.0008650505915284157,0.04662221670150757
1761468993189031400,4.533031494140625,0.026810098439455032,-0.012626523151993752,0.03488273546099663
1761468993198987300,4.5429873046875,0.025674257427453995,-0.02080136351287365,0.02088995650410652
1761468993208942000,4.552942138671875,0.023680325597524643,-0.027129782363772392,0.009930671192705631
1761468993218898200,4.562898193359375,0.018533233553171158,-0.017558114603161812,0.011266779154539108
1761468993228853200,4.572853271484375,0.01470922864973545,0.006940760649740696,0.02266082912683487
1761468993238809300,4.582809326171875,0.0078017874620854855,0.02083474025130272,0.029371196404099464
1761468993248764200,4.59276416015625,0.0007617827504873276,0.024765895679593086,0.020721491426229477
1761468993258720500,4.602720458984375,-0.003362921066582203,0.019992180168628693,0.004945723805576563
1761468993268675300,4.61267529296875,-0.008424441330134869,0.014217957854270935,-0.017930351197719574
1761468993278631200,4.622631103515625,-0.010008756071329117,0.007359518203884363,-0.036577269434928894
1761468993288586500,4.63258642578125,-0.013779668137431145,0.020256008952856064,-0.047435563057661057
1761468993298541300,4.642541259765625,-0.020827990025281906,0.030965911224484444,-0.051666259765625
1761468993308497200,4.6524970703125,-0.027635209262371063,0.02629820443689823,-0.057439908385276794
1761468993318452500,4.662452392578125,-0.02966986410319805,0.03148764371871948,-0.06460407376289368
1761468993328408300,4.672408203125,-0.031071243807673454,0.03471224382519722,-0.07349328696727753
1761468993338363100,4.682363037109375,-0.02924591302871704,0.026495859026908875,-0.08397815376520157
1761468993348319200,4.6923193359375,-0.028423182666301727,0.028467200696468353,-0.08872782438993454
1761468993358274300,4.7022744140625,-0.0343971848487854,0.035579171031713486,-0.08538422733545303
1761468993368230400,4.71223046875,-0.042291995137929916,0.047271858900785446,-0.07996739447116852
1761468993378185200,4.722185302734375,-0.053779006004333496,0.046724047511816025,-0.07071903347969055
1761468993388141300,4.732141357421875,-0.05277921259403229,0.036498770117759705,-0.05927535146474838
1761468993398096400,4.742096435546875,-0.040133725851774216,0.027350811287760735,-0.048644013702869415
1761468993408052200,4.75205224609375,-0.02644013613462448,0.01737125590443611,-0.031505584716796875
1761468993418007300,4.76200732421875,-0.017153693363070488,0.006506357807666063,-0.01112947054207325
1761468993427963100,4.771963134765625,-0.012935036793351173,-0.0018411705968901515,0.010830990970134735
1761468993437918200,4.781918212890625,-0.01066202949732542,-0.008150997571647167,0.03188168257474899
1761468993447874300,4.791874267578125,-0.0021184878423810005,-0.013292072340846062,0.048809874802827835
1761468993457829000,4.8018291015625,0.008278760127723217,-0.031237782910466194,0.057228393852710724
1761468993467785500,4.811785400390625,0.02098407782614231,-0.050902266055345535,0.06166299432516098
1761468993477740300,4.821740234375,0.027554096654057503,-0.04977601394057274,0.05908159166574478
1761468993487696100,4.831696044921875,0.028149021789431572,-0.03840748593211174,0.05575879290699959
1761468993497651500,4.8416513671875,0.02501554600894451,-0.028199592605233192,0.048464927822351456
1761468993507606300,4.851606201171875,0.018892817199230194,-0.019530095160007477,0.03794589638710022
1761468993517562400,4.861562255859375,0.016089575365185738,-0.015068234875798225,0.029731376096606255
1761468993527517400,4.871517333984375,0.017626484856009483,-0.013153155334293842,0.024971775710582733
1761468993537473300,4.881473388671875,0.021796463057398796,-0.015076223760843277,0.01935650035738945
1761468993547428400,4.891428466796875,0.02534320577979088,-0.019557641819119453,0.01189542468637228
1761468993557384200,4.90138427734375,0.023352226242423058,-0.008753464557230473,0.0043714614585042
1761468993567339300,4.91133935546875,0.02294996939599514,-0.002493329579010606,-0.009423790499567986
1761468993577295400,4.92129541015625,0.020457249134778976,-0.0026318139862269163,-0.02600915916264057
1761468993587250200,4.931250244140625,0.018504798412322998,-0.00887374859303236,-0.03690130636096001
1761468993597206300,4.941206298828125,0.011320657096803188,-0.014933771453797817,-0.043993838131427765
1761468993607161300,4.951161376953125,0.00419741403311491,-0.015716491267085075,-0.04206366464495659
1761468993617117200,4.9611171875,-0.002983267419040203,-0.014993976801633835,-0.037946682423353195
1761468993627072300,4.971072265625,-0.009960577823221684,-0.01704191230237484,-0.03116450645029545
1761468993637028000,4.981028076171875,-0.015344424173235893,-0.008022584021091461,-0.02244371920824051
1761468993646983400,4.9909833984375,-0.019527332857251167,0.0013596488861367106,-0.007171083707362413
1761468993656938200,5.000938232421875,-0.02020058035850525,0.011615748517215252,0.015776842832565308
1761468993666894000,5.01089404296875,-0.020408516749739647,0.02599373832345009,0.034979794174432755
1761468993676849400,5.020849365234375,-0.017310727387666702,0.0310598686337471,0.03416753187775612
1761468993686805200,5.03080517578125,-0.011428957805037498,0.024482911452651024,0.01855786144733429
1761468993696760000,5.040760009765625,-0.004723118152469397,0.014414564706385136,-0.012389935553073883
1761468993706716400,5.05071630859375,0.0002548317424952984,0.01141168363392353,-0.04087868705391884
1761468993716671200,5.060671142578125,0.003440238768234849,0.007081916555762291,-0.062327791005373
1761468993726627300,5.07062744140625,0.004172933287918568,-0.0013833814300596714,-0.07331749051809311
1761468993736582400,5.08058251953125,0.0033910288475453854,-0.001147958100773394,-0.0768515020608902
1761468993746538500,5.09053857421875,0.006741081364452839,0.008678640238940716,-0.06622657924890518
1761468993756493300,5.100493408203125,0.009322216734290123,0.0308127049356699,-0.05308946967124939
1761468993766449200,5.11044921875,0.009672775864601135,0.021144647151231766,-0.054911788552999496
1761468993776404500,5.120404541015625,0.01541694812476635,-0.013032764196395874,-0.055871590971946716
1761468993786360300,5.1303603515625,0.01741097681224346,-0.010314584709703922,-0.04649292305111885
1761468993796315100,5.140315185546875,0.011215931735932827,0.00022807178902439773,-0.037727925926446915
1761468993806271200,5.150271240234375,0.003867171937599778,-0.011266538873314857,-0.027741067111492157
1761468993816226300,5.160226318359375,-0.004557205829769373,-0.019115140661597252,-0.01430781651288271
1761468993826181000,5.17018115234375,-0.01178318914026022,-0.00614866754040122,0.008615360595285892
1761468993836137200,5.18013720703125,-0.016971558332443237,-0.00011980318231508136,0.030073247849941254
1761468993846092300,5.19009228515625,-0.019397757947444916,-0.006535982247442007,0.05018773302435875
1761468993856048400,5.20004833984375,-0.01948590949177742,-0.013949157670140266,0.06651291251182556
1761468993866003200,5.210003173828125,-0.018384099006652832,-0.009337802417576313,0.07447746396064758
1761468993875959300,5.219959228515625,-0.01644451916217804,-0.006855204235762358,0.069942906498909
1761468993885914400,5.229914306640625,-0.011437511071562767,-0.00709329079836607,0.05672776326537132
1761468993895870200,5.2398701171875,-0.014250075444579124,-0.009862178936600685,0.03494363650679588
1761468993905825300,5.2498251953125,-0.021069185808300972,-0.013698745518922806,0.009240053594112396
1761468993915781400,5.259781494140625,-0.030170006677508354,-0.007656565867364407,-0.010659351944923401
1761468993925736200,5.269736083984375,-0.03686371073126793,0.0013577587669715285,-0.023847658187150955
1761468993935692300,5.2796923828125,-0.037549737840890884,0.010093992576003075,-0.031053639948368073
1761468993945647400,5.2896474609375,-0.029753511771559715,0.013930799439549446,-0.03630863502621651
1761468993955603500,5.299603515625,-0.022124353796243668,0.015551865100860596,-0.04318251833319664
1761468993965558300,5.309558349609375,-0.014375652186572552,0.013844081200659275,-0.04559972137212753
1761468993975514000,5.31951416015625,-0.008021083660423756,0.006503876298666,-0.04510916769504547
1761468993985469400,5.329469482421875,-0.009551874361932278,0.0024796254001557827,-0.03598891943693161
1761468993995424300,5.33942431640625,-0.001882503624074161,0.008515946567058563,-0.017294326797127724
1761468994005380400,5.34938037109375,0.007286375388503075,0.0064294422045350075,0.006453406531363726
1761468994015335400,5.35933544921875,0.01324972603470087,0.007631859742105007,0.026582110673189163
1761468994025291300,5.369291259765625,0.013951556757092476,0.01027772668749094,0.03772486373782158
1761468994035246600,5.37924658203125,0.010986658744513988,0.0025356514379382133,0.04210016876459122
1761468994045202700,5.38920263671875,0.0045719086192548275,-0.0015651348512619734,0.04298408329486847
1761468994055157800,5.39915771484375,-0.0035139811225235462,0.004959077574312687,0.04346877709031105
1761468994065113600,5.409113525390625,-0.011703318916261196,0.01628425158560276,0.04632135108113289
1761468994075068700,5.419068603515625,-0.016909800469875336,0.022012976929545403,0.04128877446055412
1761468994085024500,5.4290244140625,-0.01817583478987217,0.017523588612675667,0.028958993032574654
1761468994094979800,5.438979736328125,-0.015607214532792568,0.02325258031487465,0.015665557235479355
1761468994104935700,5.448935791015625,-0.015259355306625366,0.029352985322475433,0.002600043546408415
1761468994114890500,5.458890380859375,-0.01842026226222515,0.026186753064393997,-0.01654462143778801
1761468994124846600,5.4688466796875,-0.019478006288409233,0.02540861815214157,-0.026934033259749413
1761468994134801700,5.4788017578125,-0.016370629891753197,0.034154970198869705,-0.02830103226006031
1761468994144757800,5.4887578125,-0.013683171011507511,0.04090801253914833,-0.029100803658366203
1761468994154712600,5.498712646484375,-0.014556155540049076,0.04011545702815056,-0.030420666560530663
1761468994164667600,5.508667724609375,-0.015595057979226112,0.035519134253263474,-0.027964306995272636
1761468994174623700,5.518623779296875,-0.012804864905774593,0.027813808992505074,-0.02099907584488392
1761468994184578600,5.52857861328125,-0.012754322960972786,0.015026817098259926,-0.014561519026756287
1761468994194534700,5.53853466796875,-0.009565187618136406,-0.0056816572323441505,-0.003966399468481541
1761468994204489700,5.54848974609375,-0.003938609734177589,-0.018298732116818428,0.012818645685911179
1761468994214445600,5.558445556640625,-0.0014501521363854408,-0.023330243304371834,0.027500387281179428
1761468994224400600,5.568400634765625,-0.0017170317005366087,-0.02582818828523159,0.04176522046327591
1761468994234356700,5.578356689453125,-0.00532641401514411,-0.00710989348590374,0.061716023832559586
1761468994244311600,5.5883115234375,-0.015586836263537407,0.018370099365711212,0.08003193885087967
1761468994254267600,5.598267578125,-0.030680300667881966,0.03329125791788101,0.08404985070228577
1761468994264222700,5.60822265625,-0.044605642557144165,0.03814493492245674,0.07026664167642593
1761468994274178800,5.6181787109375,-0.049778833985328674,0.03820298984646797,0.048954423516988754
1761468994284133600,5.628133544921875,-0.047055382281541824,0.02781631052494049,0.015098031610250473
1761468994294089500,5.63808935546875,-0.03572842478752136,0.016816124320030212,-0.013640671968460083
1761468994304044800,5.648044921875,-0.017628615722060204,0.012616648338735104,-0.03275041654706001
1761468994313999600,5.65799951171875,-0.00660046748816967,0.02356863021850586,-0.04344567283987999
1761468994323955700,5.667955810546875,0.004033124074339867,0.03628751263022423,-0.043173689395189285
1761468994333910800,5.677910888671875,0.011807424016296864,0.04647863283753395,-0.03873872384428978
1761468994343866600,5.68786669921875,0.017680371180176735,0.05304209887981415,-0.03532809019088745
1761468994353821700,5.69782177734375,0.02355104498565197,0.048321645706892014,-0.03525059297680855
1761468994363777500,5.707777587890625,0.0277478639036417,0.033963628113269806,-0.03843969479203224
1761468994373732600,5.717732666015625,0.03407180681824684,0.018810775130987167,-0.03604152053594589
1761468994383688700,5.727688720703125,0.04278773441910744,0.01472384948283434,-0.027070507407188416
1761468994393643500,5.7376435546875,0.04823070392012596,0.016248509287834167,-0.014370424672961235
1761468994403599600,5.747599609375,0.050195083022117615,0.009477055631577969,-0.0013831332325935364
1761468994413554700,5.7575546875,0.05082571879029274,0.004409060347825289,0.010937448590993881
1761468994423510500,5.767510498046875,0.04272032529115677,0.009736381471157074,0.03385024517774582
1761468994433465600,5.777465576171875,0.03374573960900307,0.016489624977111816,0.05377442017197609
1761468994443421700,5.787421630859375,0.030611146241426468,0.014181054197251797,0.0654166042804718
1761468994453376800,5.797376708984375,0.0290654469281435,0.003500979160889983,0.07296933233737946
1761468994463331600,5.80733154296875,0.02388026937842369,0.006856854539364576,0.08153711259365082
1761468994473287700,5.81728759765625,0.021754799410700798,0.008124252781271935,0.08053283393383026
1761468994483242800,5.82724267578125,0.019669631496071815,0.007179912645369768,0.07325343042612076
1761468994493198600,5.837198486328125,0.01145085133612156,0.005320493597537279,0.05562197417020798
1761468994503153700,5.847153564453125,-0.0002669710956979543,0.0052110543474555016,0.03336203098297119
1761468994513109800,5.85710986328125,-0.007522753439843655,0.015843726694583893,0.01782967522740364
1761468994523064600,5.867064697265625,-0.014407198876142502,0.022400926798582077,0.00039165792986750603
1761468994533020700,5.877020751953125,-0.012932606972754002,0.020698901265859604,-0.01647227630019188
1761468994542975700,5.886975830078125,-0.004970310255885124,0.020297875627875328,-0.031640421599149704
1761468994552931600,5.896931640625,0.006872500292956829,0.022461427375674248,-0.04438338056206703
1761468994562886700,5.90688671875,0.012717335484921932,0.022499537095427513,-0.056367211043834686
1761468994572842500,5.916842529296875,0.008515666238963604,0.012866618111729622,-0.06589440256357193
1761468994582797800,5.9267978515625,0.0066630542278289795,0.00602211058139801,-0.06802993267774582
1761468994592753700,5.936753662109375,0.008028456941246986,0.0018995373975485563,-0.057769037783145905
1761468994602708500,5.94670849609375,0.012672807089984417,-0.0008679543389007449,-0.039187122136354446
1761468994612663800,5.956663818359375,0.023024246096611023,-0.003885049605742097,-0.014911875128746033
1761468994622619600,5.96661962890625,0.031023196876049042,-0.007089521735906601,0.006872968748211861
1761468994632574500,5.976574462890625,0.03528585284948349,-0.005412529222667217,0.027646690607070923
1761468994642530600,5.986530517578125,0.030922260135412216,-0.003546958789229393,0.04908712953329086
1761468994652485600,5.996485595703125,0.02432560920715332,0.00745136383920908,0.061626091599464417
1761468994662441700,6.006441650390625,0.014913941733539104,0.02181926742196083,0.06836099177598953
1761468994672396500,6.016396484375,0.0018921499140560627,0.023811310529708862,0.05985032767057419
1761468994682352600,6.0263525390625,-0.0096758883446455,0.022895142436027527,0.04387257993221283
1761468994692307700,6.0363076171875,-0.019995637238025665,0.013433997519314289,0.019653528928756714
1761468994702263600,6.046263671875,-0.029001999646425247,-0.000939658610150218,-0.0072086588479578495
1761468994712219000,6.056218994140625,-0.03811054304242134,-0.007023117505013943,-0.02585211768746376
1761468994722174700,6.0661748046875,-0.04190634563565254,0.005614913534373045,-0.031164325773715973
1761468994732129500,6.076129638671875,-0.04206320643424988,0.021383756771683693,-0.02656531147658825
1761468994742085600,6.086085693359375,-0.03951051086187363,0.02982553467154503,-0.022145960479974747
1761468994752040700,6.096040771484375,-0.036664120852947235,0.03609142079949379,-0.022068461403250694
1761468994761995500,6.10599560546875,-0.03245626762509346,0.03703507035970688,-0.028820805251598358
1761468994771951600,6.11595166015625,-0.02800665982067585,0.03456339240074158,-0.04115177318453789
1761468994781906700,6.12590673828125,-0.02195936255156994,0.03148462995886803,-0.05348198115825653
1761468994791862800,6.13586279296875,-0.01648843102157116,0.030737876892089844,-0.0646267756819725
1761468994801817600,6.145817626953125,-0.01812274567782879,0.024662980809807777,-0.06919717788696289
1761468994811773700,6.155773681640625,-0.02144024707376957,0.019838664680719376,-0.06552627682685852
1761468994821728800,6.165728759765625,-0.020139440894126892,0.02285461127758026,-0.0550936684012413
1761468994831684600,6.1756845703125,-0.026123031973838806,0.024080464616417885,-0.05020223930478096
1761468994841639700,6.1856396484375,-0.034581851214170456,0.0038042301312088966,-0.04996464401483536
1761468994851595500,6.195595458984375,-0.01777677610516548,-0.007491567637771368,-0.02597329206764698
1761468994861550600,6.205550537109375,-0.007012773770838976,-0.009660572744905949,0.005341481417417526
1761468994871506700,6.215506591796875,-0.0014371799770742655,-0.011899758130311966,0.029522716999053955
1761468994881461500,6.22546142578125,0.005005150102078915,-0.01529331598430872,0.03854915499687195
1761468994891417900,6.23541796875,0.007579628378152847,-0.024758189916610718,0.03417544811964035
1761468994901372700,6.24537255859375,0.007147817872464657,-0.02703753300011158,0.020791932940483093
1761468994911327500,6.255327392578125,0.0033027464523911476,-0.031093260273337364,0.009251656010746956
1761468994921283800,6.265283935546875,-0.001300807693041861,-0.03225671499967575,-0.0018168590031564236
1761468994931238700,6.27523876953125,-0.007040984928607941,-0.03689780458807945,-0.004909322131425142
1761468994941194800,6.28519482421875,-0.00640161894261837,-0.03605500981211662,0.0024904347956180573
1761468994951149800,6.29514990234375,-0.0034721416886895895,-0.02508518286049366,0.013862132094800472
1761468994961105700,6.305105712890625,0.0029875319451093674,-0.015712978318333626,0.027378516271710396
1761468994971060700,6.315060791015625,0.009884852916002274,-0.0060608829371631145,0.03029627539217472
1761468994981016600,6.3250166015625,0.01562666893005371,-0.0112984087318182,0.02892914041876793
1761468994990971600,6.3349716796875,0.02235647663474083,-0.006486342288553715,0.01953963376581669
1761468995000927700,6.344927734375,0.01816421188414097,0.0023308689706027508,-0.0007066968828439713
1761468995010882600,6.354882568359375,0.017225980758666992,0.00007756846025586128,-0.02771647647023201
1761468995020838700,6.364838623046875,0.01866689696907997,-0.010088407434523106,-0.05011693388223648
1761468995030793700,6.374793701171875,0.016214923933148384,-0.01622006855905056,-0.07001633942127228
1761468995040749300,6.384749267578125,0.016361219808459282,-0.014607533812522888,-0.07925702631473541
1761468995050704100,6.3947041015625,0.012763024307787418,-0.007628720253705978,-0.0807446613907814
1761468995060659200,6.4046591796875,0.009826267138123512,0.0015554657438769937,-0.07270826399326324
1761468995070615300,6.414615234375,0.005603025667369366,0.007574209477752447,-0.07098599523305893
1761468995080570000,6.424570068359375,-0.0001977289211936295,0.0055391560308635235,-0.0717364251613617
1761468995090526500,6.4345263671875,-0.004352259915322065,0.0021657301113009453,-0.06888311356306076
1761468995100481300,6.444481201171875,-0.005777072161436081,-0.0013786479830741882,-0.055725473910570145
1761468995110437400,6.454437255859375,-0.0022092354483902454,-0.009613142348825932,-0.03686683252453804
1761468995120392400,6.464392333984375,0.007788095623254776,-0.005932129453867674,-0.01013299822807312
1761468995130348300,6.474348388671875,0.015745088458061218,-0.006439461838454008,0.014380600303411484
1761468995140303400,6.484303466796875,0.020593319088220596,-0.0032472494058310986,0.028431210666894913
1761468995150259200,6.49425927734375,0.021670833230018616,0.0063385325483977795,0.03466087579727173
1761468995160214300,6.50421435546875,0.013682347722351551,-0.008059353567659855,0.03023059293627739
1761468995170170400,6.51417041015625,0.004761024843901396,-0.018697883933782578,0.01645619049668312
1761468995180125200,6.524125244140625,-0.0026964491698890924,-0.02242070622742176,0.0152024170383811
1761468995190081300,6.534081298828125,-0.006384394597262144,-0.009735272265970707,0.030049007385969162
1761468995200036400,6.544036376953125,-0.011685529723763466,0.01839708536863327,0.06355097144842148
1761468995209991200,6.5539912109375,-0.016239535063505173,0.03839663043618202,0.09289155155420303
1761468995219947300,6.563947265625,-0.020252205431461334,0.056102901697158813,0.09817091375589371
1761468995229902300,6.57390234375,-0.021103883162140846,0.05580329895019531,0.08074159175157547
1761468995239858400,6.5838583984375,-0.013485627248883247,0.03026728890836239,0.04735884070396423
1761468995249813200,6.593813232421875,-0.004661509767174721,-0.011050323024392128,0.008088398724794388
1761468995259769000,6.60376904296875,0.004317586310207844,-0.04320504143834114,-0.024639956653118134
1761468995269724400,6.613724365234375,0.013463679701089859,-0.04558777064085007,-0.04195689409971237
1761468995279680300,6.62368017578125,0.018955469131469727,-0.039328258484601974,-0.05275246500968933
1761468995289635000,6.633635009765625,0.013733010739088058,-0.03652394935488701,-0.05257429927587509
1761468995299591400,6.64359130859375,0.0018345629796385765,-0.026416772976517677,-0.038186460733413696
1761468995309546200,6.653546142578125,-0.01760305091738701,-0.029871691018342972,-0.02485441416501999
1761468995319502300,6.66350244140625,-0.03599261865019798,-0.014337240718305111,-0.0027468842454254627
1761468995329457400,6.67345751953125,-0.05139128118753433,0.011868264526128769,0.014817728661000729
1761468995339413200,6.683413330078125,-0.06280171126127243,0.028643865138292313,0.020889263600111008
1761468995349368300,6.693368408203125,-0.06636980921030045,0.03554997593164444,0.020154498517513275
1761468995359323100,6.7033232421875,-0.06509330123662949,0.025049487128853798,0.013108674436807632
1761468995369279500,6.713279541015625,-0.05530139431357384,0.014658632688224316,-0.0017168764024972916
1761468995379234300,6.723234375,-0.03984112665057182,0.007644176948815584,-0.01795954816043377
1761468995389190100,6.733190185546875,-0.021454928442835808,0.008003702387213707,-0.02741723321378231
1761468995399145500,6.7431455078125,-0.007192754186689854,0.01361426804214716,-0.03209821134805679
1761468995409101300,6.753101318359375,-0.0021990607492625713,0.014706163667142391,-0.03924666717648506
1761468995419056000,6.76305615234375,-0.006669853813946247,0.01589888520538807,-0.0467471182346344
1761468995429012200,6.77301220703125,-0.012427608482539654,0.015127367340028286,-0.04626188799738884
1761468995438967300,6.78296728515625,-0.019407695159316063,0.017767449840903282,-0.03933596983551979
1761468995448923400,6.79292333984375,-0.02042555622756481,0.01366165466606617,-0.02753603458404541
1761468995458878200,6.802878173828125,-0.02583002671599388,0.005999024026095867,-0.013507774099707603
1761468995468834300,6.812834228515625,-0.02648489736020565,0.009728248231112957,-0.009891733527183533
1761468995478789400,6.822789306640625,-0.027333712205290794,0.010631819255650043,-0.020167121663689613
1761468995488745200,6.8327451171875,-0.02628043107688427,-0.0005159067222848535,-0.03512530028820038
1761468995498700300,6.8427001953125,-0.029557060450315475,-0.016560254618525505,-0.05276000127196312
1761468995508655400,6.8526552734375,-0.023495173081755638,-0.025949228554964066,-0.06388801336288452
1761468995518611200,6.862611083984375,-0.014869099482893944,-0.02630532905459404,-0.0676048994064331
1761468995528566300,6.872566162109375,-0.0076391492038965225,-0.022708730772137642,-0.056706175208091736
1761468995538522400,6.8825224609375,-0.003076920285820961,-0.016231821849942207,-0.03948070481419563
1761468995548477200,6.892477294921875,-0.00048593085375614464,-0.009382970631122589,-0.031789764761924744
1761468995558433300,6.902433349609375,-0.004250543192028999,-0.003858610289171338,-0.017104972153902054
1761468995568388000,6.91238818359375,-0.00840906985104084,0.0014349548146128654,0.006759881041944027
1761468995578344400,6.922344482421875,-0.006768512539565563,0.005646622274070978,0.02900508977472782
1761468995588299300,6.93229931640625,-0.0011657543946057558,0.009126309305429459,0.04288442060351372
1761468995598255400,6.94225537109375,0.005357804242521524,0.0011795447207987309,0.046351779252290726
1761468995608210400,6.95221044921875,0.01572415977716446,-0.01355013344436884,0.046459369361400604
1761468995618166300,6.962166259765625,0.024667833000421524,-0.028356220573186874,0.03911599516868591
1761468995628121300,6.972121337890625,0.03806619718670845,-0.040704235434532166,0.028211684897542
1761468995638076400,6.982076416015625,0.05241799354553223,-0.04529184103012085,0.011719636619091034
1761468995648032300,6.9920322265625,0.05834512785077095,-0.04576508700847626,-0.0074125113897025585
1761468995657987300,7.0019873046875,0.053031761199235916,-0.040309593081474304,-0.018541287630796432
1761468995667943200,7.011943115234375,0.04326541721820831,-0.0257282517850399,-0.0276692695915699
1761468995677898200,7.021898193359375,0.03423810005187988,-0.018107084557414055,-0.03971661254763603
1761468995687854300,7.031854248046875,0.029751474037766457,-0.015635138377547264,-0.0586804524064064
1761468995697809200,7.04180908203125,0.025193391367793083,-0.023399095982313156,-0.08995496481657028
1761468995707765200,7.05176513671875,0.02367672137916088,-0.03017151542007923,-0.12091553956270218
1761468995717720300,7.06172021484375,0.02065349370241165,-0.026758089661598206,-0.13770891726016998
1761468995727676400,7.071676513671875,0.00779468659311533,-0.019293248653411865,-0.1404421180486679
1761468995737631200,7.08163134765625,-0.006158879026770592,-0.011557790450751781,-0.13421766459941864
1761468995747587300,7.09158740234375,-0.013142752461135387,-0.0067963250912725925,-0.12164141237735748
1761468995757542400,7.10154248046875,-0.01660645380616188,-0.0009448548080399632,-0.10482235252857208
1761468995767497200,7.111497314453125,-0.014383513480424881,0.016892997547984123,-0.08750514686107635
1761468995777453300,7.121453369140625,-0.008905358612537384,0.01830117776989937,-0.07101845741271973
1761468995787408400,7.131408447265625,-0.005894389469176531,0.016098743304610252,-0.043757010251283646
1761468995797364200,7.1413642578125,-0.0035951174795627594,0.03452228754758835,-0.006676455959677696
1761468995807319300,7.1513193359375,-0.005420181434601545,0.030906779691576958,0.028524408116936684
1761468995817275400,7.161275390625,-0.004778861068189144,0.027522599324584007,0.057846732437610626
1761468995827230200,7.171230224609375,-0.0057314736768603325,0.027280785143375397,0.07236308604478836
1761468995837186300,7.181186279296875,-0.003730246564373374,0.026249738410115242,0.07721052318811417
1761468995847141400,7.191141357421875,0.00093507906422019,0.02304648794233799,0.0672881230711937
1761468995857097500,7.201097412109375,0.004110807552933693,0.024380741640925407,0.047835368663072586
1761468995867052300,7.21105224609375,0.006652262061834335,0.015165671706199646,0.03029712289571762
1761468995877008100,7.221008056640625,0.0018655769526958466,0.0055248066782951355,0.012352955527603626
1761468995886963500,7.23096337890625,-0.006140417419373989,-0.004222895484417677,-0.010277521796524525
1761468995896919300,7.240919189453125,-0.012014818377792835,-0.006892714183777571,-0.02599097043275833
1761468995906874000,7.2508740234375,-0.01493231114000082,0.0013183439150452614,-0.024217572063207626
1761468995916829400,7.260829345703125,-0.014648950658738613,0.016720470041036606,-0.009619987569749355
1761468995926785300,7.270785400390625,-0.012749850749969482,0.02108938619494438,-0.0005806863773614168
1761468995936740400,7.280740234375,-0.014325733296573162,0.011041553691029549,0.0008848935831338167
1761468995946696200,7.2906962890625,-0.015083402395248413,-0.011678139679133892,0.002569076605141163
1761468995956651300,7.3006513671875,-0.01828884519636631,-0.017593618482351303,0.013346914201974869
1761468995966607400,7.310607421875,-0.02028168924152851,-0.009006522595882416,0.02700866386294365
1761468995976562200,7.320562255859375,-0.02738904021680355,0.0010711108334362507,0.041234031319618225
1761468995986518300,7.330518310546875,-0.027819674462080002,0.008398531936109066,0.04505594074726105
1761468995996473300,7.340473388671875,-0.027512574568390846,0.0037770215421915054,0.03428397700190544
1761468996006429200,7.35042919921875,-0.023178279399871826,0.0047818319872021675,0.015652501955628395
1761468996016384300,7.36038427734375,-0.015758514404296875,0.002546336269006133,0.0038564486894756556
1761468996026340400,7.37034033203125,-0.01250386517494917,-0.006784048397094011,-0.004683243576437235
1761468996036295400,7.38029541015625,-0.005935972556471825,-0.006659971550107002,-0.007865581661462784
1761468996046251300,7.390251220703125,0.0009749302407726645,0.0015947624342516065,0.0016256571980193257
1761468996056206300,7.400206298828125,0.0027881329879164696,0.010552194900810719,0.019774645566940308
1761468996066161400,7.410161376953125,0.0007255146047100425,0.01829933188855648,0.04535564035177231
1761468996076117200,7.4201171875,-0.0048377434723079205,0.019396305084228516,0.06333046406507492
1761468996086072300,7.430072265625,-0.006063596811145544,0.03324980288743973,0.06436403840780258
1761468996096028400,7.4400283203125,-0.0020282375626266003,0.029962023720145226,0.050812188535928726
1761468996105983200,7.449983154296875,0.005417961161583662,0.016313057392835617,0.03755230829119682
1761468996115939300,7.459939208984375,0.010843684896826744,-0.007525389548391104,0.025931451469659805
1761468996125894400,7.469894287109375,0.01364346593618393,-0.025584284216165543,0.011289391666650772
1761468996135850500,7.4798505859375,0.02013353630900383,-0.0385739728808403,-0.0038575674407184124
1761468996145805300,7.489805419921875,0.019811291247606277,-0.05344266816973686,-0.023731140419840813
1761468996155761200,7.49976123046875,0.02058115415275097,-0.04779339209198952,-0.032008614391088486
1761468996165716500,7.509716552734375,0.01134904008358717,-0.045917462557554245,-0.02360234595835209
1761468996175672300,7.51967236328125,-0.004167696926742792,-0.031932901591062546,-0.00778220035135746
1761468996185627100,7.529627197265625,-0.016743144020438194,-0.008763134479522705,0.009886008687317371
1761468996195582500,7.53958251953125,-0.02821326069533825,0.006238101981580257,0.02178841456770897
1761468996205538300,7.549538330078125,-0.04253334552049637,0.012250986881554127,0.018335891887545586
1761468996215493400,7.559493408203125,-0.048977065831422806,0.01679919846355915,0.005742045119404793
1761468996225449200,7.56944921875,-0.054993145167827606,0.01508012879639864,-0.016007989645004272
1761468996235404300,7.579404296875,-0.05828608572483063,0.006650250405073166,-0.03884609416127205
1761468996245360400,7.5893603515625,-0.06262677162885666,0.00649259053170681,-0.05227881297469139
1761468996255315200,7.599315185546875,-0.07158501446247101,0.018600083887577057,-0.050681617110967636
1761468996265271600,7.609271484375,-0.08570802956819534,0.035626474767923355,-0.04373529180884361
1761468996275226400,7.619226318359375,-0.09471850097179413,0.040768299251794815,-0.038868922740221024
1761468996285182200,7.62918212890625,-0.09347347915172577,0.04135259613394737,-0.031095154583454132
1761468996295137300,7.63913720703125,-0.08596567809581757,0.03414562717080116,-0.028277724981307983
1761468996305093400,7.64909326171875,-0.07596098631620407,0.038011468946933746,-0.024241704493761063
1761468996315048200,7.659048095703125,-0.0692308098077774,0.04587598517537117,-0.015508697368204594
1761468996325004300,7.66900439453125,-0.06798870861530304,0.05677150934934616,-0.0043428619392216206
1761468996334959400,7.67895947265625,-0.0565824881196022,0.08335921168327332,0.01636418327689171
1761468996344914400,7.68891455078125,-0.04373753070831299,0.1111474335193634,0.06083071604371071
1761468996354870300,7.698870361328125,-0.048568274825811386,0.09741177409887314,0.10721366852521896
1761468996364825300,7.708825439453125,-0.027151664718985558,0.022050978615880013,0.08508093655109406
1761468996374781400,7.718781494140625,0.009370098821818829,-0.026848046109080315,0.05938544496893883
1761468996384736300,7.728736328125,0.020710637792944908,-0.060251008719205856,0.04212549701333046
1761468996394692400,7.7386923828125,0.020689478144049644,-0.08093567192554474,0.03314657136797905
1761468996404647400,7.7486474609375,0.02114088274538517,-0.08361321687698364,0.02495681867003441
1761468996414603300,7.758603271484375,0.015067105181515217,-0.07874312996864319,0.020972559228539467
1761468996424558300,7.768558349609375,0.004083696752786636,-0.0689602717757225,0.011746305041015148
1761468996434514200,7.77851416015625,0.001968167256563902,0.01744760386645794,0.01338157057762146
