time,seconds_elapsed,z,y,x
1761508320289797600,0.109797607421875,0.031055647999048232,0.005026632522977888,-0.0028288758835289625
1761508320299769300,0.119769287109375,0.02671908009946346,0.0008694215119816362,0.00045255693993531167
1761508320309740500,0.129740478515625,0.02372808158993721,0.000029043431393802163,0.005229562083398923
1761508320319711500,0.13971142578125,0.021635493224859238,0.0024734591751359404,0.00277626891345717
1761508320329683500,0.149683349609375,0.02806932566463947,0.006321951296832412,-0.0035926998628769066
1761508320339654400,0.159654296875,0.03540215277075767,0.0019957221281714736,0.002512019353546202
1761508320349626600,0.169626708984375,0.021338556104898453,0.0014228358773514629,0.005528015307011082
1761508320359597600,0.17959765625,0.031217560562491416,0.008397533728182315,0.005560355807188898
1761508320369568500,0.189568603515625,0.03496551491916179,0.008140161433629691,-0.002340918836649507
1761508320379540500,0.19954052734375,0.024798341169953345,-0.002801302890013903,0.00029508308959193524
1761508320389511700,0.20951171875,0.01642389605641365,0.0048624914698302745,-0.001179656504932791
1761508320399482400,0.219482421875,0.014037293180823326,0.0008986293401569128,0.005050333058973774
1761508320409454600,0.22945458984375,0.024366964015364645,0.0038947606825269756,0.000778053434100002
1761508320419425500,0.239425537109375,0.02810907315313816,0.0029327107173390686,-0.0026786537578795105
1761508320429397500,0.2493974609375,0.027960604593157766,-0.0026249782087281346,0.002980550180748105
1761508320439368400,0.259368408203125,0.023026070800423622,0.0028510603158734735,0.007981144080171362
1761508320449339400,0.26933935546875,0.019659224715828896,-0.0078006272809579965,0.009402399921789765
1761508320459311400,0.279311279296875,0.026013562178611754,0.0037725225423462685,0.011234254991449415
1761508320469282300,0.2892822265625,0.03052490212321281,-0.0035677206852473315,-0.0010610807597171514
1761508320479253500,0.29925341796875,0.02635316939651966,-0.008521123575232922,0.004162873566802591
1761508320489225500,0.3092255859375,0.032495909935235975,-0.0025394188171252606,0.009294528233679012
1761508320499196400,0.319196533203125,0.025755203503370284,-0.0015378770917654036,-0.0013765581833664327
1761508320509168400,0.32916845703125,0.024847441008687018,-0.0018481486173346638,-0.006647511723078787
1761508320519139600,0.3391396484375,0.026361352702975273,-0.0006001030513085424,-0.0031872060682158914
1761508320529110500,0.349110595703125,0.020826514929533003,0.006028777036536485,0.00084457019851543
1761508320539082500,0.35908251953125,0.01740297022163868,0.0011923333234153688,-0.002495123017672449
1761508320549053400,0.369053466796875,0.01469546482861042,-0.0008542604754678905,0.005466266049258411
1761508320559024600,0.379024658203125,0.02111819135248661,-0.0065731495789252215,-0.0007176832826808094
1761508320568996400,0.388996337890625,0.026658289822936058,-0.0031866124131716784,-0.009392225587647407
1761508320578967600,0.398967529296875,0.015576923838257789,-0.0009461948089301586,0.002336671919794753
1761508320588939500,0.408939453125,0.0206523274064064,0.0018910196446813641,-0.0006211275730282068
1761508320598910500,0.418910400390625,0.021098317608237264,-0.0035770365028642117,0.0033061654059216377
1761508320608881400,0.42888134765625,0.025448914033174515,0.0033869390245527026,0.0005999660539906472
1761508320618853600,0.438853515625,0.01961363200843334,0.0023001667011529206,-0.004482396977907047
1761508320628824600,0.448824462890625,0.022160978403687477,-0.002843772058561444,-0.006953244070848449
1761508320638796500,0.458796630859375,0.03218026811480522,-0.0009210055687464773,0.0023647381036542353
1761508320648767500,0.468767578125,0.025886720928549763,0.0019416173207573591,0.00019705694206058978
1761508320658738400,0.478738525390625,0.020199907463788986,-0.0028245741677470505,-0.001660307028191164
1761508320668710400,0.48871044921875,0.017508184161782264,-0.0032195283020846543,0.00015676146429032087
1761508320678681300,0.498681396484375,0.021549568507075307,-0.007246080404426902,0.0006315393691882491
1761508320688652500,0.508652587890625,0.01541910292804241,-0.00047605654653161763,0.0035300281565170733
1761508320698624300,0.518624267578125,0.017362638211250305,-0.002206825861893594,0.0013872713736258447
1761508320708595500,0.528595458984375,0.023189736929535864,0.004425926683470607,-0.002016125595383346
1761508320718567400,0.5385673828125,0.019147183540463446,-0.000052588703762739896,-0.008542696086224167
1761508320728538600,0.54853857421875,0.009271101692318916,0.0053970915368758135,-0.008488015890074894
1761508320738509300,0.55850927734375,0.02258124964237213,0.00440380618320778,0.0004537533831782639
1761508320748481500,0.5684814453125,0.020781506744027137,-0.0009491904836148023,-0.0025600688795093447
1761508320758452500,0.578452392578125,0.02122282077074051,-0.0008475384737364947,-0.0029083799936808646
1761508320768424400,0.588424560546875,0.02391279050707817,0.0002458827861584723,0.003656814607651904
1761508320778395400,0.5983955078125,0.0351350262671709,-0.0021404826274141666,-0.0021693068630993365
1761508320788366600,0.60836669921875,0.020469956576824187,-0.000673880673572421,-0.0030677261407021433
1761508320798338300,0.61833837890625,0.019271686702966688,-0.002092606631387025,-0.0037476164299529045
1761508320808309500,0.6283095703125,0.014032617005705832,-0.0026816402994096276,0.004719155742693692
1761508320818280400,0.638280517578125,0.01627835010588169,-0.0044490152981132266,0.005105223317677154
1761508320828252700,0.648252685546875,0.01746785215139389,-0.001340692285541445,0.001808328063599765
1761508320838223400,0.658223388671875,0.03063303867280483,0.00411925362078473,-0.0007784187602810561
1761508320848195600,0.668195556640625,0.014472177466750145,0.0015416764840483666,0.000995093718264252
1761508320858166500,0.67816650390625,0.013422376152873039,0.0013453684606589376,0.003116049661301076
1761508320868137500,0.688137451171875,0.02493921094536781,0.00042918519750237465,-0.0027299272873904552
1761508320878109400,0.698109375,0.018656185153126715,0.0009969203491695224,-0.0012776643861550838
1761508320888080600,0.70808056640625,0.021649521750211714,-0.0002826163336634636,0.0035070674060378223
1761508320898052400,0.71805224609375,0.017163900768756866,0.0024292547072283922,0.0019673271507490426
1761508320908023600,0.7280234375,0.025386370190978048,0.002814180637896061,-0.007295783031359315
1761508320917994500,0.737994384765625,0.023891747719049453,-0.00002445858782157302,-0.01078781726504676
1761508320927966700,0.747966796875,0.024192776492238045,-0.005598897719290107,0.00035306035452522334
1761508320937937400,0.7579375,0.025094109246134755,0.007584116719756275,-0.0014868318911176175
1761508320947908400,0.767908447265625,0.013718728750944136,0.002625745393708348,-0.002204542573262006
1761508320957880600,0.777880615234375,0.007281973701715469,0.0018956410208716987,0.0019763781068846582
1761508320967851500,0.7878515625,0.015964461851119993,-0.0019181633799336848,0.000490715259546414
1761508320977823500,0.797823486328125,0.02539338445365429,-0.0027914938820526,0.004378479945706204
1761508320987794400,0.80779443359375,0.023294366347789763,0.002647482301481068,0.0037017862605396657
1761508320997765600,0.817765625,0.017309446719288826,0.0026710458401590586,-0.004996091254241764
1761508321007737300,0.8277373046875,0.02942717001438141,0.0023623086845502256,0.007106434471718967
1761508321017708500,0.83770849609375,0.023742694637179373,0.006299228008370846,0.00027601306294091043
1761508321027680500,0.847680419921875,0.020600304958224295,0.0027986360088922083,0.0015252185395918786
1761508321037651500,0.8576513671875,0.01790390548110008,-0.0021704393742606044,0.005031491361185908
1761508321047622400,0.867622314453125,0.015059621965885162,-0.005083879135549068,0.01217384652965702
1761508321057594600,0.8775947265625,0.022990999487042425,0.004070500841923058,-0.0051359015837311745
1761508321067565600,0.887565673828125,0.02359481059908867,0.0036319084952585396,0.001582666081562638
1761508321077537500,0.89753759765625,0.014467501291632651,0.0038971901016309853,-0.003171149982558563
1761508321087508500,0.907508544921875,0.02075344969332218,-0.0031789222970604893,0.0011248758440837263
1761508321097479700,0.917479736328125,0.01476911458671093,-0.0028685594399459656,0.0014848591297399252
1761508321107451400,0.927451416015625,0.01986205381155014,-0.003946417804528027,0.004529533188417554
1761508321117422600,0.937422607421875,0.016569442006945607,-0.0001825534926727414,0.013351694669993594
1761508321127393500,0.9473935546875,0.014324877950549125,-0.0036447679768316444,0.002121293869754299
1761508321137365500,0.957365478515625,0.018363339686393736,-0.006539740499667823,0.004987122496496885
1761508321147336400,0.96733642578125,0.018066987088322637,0.0005177767964079976,0.004241957551846281
1761508321157308700,0.97730859375,0.014326631516218184,0.006068414927180856,-0.00213456434328109
1761508321167279400,0.987279296875,0.0156722009062767,0.0030921938616782427,-0.004691372686624526
1761508321177250300,0.997250244140625,0.03063303867280483,0.005450027300510555,-0.0035951749477535484
1761508321187222500,1.007222412109375,0.02180617361664772,0.00020779753178358076,0.005281767194671556
1761508321197193500,1.017193359375,0.0120820674598217,-0.004708360354043543,0.010161018003057689
1761508321207165400,1.02716552734375,0.009986556485295296,0.0028020335423760115,0.013011375066032633
1761508321217136400,1.037136474609375,0.013123685467243193,-0.005849347082711756,-0.0048471934359986335
1761508321227107600,1.047107666015625,0.020309213057160377,-0.0034494646004401145,0.0028124727379996326
1761508321237079300,1.057079345703125,0.01956044051647186,0.0009343947732821106,0.0021654252724256366
1761508321247050500,1.067050537109375,0.01926291887462139,0.006826338888704776,-0.002899392969626933
1761508321257021400,1.077021484375,0.01477729789316654,0.006669942750595509,0.004734188915044069
1761508321266993400,1.086993408203125,0.020612579917907714,0.00491957368561998,0.0004956471629906445
1761508321276964400,1.09696435546875,0.023455109867453573,0.003203399151191115,0.0029899847293738276
1761508321286936600,1.1069365234375,0.02749824777841568,0.0026934768676757813,-0.0019123090278822927
1761508321296907500,1.116907470703125,0.00938859059214592,-0.0022680910624563694,0.0011408588645048438
1761508321306878500,1.12687841796875,0.02330488774180412,0.0015101305683143437,-0.0060938142299186435
1761508321316850400,1.136850341796875,0.013577274453639984,0.0026214893436990678,-0.010780538140889256
1761508321326821600,1.146821533203125,0.02405482932627201,-0.0009693930214270948,-0.00012617452978156505
1761508321336793300,1.15679345703125,0.012387187886238098,-0.0011440554685890674,0.0013318057261873036
1761508321346764500,1.1667646484375,0.022265023300051687,0.0014137757880613208,0.002455795654281974
1761508321356735500,1.176735595703125,0.02929799067676067,0.007073226321861147,0.0031229177935048935
1761508321366707500,1.18670751953125,0.026153262910246847,0.0006786299139261245,-0.0038166174123995004
1761508321376678400,1.196678466796875,0.02061842513680458,0.001988196408841759,-0.0015030341072473673
1761508321386650600,1.206650634765625,0.010144377395510672,0.0014487923025153576,-0.0057266522848047315
1761508321396621600,1.21662158203125,0.01837327655851841,0.004746518673654645,-0.011044084447901696
1761508321406592300,1.22659228515625,0.02300736609995365,0.00023689576210454106,0.004488580123521387
1761508321416564500,1.236564453125,0.013879472270607948,-0.00042127588568255305,0.003375714377639815
1761508321426535400,1.246535400390625,0.029887773263454435,0.005879979682993143,-0.003090787355881184
1761508321436506600,1.256506591796875,0.015223872616887091,0.002833469860255718,-0.000794100386602804
1761508321446478300,1.266478271484375,0.024201544320583343,-0.0006570391366258263,0.0037710703707765788
1761508321456449500,1.276449462890625,0.026745968106389045,-0.003954327116347849,-0.010149884687690064
1761508321466421200,1.286421142578125,0.023605916514992713,-0.004162910099420696,-0.001393436252931133
1761508321476392400,1.296392333984375,0.015080664753913878,-0.0023469284523278473,0.004013418626133352
1761508321486363400,1.30636328125,0.014632920986413955,0.0020133673827163875,-0.00011435622782446443
1761508321496335600,1.316335693359375,0.015379355439543723,0.004179057516623288,0.0033312724477145817
1761508321506306300,1.326306396484375,0.013732757276296614,0.0010432254426181317,0.002458626932185143
1761508321516278500,1.336278564453125,0.020471710142493247,0.009400555024575442,-0.0040755514763761306
1761508321526249500,1.34624951171875,0.014786650243401527,0.008167396500427275,0.0055398975410498675
1761508321536220700,1.356220703125,0.01822597704231739,0.0029561281255446373,0.013607989252312108
1761508321546192400,1.3661923828125,0.017326982375979422,0.002129997766017914,-0.0013977836344856768
1761508321556163600,1.37616357421875,0.020769231784343718,-0.00186290779504925,-0.00045286746718920765
1761508321566135300,1.38613525390625,0.01822597704231739,0.002795603801589459,-0.0026077713456004858
1761508321576106500,1.3961064453125,0.01418868435025215,0.0020909626635722814,-0.0005786218718625605
1761508321586077400,1.406077392578125,0.022269114953279493,-0.0011875658167526126,-0.009259776580706237
1761508321596049700,1.416049560546875,0.018529343903064727,-0.00004782119709998369,-0.00029169468926265834
1761508321606020400,1.426020263671875,0.023172201272845267,0.000630297260172665,0.004635833973949775
1761508321615991300,1.4359912109375,0.018834464329481125,0.0031491299469955263,0.002735973435686901
1761508321625963500,1.445963623046875,0.006112345400452614,-0.005781706940289587,-0.0002774013024289161
1761508321635934500,1.4559345703125,0.017635025411844252,0.004178783521987498,0.0026165939728729423
1761508321645906400,1.465906494140625,0.016291209587454794,-0.0015130349114537238,-0.0034965916777960956
1761508321655877400,1.47587744140625,0.023472645524144173,0.002139112654235214,-0.0002152775853406638
1761508321665848600,1.4858486328125,0.014189853394031523,0.0065390281136147674,0.004031310475850478
1761508321675820300,1.4958203125,0.02256780563890934,-0.004223371582385152,0.004313981608441099
1761508321685791500,1.50579150390625,0.02466390113532543,-0.008175415410101413,0.006714211150584742
1761508321695763500,1.515763427734375,0.017635025411844252,-0.000005626023188233375,0.004578267700970173
1761508321705734400,1.525734375,0.0186830731600523,-0.0030567024231888352,-0.0009924999023787676
1761508321715705300,1.535705322265625,0.019435352832078933,0.0016892317285761237,-0.00562510987278074
1761508321725677600,1.545677490234375,0.01853752720952034,-0.004014131012186408,-0.002622247395524755
1761508321735648500,1.5556484375,0.024524784925580023,0.0007189801906235516,0.00346492703105323
1761508321745620500,1.565620361328125,0.022731471768021583,0.004382251938525587,-0.00602588182655163
1761508321755591400,1.57559130859375,0.026773440635204315,0.002980294452421367,-0.006816986538469791
1761508321765562600,1.585562744140625,0.026920155629515646,0.0002884615525603294,0.005011316222837195
1761508321775534300,1.595534423828125,0.018394319346547127,0.004714881426375359,0.0005003507375717163
1761508321785505500,1.605505615234375,0.016001871252059936,-0.008099683292768896,0.006803295939834788
1761508321795476500,1.6154765625,0.01854629503786564,-0.008566935478337109,0.005007261102227494
1761508321805448400,1.625448486328125,0.018093290573358536,-0.004621905913297086,-0.006969464553287253
1761508321815419400,1.63541943359375,0.023483751440048217,0.00413107192274183,-0.003380061759194359
1761508321825391600,1.6453916015625,0.026771687069535255,-0.0027808628901839255,0.0016660974481608718
1761508321835362600,1.655362548828125,0.018991700717806814,-0.004202328794356436,0.0021687132080551235
1761508321845333200,1.665333251953125,0.015101707541942596,-0.0031549021006561815,0.005115945641091093
1761508321855305500,1.675305419921875,0.01211129355430603,-0.0020462650053203104,0.0013222067807801066
1761508321865276400,1.6852763671875,0.01285889705121517,-0.002180814637802541,0.0025481227133888748
1761508321875248400,1.695248291015625,0.021834230667352676,-0.006502239767182618,0.0012921769686974585
1761508321885219300,1.70521923828125,0.017342179945111273,-0.0010017609210684895,0.0009133428520988672
1761508321895190500,1.7151904296875,0.017489479461312293,-0.003590352642163634,-0.004759862212417647
1761508321905162200,1.725162353515625,0.0249701906055212,0.00406153208417818,0.005445561187947169
1761508321915133400,1.735133544921875,0.02212590709030628,-0.00034210970224812624,0.0018159725139383226
1761508321925105400,1.74510546875,0.011053308933973311,-0.0058384603625163435,0.0002055416426155716
1761508321935076400,1.755076416015625,0.015393968486785889,-0.008284976731799542,0.007385315345181152
1761508321945047300,1.76504736328125,0.019136077624559402,-0.007456617882568389,-0.00008575118784792721
1761508321955019500,1.77501953125,0.02257423537969589,0.0011590703746303915,-0.004935766768595203
1761508321964990500,1.784990478515625,0.021529694762825964,0.005821637091878802,0.003698589656455442
1761508321974961400,1.79496142578125,0.029613632497191428,0.006837152543663978,0.0019403478122781961
1761508321984933400,1.804933349609375,0.024079963767528533,0.0011115779710933566,-0.005912621577270329
1761508321994904600,1.814904541015625,0.01764379324018955,0.0014807583433575928,0.003358945905929431
1761508322004876300,1.824876220703125,0.006121697750687599,-0.0017664251506328583,0.0028365294670220464
1761508322014847500,1.834847412109375,0.0230313314974308,-0.007755600829143077,-0.0016891495301853865
1761508322024818400,1.844818359375,0.01630056193768978,-0.0025920988524332643,0.004066171726677567
1761508322034790400,1.854790283203125,0.02228723513185978,0.0007993884830735623,0.00046803763685747976
1761508322044761300,1.86476123046875,0.024686697489023208,-0.004257036389969289,-0.003026572146406397
1761508322054733600,1.874733642578125,0.02020049198567867,0.004284070527367294,0.0037083529986441134
1761508322064704500,1.88470458984375,0.016909633746743202,0.0021357151207514104,-0.00405812541753985
1761508322074675500,1.894675537109375,0.020500936236977577,0.003414612482767552,-0.00043193427701480685
1761508322084647400,1.9046474609375,0.02498947982788086,0.008424385202489794,-0.0015608835080172865
1761508322094618600,1.91461865234375,0.030071897658705708,0.001307721597701311,-0.0021042696697171777
1761508322104590300,1.92459033203125,0.021391163074970243,-0.0038936281713657078,0.0018730638628825544
1761508322114561500,1.9345615234375,0.01301145726442337,-0.006918072292767465,-0.0028878486623056233
1761508322124532500,1.944532470703125,0.02228723513185978,0.002087218070216477,-0.000723829895677045
1761508322134504400,1.95450439453125,0.016753566402196884,0.0008543518070131539,0.0013932809893041848
1761508322144475400,1.964475341796875,0.017052841609716415,0.002509973526932299,0.0037471141064539548
1761508322154446300,1.9744462890625,0.03007365122437477,-0.00034273075675591826,0.0030106165254488587
1761508322164418800,1.984418701171875,0.01631108333170414,-0.004284417587239295,0.0034891481568571176
1761508322174389500,1.994389404296875,0.008829787665605545,0.009050554276816546,0.002943131646653637
1761508322184361700,2.00436181640625,0.02783551690876484,0.011400058278720825,-0.0057741264220327135
1761508322194332700,2.014332763671875,0.016020575952529908,0.007769117897842079,0.004058143683848902
1761508322204303600,2.0243037109375,0.016468904241919515,-0.002244271795451641,-0.0028083536853082476
1761508322214275600,2.034275634765625,0.014973697248101233,0.00045143356192857024,-0.006471397104347124
1761508322224246500,2.04424658203125,0.005396890607476234,0.002130235228035599,0.000057694137142971154
1761508322234218500,2.054218505859375,0.01886427494585514,-0.0017149506917223333,0.004355966719798743
1761508322244189400,2.064189453125,0.01647124232947826,0.003793072140030563,0.005058351968647912
1761508322254160600,2.07416064453125,0.019015666115283963,-0.003019841011520475,-0.001013624888798222
1761508322264132600,2.084132568359375,0.025451836642622946,0.0005995367957279086,-0.0017158274745568633
1761508322274103600,2.094103515625,0.022614567390084266,0.002961735882423818,-0.0022886497932951898
1761508322284075500,2.104075439453125,0.016030512824654577,-0.0038080322471447286,-0.0014962755728978663
1761508322294046700,2.114046630859375,0.017676526466012,0.001528798736166209,0.004548785878159106
1761508322304017700,2.124017578125,0.01872398969233036,-0.001902454354148358,-0.0020421733520925044
1761508322313989600,2.13398974609375,0.016032850912213324,0.004574322178214788,-0.012439922720473258
1761508322323960600,2.143960693359375,0.0214192201256752,-0.003463767120428383,0.0007202222996391355
1761508322333931800,2.153931884765625,0.011242694026231764,0.003722765116486698,-0.0007260218527633697
1761508322343903500,2.163903564453125,0.01333820500075817,0.006274148366041481,0.0026740780474618074
1761508322353874700,2.173874755859375,0.022614567390084266,0.0036299905328080057,0.002378803161624819
1761508322363846700,2.1838466796875,0.023064064723253248,-0.003996540556568652,0.003235547855123877
1761508322373817600,2.193817626953125,0.02097089183628559,-0.007341156543046235,-0.007566316201584413
1761508322383788500,2.20378857421875,0.018428221616148946,0.0035223471735604107,-0.003083791359513998
1761508322393760800,2.2137607421875,0.009297989699244499,0.003749287797231227,-0.005264039741735905
1761508322403731700,2.223731689453125,0.01618248851597309,0.0008838518961332738,-0.004891754096932709
1761508322413703700,2.23370361328125,0.02441080315709114,0.0013049451187252998,0.0033085126266349106
1761508322423674600,2.243674560546875,0.009146598529815673,-0.00038236864740028974,0.005930001970333978
1761508322433645800,2.253645751953125,0.007201894202828407,-0.000420965358428657,-0.00441447370769456
1761508322443617500,2.263617431640625,0.017675357422232627,-0.0054610601511783895,-0.010231836483255027
1761508322453588700,2.273588623046875,0.019169395372271535,-0.004105005899723619,-0.007531272287666797
1761508322463559700,2.2835595703125,0.02635492296218872,0.0010203742899931967,0.0009698588123079389
1761508322473531600,2.29353173828125,0.022766543081402777,0.001589004490803927,0.0008740520213264972
1761508322483502600,2.303502685546875,0.020521394503116606,0.005617291892506182,0.003008013576408848
1761508322493474800,2.313474853515625,0.014383330139517782,0.0015901004693470895,0.00015781177706085145
1761508322503445500,2.323445556640625,0.023209610673785207,0.00799534613545984,0.0010861421357374638
1761508322513416400,2.33341650390625,0.014980126988887786,0.005360705049242824,-0.0035894301935564723
1761508322523388700,2.343388671875,0.02111293065547943,-0.004598177977837622,-0.003811712908418849
1761508322533359600,2.353359619140625,0.02186053415238857,-0.0004323452689684927,0.0012498904632404445
1761508322543331600,2.36333154296875,0.017674188378453255,0.006300999840348959,-0.0018996687420178204
1761508322553302500,2.373302490234375,0.013483166429400444,0.0034764074062928556,0.0002298267005011439
1761508322563273700,2.383273681640625,0.013181553134322165,0.000559223051648587,-0.0015033537676557899
1761508322573245400,2.393245361328125,0.03293780848383903,0.002398969166819006,0.0007596044619567692
1761508322583216600,2.403216552734375,0.018576105654239655,0.00542001575473696,-0.0029127730410080403
1761508322593188600,2.413188720703125,0.02007540430128574,-0.0008879800819791853,-0.0022536332788411525
1761508322603159600,2.42315966796875,0.01708089866042137,0.0029202348282560704,-0.0007333831753116101
1761508322613130500,2.433130615234375,0.016337386816740036,-0.005899268905352801,-0.0030738088216166943
1761508322623102700,2.443102783203125,0.02172375603020191,0.0017550452400930225,0.006047116410825401
1761508322633073700,2.45307373046875,0.01678103893101215,0.0003011018384248018,0.003985078447638079
1761508322643044600,2.463044677734375,0.021571195816993714,-0.005576137898210436,-0.0022115568359382448
1761508322653016600,2.4730166015625,0.01872866586744785,-0.0021301986954174934,-0.007627700133156031
1761508322662987800,2.48298779296875,0.01319090548455715,0.0022741189444437622,0.0008837422982789576
1761508322672959500,2.49295947265625,0.018577859219908715,-0.0009363858009688556,0.0012581377017777413
1761508322682930700,2.5029306640625,0.017528057906031607,0.0003033303281292319,0.002263780213519931
1761508322692901600,2.512901611328125,0.016178396862745283,0.003829056768864393,0.0013304814187809824
1761508322702873600,2.52287353515625,0.029649872854351996,-0.002963087589293718,0.009783964851591736
1761508322712844500,2.532844482421875,0.02501344522535801,-0.005218867159448564,0.002447959407698363
1761508322722816800,2.542816650390625,0.018580781829357147,-0.001943498750589788,0.00010351517340168356
1761508322732787700,2.55278759765625,0.006454875227808952,0.00046149829821661115,-0.0067736679865512996
1761508322742758400,2.56275830078125,0.01722995174229145,-0.008688826558645814,-0.0012751162360422313
1761508322752730600,2.572730712890625,0.012595277678966522,-0.008033102596271782,-0.003113154451316222
1761508322762701600,2.58270166015625,0.014543489137291907,-0.004860555241070688,0.00525138118956238
1761508322772673500,2.592673583984375,0.019784312400221823,-0.0018842976429499685,-0.005215679688518867
1761508322782644500,2.60264453125,0.01873568013012409,-0.0030785306625068184,-0.005151272682799026
1761508322792615700,2.61261572265625,0.012599369332194327,0.004195022270735353,0.0016701617019250989
1761508322802587400,2.62258740234375,0.004366378515958786,0.0004410400320775807,-0.0030804486249573527
1761508322812558600,2.63255859375,0.024116788646578787,0.0003835742237977683,-0.008355484684742986
1761508322822529500,2.642529541015625,0.02067161662876606,0.0014946590045467017,-0.00689532160484232
1761508322832501800,2.652501708984375,0.027252748584747313,0.0074036273200064895,-0.006679249435057863
1761508322842472400,2.662472412109375,0.025308044257760048,-0.0022842750122770666,-0.0030101781340315936
1761508322852444700,2.672444580078125,0.01857376756668091,-0.004042114997655153,-0.00005533778327517211
1761508322862415600,2.68241552734375,0.013784195202589035,-0.00006736614778637886,0.0044156610177829856
1761508322872386800,2.69238671875,0.02530745973587036,-0.003117109107226133,0.00007700162581168115
1761508322882358500,2.702358642578125,0.0175327340811491,-0.0008395195640623569,-0.006575770794274285
1761508322892329700,2.712329833984375,0.0146919576972723,-0.001807341682910919,-0.0033492190963588654
1761508322902301400,2.722301513671875,0.01094751047194004,0.0010371975606307386,-0.00017911029341630637
1761508322912272600,2.732272705078125,0.018877134427428246,-0.0016935608438216148,-0.003022142566461116
1761508322922243600,2.74224365234375,0.023064649245142937,-0.0027949644807726145,-0.0030337782053276893
1761508322932215800,2.7522158203125,0.015434300497174262,-0.0011013853706419467,0.00043397097047418354
1761508322942186500,2.7621865234375,0.014382745617628097,-0.0032812136277556416,-0.002011330689257011
1761508322952158700,2.77215869140625,0.020667524975538254,0.0016115085835568606,0.0037716457595117388
1761508322962129700,2.782129638671875,0.01962064627110958,-0.0013721103371120988,-0.0018397917809430508
1761508322972100600,2.7921005859375,0.018121932145953177,-0.004679335188958794,0.004269220018107444
1761508322982072600,2.802072509765625,0.009289806392788886,0.0031296945941634473,-0.0008150061773136258
1761508322992043800,2.812043701171875,0.018565584260225296,0.0010850735566578806,-0.0015404343750327824
1761508323002014700,2.8220146484375,0.019016250637173653,-0.0015599427931010722,0.003595010550972074
1761508323011986700,2.831986572265625,0.02500467739701271,0.008083535875566303,-0.0026187402641866353
1761508323021957600,2.84195751953125,0.013629881423711776,0.007276274613291025,-0.002621343213226646
1761508323031929900,2.851929931640625,0.013328852650523184,-0.006664901249296962,-0.00821569262156263
1761508323041900500,2.861900634765625,0.014822306078672408,0.002950264640338719,-0.0026616752236150202
1761508323051871500,2.87187158203125,0.0092892218708992,-0.0005860197270289063,-0.0030860655149910596
1761508323061843700,2.88184375,0.017972879064083097,0.0010884710901416838,0.002597816207166761
1761508323071814700,2.891814697265625,0.01886953564286232,-0.0006583177782595157,0.0039476599135436115
1761508323081786600,2.90178662109375,0.010939327165484427,0.0013971899794414638,0.0026483499511610717
1761508323091757600,2.911757568359375,0.017225860089063644,0.004034680609870701,-0.008166537983901798
1761508323101728800,2.921728759765625,0.021567104163765907,0.0018117073307745157,0.0013795355917420237
1761508323111700500,2.931700439453125,0.022315292182564735,0.004871551559120417,0.001371078290650621
1761508323121671700,2.941671630859375,0.02231763027012348,0.0033976796142756935,-0.004593501802720129
1761508323131643600,2.9516435546875,0.028155250382423398,0.0004911627841182053,0.0017989483139012007
1761508323141614600,2.961614501953125,0.012594108635187149,-0.0017743527287617325,-0.0025661515604238957
1761508323151585500,2.97158544921875,0.02546469612419605,0.009718096541147678,-0.002682845875807106
1761508323161557800,2.981557861328125,0.014093407282233237,0.003238287801481783,0.0010658665326889604
1761508323171528400,2.991528564453125,0.014693126741051672,-0.002520202660001814,-0.006865465322695672
1761508323181499100,3.0014990234375,0.022024200281500816,-0.00011739756828173994,-0.014422292176727204
1761508323191471400,3.011471435546875,0.02516658996045589,0.003976082290429622,-0.0007071253560483455
1761508323201442300,3.0214423828125,0.022623335218429564,-0.002792425463814288,0.00034751652972772715
1761508323211414300,3.031414306640625,0.023672552010416983,0.00013637626338750122,-0.0007324515935499221
1761508323221385200,3.04138525390625,0.01844108109772205,-0.0030552959173917767,-0.0031118210107553747
1761508323231356400,3.0513564453125,0.016796236500144005,0.0021696356566622854,-0.006917277708323672
1761508323241328000,3.061328125,0.017393033349514007,-0.0013831431877799332,-0.002512613008590415
1761508323251299300,3.07129931640625,0.022782325172424314,-0.008881974510569124,-0.00271378900334239
1761508323261271300,3.081271240234375,0.017397125002741813,-0.003201883047539741,-0.005441743529355153
1761508323271242500,3.091242431640625,0.0004915829092264175,-0.00006303703254088759,0.0005041775293182581
1761508323281213200,3.101213134765625,0.01156710367500782,-0.004889342944137752,-0.0002001348151359707
1761508323291185400,3.111185302734375,0.022490064227581024,0.0002015504540875554,-0.0010698577212169766
1761508323301156400,3.12115625,0.01770166090726852,-0.0026607071092352268,-0.0026776217114180324
1761508323311127600,3.13112744140625,0.01471066239774227,-0.007564644834306091,-0.007586610070941969
1761508323321099300,3.141099365234375,0.02817746221423149,-0.00483012357018888,-0.002508886681543663
1761508323331070500,3.151070556640625,0.02234159566760063,-0.006919478798564523,-0.009531387463165446
1761508323341042200,3.161042236328125,0.013960720813274383,-0.006704648737795651,0.0053845882483292366
1761508323351013400,3.171013427734375,0.023238836768269537,-0.0031055647999048233,-0.004225572672626003
1761508323360984300,3.180984375,0.015008768561482429,0.00034786358959972854,-0.005431066871713847
1761508323370956500,3.19095654296875,0.019946224963665007,-0.0038595615049824114,-0.008966757584037258
1761508323380927200,3.20092724609375,0.019345920982956885,0.0015520517475903033,-0.0012328023311216384
1761508323390899500,3.2108994140625,0.02547872464954853,-0.00014015738936141132,-0.004742134759481996
1761508323400870400,3.220870361328125,0.02263093400299549,-0.00039740181975066657,-0.0005223068410530686
1761508323410841300,3.23084130859375,0.011404606589674949,-0.0043262109023518855,0.0007722538809757679
1761508323420813300,3.240813232421875,0.016493454161286353,-0.0031991065685637293,-0.002970923835877329
1761508323430784300,3.2507841796875,0.010657587614655495,-0.00789239721763879,-0.0027222189049702136
1761508323440756200,3.260756103515625,0.014396774142980575,-0.005507109516300261,0.0036936577530112115
1761508323450727200,3.27072705078125,0.029960838499665257,-0.0025978344734758135,-0.00631927528255619
1761508323460698400,3.280698486328125,0.02218085214793682,0.0013421353239566087,-0.01335545752965845
1761508323470670300,3.29067041015625,0.0006324526846408844,0.002573174956254661,-0.008446140376571565
1761508323480641300,3.300641357421875,0.01409457632601261,-0.005688000774849206,0.0023715240374673156
1761508323490612200,3.3106123046875,0.013192659050226211,-0.0021628040570765734,0.0023374665042385457
1761508323500584400,3.32058447265625,0.02725800928175449,-0.0005614150087349117,0.0050688002974260595
1761508323510555400,3.330555419921875,0.01992342860996723,-0.0011972469605505466,-0.00047301520607434213
1761508323520527400,3.34052734375,0.02052431711256504,-0.0010016878558322788,-0.006025269905198365
1761508323530498300,3.350498291015625,0.016785130584239957,-0.00113408206384629,-0.0013361257082782686
1761508323540469500,3.360469482421875,0.027260347369313237,-0.006150138393882662,-0.003346159489592537
1761508323550441200,3.370441162109375,0.024264672684669492,0.0029209106816910206,-0.0019351419141981749
1761508323560412400,3.380412353515625,0.017230536264181136,0.002312386861909181,-0.009908203152613714
1761508323570384400,3.39038427734375,0.012740239107608794,-0.004079213871341199,-0.008231109386403113
1761508323580355300,3.400355224609375,0.010941665253043175,-0.0017087218803353607,-0.003533982812426984
1761508323590326300,3.410326171875,0.014684358912706374,-0.0020443287765607235,-0.006438819142151624
1761508323600298500,3.420298583984375,0.01648234824538231,-0.0007516220849007368,-0.0014213197737000883
1761508323610269200,3.430269287109375,0.019476269364356993,-0.002672872471064329,0.0012228928584605454
1761508323620241400,3.440241455078125,0.01813303806185722,-0.0010551533424295483,0.00017152064200490712
1761508323630212400,3.45021240234375,0.019029694640636443,0.0020059877938590942,0.0007854238898027687
1761508323640183300,3.460183349609375,0.020824761363863943,0.010011398665606975,0.003696078038960695
1761508323650155300,3.4701552734375,0.022171499797701836,-0.0006049801558256149,0.0003738017484545707
1761508323660126200,3.480126220703125,0.01813303806185722,0.0006729125591926277,-0.006366694620857015
1761508323670097400,3.490097412109375,0.013346972829103469,0.002789137528184801,0.0014560805598273871
1761508323680069000,3.500069091796875,0.016491700595617293,-0.00001547156376764178,0.00024546266105026005
1761508323690040300,3.510040283203125,0.019931027394533157,0.0009764986156485974,-0.003397560883266851
1761508323700012300,3.52001220703125,0.018881226080656052,-0.0022195940119214353,0.0030311478568241
1761508323709983200,3.529983154296875,0.013796470162272452,0.0010127572391182183,0.006968405107362195
1761508323719954200,3.5399541015625,0.012601122897863387,0.0006031352586112916,-0.00017855317099019883
1761508323729926400,3.549926513671875,0.020236147820949554,0.002167973422538489,0.0019334431474562733
1761508323739897300,3.5598974609375,0.017990999242663383,0.00011779942708089947,-0.009138625285914167
1761508323749869300,3.569869384765625,0.021585808864235875,0.004337791742291301,0.001545211014850065
1761508323759840300,3.57984033203125,0.012757774764299392,0.00414639735603705,0.0021741109023801983
1761508323769811500,3.5898115234375,0.010509119054675102,-0.0013018398461863397,0.0009757314306683837
1761508323779783200,3.599783203125,0.021432079607248303,0.003547207620181143,0.008117374213086441
1761508323789754400,3.60975439453125,0.023376199412345883,0.000005918284133076667,-0.0013018581124953925
1761508323799726300,3.619726318359375,0.018589549657702445,-0.0009894494287669658,-0.0008150792425498366
1761508323809697300,3.629697265625,0.021433833172917364,0.0049201399412006136,-0.0009458112164400517
1761508323819668200,3.639668212890625,0.021132804399728772,-0.002664543034136295,0.007168722585588694
1761508323829640400,3.649640380859375,0.015294015243649482,-0.009466605998110026,-0.006069209511624649
1761508323839611400,3.659611328125,0.02217909858226776,-0.002413728344533592,-0.0059910388420335945
1761508323849582300,3.669582275390625,0.025474048474431035,-0.0003334697380661964,-0.0011514898563735187
1761508323859554300,3.67955419921875,0.029215573090314865,0.0005499985655769706,-0.006705032330285758
1761508323869525500,3.689525390625,0.012007248657941817,-0.002278539391234517,-0.009436831914354115
1761508323879497200,3.699497314453125,0.013354571613669394,-0.003900569368805736,-0.002793585374439135
1761508323889468400,3.709468505859375,0.0202384859085083,-0.006796089880913496,0.0024912962259259074
1761508323899439400,3.719439453125,0.022632103046774862,-0.007207355829235166,0.0005300700224004685
1761508323909411300,3.729411376953125,0.024428338813781737,0.0005823664652183652,-0.00010110402060672641
1761508323919382300,3.73938232421875,0.017245733833312987,0.00233209620937705,-0.0044062538686208425
1761508323929354500,3.7493544921875,0.018593056789040566,0.001145187979750335,-0.0074353650319855654
1761508323939325400,3.759325439453125,0.02427694764435291,-0.008673263663332908,-0.0019557006450369955
1761508323949296000,3.769296142578125,0.01993862617909908,-0.0003287570303305983,-0.0009483502333983778
1761508323959268400,3.779268310546875,0.016347323688864705,0.004218129151687026,-0.004466222161240875
1761508323969239300,3.7892392578125,0.020237901386618615,-0.0047580995135940605,-0.00030423451042734087
1761508323979210500,3.79921044921875,0.01170563536286354,-0.007337594612780958,0.003468918219581246
1761508323989182200,3.80918212890625,0.019339491242170333,-0.0014329736788757145,0.004927364266430959
1761508323999153400,3.8191533203125,0.016950550279021263,0.0014199498005211353,0.005085102978255599
1761508324009125000,3.829125,0.013510054436326026,-0.0009711648534052073,-0.00031591581506654616
1761508324019096300,3.839096435546875,0.01680208171904087,-0.007369213593751192,0.006850012025237083
1761508324029067300,3.8490673828125,0.01949438954293728,-0.006454765629954636,0.0030194665521848943
1761508324039039500,3.85903955078125,0.018594810354709623,-0.0009495558097958564,0.0036531522126868367
1761508324049010200,3.86901025390625,0.013206103053689001,-0.0037275143568404018,0.006063263828027993
1761508324058982400,3.878982421875,0.019337737676501272,-0.005336063798330724,0.000871978795249015
1761508324068953300,3.888953369140625,0.01125379994213581,-0.004933510879427195,-0.004279229955468327
1761508324078924500,3.898924560546875,0.02307400159537792,-0.0024859898631460963,-0.00022243797848932445
1761508324088896300,3.908896240234375,0.025465865167975422,-0.00611603519488126,0.00009696670160628855
1761508324098867500,3.918867431640625,0.02157470294833183,-0.0013150829202495514,0.0023510018392466007
1761508324108839200,3.928839111328125,0.01618248851597309,-0.009233162568416445,-0.00022542452001944184
1761508324118810400,3.938810302734375,0.026954642421007154,-0.0074734594195149835,-0.002738740781508386
1761508324128781300,3.94878125,0.01349251877963543,-0.0020886245760135353,-0.009449125140346586
1761508324138753500,3.95875341796875,0.0233668470621109,0.00330881402073428,-0.003224076613038778
1761508324148724200,3.96872412109375,0.020972060880064963,0.0020879852551966903,0.0016262312286533414
1761508324158696400,3.978696533203125,0.01333995856642723,-0.0059796954641118645,-0.0014842289420776069
1761508324168667600,3.988667724609375,0.012889292189478874,-0.005658573750965297,0.0012902224736288188
1761508324178637600,3.998637451171875,0.012889292189478874,-0.0056081770042888815,0.0012372136447578667
1761508324188608800,4.00860888671875,0.02007248169183731,-0.0025317469673231245,-0.0012606584524270147
1761508324198580500,4.01858056640625,0.015582184535264968,0.004379128399677574,-0.002694353650510311
1761508324208551700,4.0285517578125,0.024255320334434508,0.0024640702922828495,0.005526325673423707
1761508324218523400,4.0385234375,0.017971710020303726,0.0023852146361023185,0.0062785414133686565
1761508324228494600,4.04849462890625,0.016322189247608185,-0.00615552695505321,0.0073957728071138255
1761508324238465500,4.058465576171875,0.02679623698890209,-0.0010254523239098489,0.005288635326875373
1761508324248437800,4.068437744140625,0.020358897417783735,-0.002473239979427308,-0.0044697658251971
1761508324258408400,4.078408447265625,0.01751402938067913,-0.003344816915877163,-0.006467067989101633
1761508324268379600,4.088379638671875,0.015868600261211393,-0.0008205408689565956,0.0009727174896746873
1761508324278351600,4.0983515625,0.014369301614165305,-0.004096256337687373,0.016526333517581225
1761508324288322600,4.108322509765625,0.02439209845662117,0.0009123290719464421,-0.0065759169247467065
1761508324298294500,4.11829443359375,0.009129062873125076,-0.0035706615610048174,-0.00014993899785913526
1761508324308265700,4.128265625,0.016761165186762808,0.002148866863269359,0.0015469828468281774
1761508324318236700,4.138236572265625,0.023045944544672965,0.0014565372175537048,0.0008814864091109484
1761508324328208600,4.148208740234375,0.020050854381918906,-0.0034239465666934844,-0.00352875864803791
1761508324338179600,4.1581796875,0.02723053675293922,0.002104479732271284,-0.0026212062159087506
1761508324348151800,4.16815185546875,0.02214110465943813,0.009117463766876608,0.0034309151635970917
1761508324358122500,4.17812255859375,0.019749825608730315,-0.0005012275204062461,-0.002245057246740907
1761508324368093400,4.188093505859375,0.009870821151137351,0.0016092618275433779,-0.0031207075701095164
1761508324378065700,4.198065673828125,0.01390986740887165,0.0023718802304938435,-0.0008317107169423252
1761508324388036600,4.20803662109375,0.010322072049975395,0.004527341231331229,0.0014799546257592737
1761508324398008600,4.218008544921875,0.0125613754093647,0.0023902744037099183,0.0019101992691867053
1761508324407979500,4.2279794921875,0.025279402685165403,0.004346066380292177,0.005359645603317767
1761508324417950700,4.23795068359375,0.013157587736845016,0.0027395079664885996,0.004758428307157009
1761508324427922400,4.24792236328125,0.015555881050229071,0.006741619747318327,0.00012336151818744838
1761508324437893600,4.2578935546875,0.015558803659677505,-0.0017568901373073457,0.00022447467194870114
1761508324447864600,4.267864501953125,0.011373042407631873,0.0027980149543844163,-0.0005355590482708066
1761508324457836500,4.27783642578125,0.016609189495444297,0.005200929643958806,0.0009057166680693626
1761508324467807500,4.287807373046875,0.023189736929535864,0.0003529050908982754,0.007892881274828687
1761508324477779700,4.29777978515625,0.01526011297404766,-0.0034988932327367364,0.000799717276636511
1761508324487750700,4.307750732421875,0.0032867665857076642,0.004215498803183436,0.0018865991978906094
1761508324497721600,4.3177216796875,0.017354454904794692,0.002748714186251163,-0.00257097386601381
1761508324507693600,4.327693603515625,0.020648820275068282,-0.008240553068183361,-0.002045443021412939
1761508324517664800,4.337664794921875,0.02005202342569828,-0.006280176248028874,-0.001258238166477531
1761508324527636500,4.347636474609375,0.02109948665201664,-0.0007082396009005606,0.003316294074291363
1761508324537607700,4.357607666015625,0.017509353205561635,-0.00047465004073455924,0.0009334905909840017
1761508324547578600,4.36757861328125,0.01407236449420452,0.002744805196113884,0.0016885924077592789
1761508324557550600,4.377550537109375,0.01586743121743202,-0.002001549080759287,0.0016613116751890628
1761508324567522600,4.3875224609375,0.019456980141997336,0.0003671162793412804,-0.002962539600022137
1761508324577493800,4.39749365234375,0.011226911935210228,0.003905428207013756,0.005475061277067288
1761508324587464400,4.40746435546875,0.013021978658437728,0.0029323636574670672,0.0015222045985981822
1761508324597436700,4.417436767578125,0.02409399229288101,-0.0027892471260391174,0.00037771987174637614
1761508324607407600,4.42740771484375,0.024841011267900465,0.0010400836374610662,-0.001427913911268115
1761508324617379600,4.437379638671875,0.023194997626543045,0.004190656622871756,-0.00011019150936044751
1761508324627350500,4.4473505859375,0.011369535276293754,0.00717977370256558,-0.0010895579355303198
1761508324637321500,4.457321533203125,0.01436345639526844,-0.0016808109601028263,-0.0027684874658007175
1761508324647293400,4.46729345703125,0.013019056048989295,0.0009489164889790117,0.0021203440216835587
1761508324657264400,4.477264404296875,0.015415595796704292,0.000578841067571193,-0.00020971549423411486
1761508324667235600,4.487235595703125,0.018110826230049133,-0.0011805150214582681,-0.005311048088083043
1761508324677207600,4.49720751953125,0.018259879311919212,0.005566182759776711,0.0020276333700865504
1761508324687178500,4.507178466796875,0.020351883155107497,0.0007764277325943112,0.003664504723763093
1761508324697150500,4.517150390625,0.028132454028725624,-0.00011396350217983125,0.0064119585346896196
1761508324707121700,4.52712158203125,0.011524433577060698,0.006434818820469081,0.006318115371931344
1761508324717092600,4.537092529296875,0.014962006810307502,0.0010975311794318258,0.0031681817073374984
1761508324727064600,4.547064697265625,0.020346622458100316,-0.0029176227460615337,-0.005535942885139956
1761508324737035500,4.557035400390625,0.015108721804618835,-0.0034783984339796003,-0.0024120204446371643
1761508324747007500,4.567007568359375,0.01855272477865219,0.003964081325381994,0.0045203909007366745
1761508324756978400,4.576978515625,0.022892215287685393,0.0021530498480424286,-0.008024891890352591
1761508324766949600,4.58694970703125,0.02184241397380829,-0.0008906469631008803,-0.0022980934750754384
1761508324776921600,4.596921630859375,0.01929331401288509,-0.0006576601911336183,0.006105048009986057
1761508324786892500,4.606892578125,0.019592589220404622,-0.001722786938305944,-0.0016450455269776283
1761508324796863500,4.616863525390625,0.016002455773949622,0.0036449323736131188,-0.007540295844338834
1761508324806835700,4.626835693359375,0.017800445106625557,0.001940886668395251,-0.0049511104681994765
1761508324816806700,4.636806640625,0.014811200162768363,-0.002486811847053468,0.0009215718243271112
1761508324826778600,4.646778564453125,0.0219943896651268,-0.0007475852306000888,-0.008603029705025255
1761508324836749600,4.65674951171875,0.019300328275561333,-0.0006369279303587973,0.0002613726162351668
1761508324846720500,4.666720458984375,0.01002513493001461,0.0033879254052415486,0.009860171892959624
1761508324856692500,4.6766923828125,0.023942601123452187,0.0029340624242089686,0.009630993646429852
1761508324866663400,4.686663330078125,0.023794717085361478,-0.0022568572823889552,0.004126094353524967
1761508324876635600,4.6966357421875,0.021701544198393822,0.004559690864663571,0.0003370773341041058
1761508324886606300,4.7066064453125,0.016017068821191787,0.005089943550154566,-0.004453636674303561
1761508324896577500,4.71657763671875,0.023648002091050148,0.005865658896695822,0.00017508257227018473
1761508324906549800,4.7265498046875,0.020506196933984755,-0.0021095029672607776,-0.0002609433579724282
1761508324916520700,4.736520751953125,0.011529694274067878,-0.003845021522976458,0.006629903001151978
1761508324926492700,4.74649267578125,0.02395370703935623,-0.007162475507892668,0.005512963868351653
1761508324936463600,4.756463623046875,0.02171148107051849,-0.00006309183146804571,0.003191005460498854
1761508324946434600,4.7664345703125,0.014676760128140448,0.0035826442597433924,0.009681362993642688
1761508324956406500,4.776406494140625,0.01647007328569889,-0.004971632666420191,0.0003939129547215998
1761508324966377500,4.78637744140625,0.022157471272349356,-0.0052727710374630985,-0.0025226138127967712
1761508324976349700,4.796349609375,0.020660510712862012,0.0025258834821172056,0.00046407384779304265
1761508324986320400,4.8063203125,0.014973697248101233,0.004129738482180983,-0.0047400706665590405
1761508324996291600,4.81629150390625,0.007943652480840682,-0.0031090536649338897,-0.0015004676908254623
1761508325006263600,4.826263671875,0.016472411373257636,-0.0040264973034150895,-0.004426575137441977
1761508325016234800,4.83623486328125,0.021709142982959746,0.0009508709840476512,-0.001300241544144228
1761508325026205400,4.846205322265625,0.017518705555796623,-0.0005033281459473073,0.004823913025110959
1761508325036177700,4.856177734375,0.010935235512256622,-0.0003634630175307393,0.005864855179097503
1761508325046148600,4.866148681640625,0.01721767678260803,-0.00024602891663089393,0.000016722805937752126
1761508325056120600,4.87612060546875,0.017069208222627637,0.002462663786485791,-0.0024998722580261527
1761508325066091500,4.886091552734375,0.018420622831583022,-0.006135708009731024,-0.00479704328449443
1761508325076062700,4.896062744140625,0.017523381730914115,-0.0029877653728239235,-0.0012692436176817863
1761508325086034400,4.906034423828125,0.024402619850635528,0.003813530406169593,-0.0007684362223837524
1761508325096005600,4.916005615234375,0.018116671448946,-0.002545848557911813,0.0009850655145943164
1761508325105977600,4.9259775390625,0.019161212065815926,0.010799480303376912,0.00437187667498365
1761508325115948800,4.93594873046875,0.022453239348530767,-0.0007527180634438991,0.00037601197184994816
1761508325125919500,4.94591943359375,0.022301848179101944,0.0028630430146120486,0.0030012367757502943
1761508325135891700,4.9558916015625,0.012575403934717178,0.00771039171423763,-0.001500851283315569
1761508325145862700,4.965862548828125,0.01556640244424343,0.0038458435068838294,-0.0033462416879832743
1761508325155834600,4.975834716796875,0.017512860336899756,-0.004744344982877373,0.005037784104654565
1761508325165805600,4.9858056640625,0.025440730726718902,-0.00036561844199895855,0.004407176317228004
1761508325175776500,4.995776611328125,0.017206570866703987,0.004281330581009388,0.004495539587270468
1761508325185748500,5.00574853515625,0.024693711751699446,0.004073058125190436,-0.005178325086506084
1761508325195719400,5.015719482421875,0.014967267507314681,0.003195891698170453,-0.0026586795489303766
1761508325205690400,5.0256904296875,0.0170621939599514,0.0013763663871213794,-0.0008321856409776956
1761508325215662600,5.03566259765625,0.022297756525874138,0.002509973526932299,-0.002023970975121483
1761508325225633300,5.04563330078125,0.016012392646074295,0.004349536979012191,0.0032107787400484085
1761508325235605500,5.05560546875,0.022300094613432884,-0.00015393018638715147,-0.004474277603533119
1761508325245576400,5.065576416015625,0.020208675292134284,-0.0001302387835457921,0.007904790908331051
1761508325255547600,5.075547607421875,0.021855273455381394,-0.006784344644192606,0.008839523608330636
1761508325265519400,5.085519287109375,0.019459902751445768,-0.003632219022512436,-0.005287877275049686
1761508325275490600,5.095490478515625,0.024245383462309835,-0.003871270209085196,0.0021379710099194197
1761508325285462300,5.105462158203125,0.017061024916172028,0.0014486644383519887,0.00020250943531282246
1761508325295433500,5.11543359375,0.010775076514482498,0.0038196861523203548,0.0007783730945084244
1761508325305404400,5.125404296875,0.015865093129873276,0.0033708098736591635,0.0027533538287505504
1761508325315376600,5.135376708984375,0.0255932909399271,-0.004489493438974023,0.0009808003314305095
1761508325325347300,5.145347412109375,0.01990998460650444,-0.0053151488744653756,-0.006142338679917156
1761508325335319600,5.155319580078125,0.019013912549614907,0.0005014649824239313,0.002292933242768049
1761508325345290500,5.16529052734375,0.025602643290162087,0.00388250398915261,0.011529703407222404
1761508325355261400,5.175261474609375,0.01602700569331646,0.005266085568349808,-0.0006665376173332333
1761508325365233400,5.1852333984375,0.015277648630738258,-0.0004395421947352588,-0.003534247673908248
1761508325375204600,5.19520458984375,0.029341829818487167,-0.005839300612732768,-0.0018172876881901174
1761508325385175600,5.205175537109375,0.017222352957725524,0.0011055500891059636,0.0025775497372727838
1761508325395147500,5.2151474609375,0.013631050467491149,0.004699738656170666,0.003618948548985645
1761508325405118500,5.225118408203125,0.014078794234991072,0.004326740625314414,-0.0025335370656102895
1761508325415090700,5.235090576171875,0.013930910196900367,0.00012466755928471684,-0.008191663292003794
1761508325425061400,5.245061279296875,0.02784720734655857,0.00432124246628955,0.0078112126070540395
1761508325435032600,5.255032470703125,0.014975450813770294,0.0006210362414829433,0.0046415787281468505
1761508325445004500,5.265004638671875,0.01752221268713474,-0.0005442264119163155,-0.0037348939456976946
1761508325454975500,5.2749755859375,0.020064298385381697,-0.00028371231220662593,-0.0008692388488911091
1761508325464947500,5.284947509765625,0.028294366592168805,0.0007576864995062351,0.002142848114436492
1761508325474918700,5.294918701171875,0.01767301933467388,-0.0008215455159544944,-0.006206060699047521
1761508325484889600,5.3048896484375,0.014832827472686766,0.003793236536812037,0.000722459922498092
1761508325494861600,5.314861572265625,0.023512977534532544,-0.0031852607063017784,0.0015633129271212965
1761508325504832500,5.32483251953125,0.020969722792506217,0.0030882118063047526,0.008115666313190013
1761508325514804500,5.334804443359375,0.018873627296090125,-0.0024267156902700662,0.004269631010061129
1761508325524775400,5.344775390625,0.016027590215206146,-0.0017165398606099188,0.0017653565715532748
1761508325534746400,5.354746337890625,0.015279402196407317,-0.0007805559184402227,0.003364800257980823
1761508325544718600,5.364718505859375,0.02425824294388294,-0.0019089571601711213,0.002666561461286619
1761508325554689300,5.374689208984375,0.025604396855831144,-0.004126998535823077,0.0022222060941159724
1761508325564661500,5.38466162109375,0.014680851781368255,0.0007321684657596051,-0.005186033468926325
1761508325574632400,5.394632568359375,0.02410918986201286,-0.0013851707480847834,0.002688663695240393
1761508325584603600,5.404603759765625,0.0214192201256752,-0.0019466405557468532,-0.002337402572156861
1761508325594575400,5.414575439453125,0.01573065309524536,-0.007481423530261963,-0.0020841310639865694
1761508325604546600,5.424546630859375,0.025604981377720833,-0.007213274113368242,-0.0010962525377981364
1761508325614517500,5.434517578125,0.013929741153120994,-0.0007302322370000183,0.0007887026922777295
1761508325624489500,5.444489501953125,0.02350245614051819,-0.00619704627553001,0.0018830007350072264
1761508325634460400,5.45446044921875,0.02095394070148468,-0.0009806450678035616,-0.004704277833970263
1761508325644432600,5.4644326171875,0.017208908954262733,-0.004838781800679862,-0.001225988997844979
1761508325654403300,5.4744033203125,0.026036358532309532,-0.0011946896772831678,-0.001971427937131375
1761508325664374500,5.48437451171875,0.015414426752924919,-0.008325089546479284,0.0074189527533017096
1761508325674346500,5.494346435546875,0.029934535014629362,-0.0034241474960930644,-0.0006099029261153191
1761508325684317700,5.504317626953125,0.019014497071504592,-0.0017091968043707311,-0.004934131933934986
1761508325694289400,5.514289306640625,0.013777765461802483,0.00370097340978682,0.010852772260038182
1761508325704260600,5.524260498046875,0.01647182685136795,0.007133651272207498,-0.0027934666434302926
1761508325714231600,5.5342314453125,0.023356910189986226,0.006417611957341432,0.004727877905266359
1761508325724203500,5.54420361328125,0.022757190731167793,-0.002584226073231548,0.0061208666336257005
1761508325734174500,5.554174560546875,0.02051204215288162,-0.00012669511958956716,0.0051993678745348
1761508325744146700,5.564146728515625,0.017967033845186234,-0.0011815927336923777,0.001979574710968882
1761508325754117400,5.574117431640625,0.025446575945615765,-0.0051990116815082725,-0.0019094138178974388
1761508325764088300,5.58408837890625,0.020208675292134284,-0.0018552907441742718,0.008535270831594242
1761508325774060500,5.594060546875,0.02155599824786186,-0.00258707561744377,0.0012849435103125869
1761508325784031500,5.604031494140625,0.02319908927977085,-0.0036129115338437256,-0.0010888546826317905
1761508325794002400,5.61400244140625,0.011672902137041091,0.000052278176508843894,-0.0015292371275834739
1761508325803974400,5.623974365234375,0.02124795521199703,-0.0007707834430970251,-0.004177057355782017
1761508325813945600,5.633945556640625,0.0199029703438282,0.0016214637219905852,-0.009099407520378008
1761508325823917300,5.643917236328125,0.01855973904132843,0.000766381262615323,0.000534481336036697
1761508325833888500,5.653888427734375,0.016316344028711318,-0.004616316422726959,0.001628368386812508
1761508325843859500,5.663859375,0.020054361513257027,0.0030475144697353243,-0.003950710387155413
1761508325853831400,5.67383154296875,0.015118658676743507,0.0030059586166404184,0.003266527515277266
1761508325863802400,5.68380224609375,0.015868600261211393,-0.00036963702999055385,-0.0007831132017076015
1761508325873774600,5.693774658203125,0.006139233407378196,0.008843944055121391,-0.008908250596141441
1761508325883745500,5.70374560546875,0.020952771657705305,0.006585662000626325,0.002827414578804746
1761508325893716500,5.713716552734375,0.02693652224242687,-0.004940050218068063,-0.000518744910787791
1761508325903688400,5.7236884765625,0.021698621588945387,-0.002451503071654588,-0.006271828544791787
1761508325913659600,5.73365966796875,0.01750876868367195,0.007075911469291895,0.0031607838521711526
1761508325923630600,5.743630615234375,0.022743162205815314,0.006308361162897199,-0.0049103126669302576
1761508325933602600,5.7536025390625,0.01630874524414539,0.0037131753042340277,0.001426416073925793
1761508325943573500,5.763573486328125,0.013768413111567497,0.0017020729438401757,0.0032230080339591947
1761508325953545500,5.77354541015625,0.01077975268959999,0.0029863588670268654,-0.0042815041109453885
1761508325963516400,5.783516357421875,0.030534838995337484,-0.0077111588992178435,-0.0025977431419305502
1761508325973487400,5.7934873046875,0.014673837518692015,-0.0013969159848056733,0.008843880123039707
1761508325983459600,5.80345947265625,0.01631926663815975,-0.00006555778319016098,-0.005305285067576914
1761508325993430300,5.81343017578125,0.01123158811032772,0.004104056051652878,0.0074581613856833425
1761508326003402500,5.823402587890625,0.020506196933984755,-0.0009618307694792747,-0.0009345683032181113
1761508326013373400,5.83337353515625,0.022450316739082335,0.005039418939314783,-0.005943318109633401
1761508326023344600,5.8433447265625,0.016465981632471084,0.0013437792917713521,-0.002796982907922938
1761508326033316400,5.85331640625,0.023499533531069754,-0.0004484561535529792,-0.00507403359496966
1761508326043287600,5.86328759765625,0.022904490247368813,-0.004087963433377444,-0.0031559615465812383
1761508326053259300,5.87325927734375,0.011979191607236862,-0.0012824410259723662,-0.00441767944493331
1761508326063230500,5.88323046875,0.019909400084614753,0.003070986676868051,-0.00004554704162292182
1761508326073201400,5.893201416015625,0.005991933891177177,-0.0020134769805707038,-0.0032652671399526294
1761508326083173600,5.903173583984375,0.02170505132973194,0.001819507044740021,-0.005356996988505125
1761508326093144300,5.913144287109375,0.027089666977524757,0.0015529833293519914,0.000913982172915712
1761508326103115500,5.923115478515625,0.024546996757388112,-0.0015959456882439552,-0.0041335744070820505
1761508326113087500,5.93308740234375,0.027688801914453505,0.00438362191170454,-0.0024056911685504017
1761508326123058400,5.943058349609375,0.027390695750713345,0.0028233868576586245,-0.0024146416599862275
1761508326133030400,5.953030517578125,0.019012158983945846,-0.001366319917142391,0.000510205411305651
1761508326143001600,5.963001708984375,0.016017653343081473,-0.005104246070142835,-0.005366294539812952
1761508326152972500,5.97297265625,0.014075287103652953,-0.0010068937539122998,-0.005568402116326615
1761508326162944500,5.982944580078125,0.026496377259492873,0.0026537841781042516,-0.007783530015684664
1761508326172915500,5.99291552734375,0.014076456147432326,0.004116404076572508,-0.00027777576176449655
1761508326182887700,6.0028876953125,0.019165888240933418,-0.005708258111588657,-0.00009585245675407349
1761508326192858400,6.0128583984375,0.020509704065322876,0.001813369564898312,0.0009717950410675257
1761508326202829300,6.022829345703125,0.024995909568667412,-0.0035237354130484163,0.007976495304517448
1761508326212801500,6.032801513671875,0.01511632058918476,-0.0019326120303943752,-3.561930265277624e-7
1761508326222772500,6.0427724609375,0.018558569997549054,-0.0015079568775370716,0.0040500608420930805
1761508326232743400,6.052743408203125,0.02065291192829609,0.0017594474205747245,0.004707273508654907
1761508326242715400,6.06271533203125,0.02124853973388672,0.0015853146963752806,0.00534411010746844
1761508326252686600,6.0726865234375,0.02154781494140625,-0.001057911555096507,-0.001701926813367754
1761508326262658300,6.082658203125,0.023644494959712027,-0.0021132292943075296,-0.0018310513520613312
1761508326272629500,6.09262939453125,0.016909049224853513,0.005752188584860414,0.0010352795981802046
1761508326282600400,6.102600341796875,0.02244096438884735,0.004647204751335084,0.0008967387771699577
1761508326292572400,6.112572509765625,0.012861819660663604,-0.006229852566588669,0.002650459709856659
1761508326302543400,6.12254345703125,0.018245850786566733,-0.0018953852925449608,0.0006906126126646995
1761508326312515600,6.132515625,0.023186814320087432,0.005732351373229175,0.0001940064684487879
1761508326322486500,6.142486572265625,0.01810147387981415,0.008191361897904426,0.004960654614679515
1761508326332457500,6.15245751953125,0.019597265395522118,-0.0015429733919911086,0.005157757222512736
1761508326342429400,6.162429443359375,0.024088147073984146,0.0030246998497284946,-0.0003838482184335589
1761508326352400600,6.172400634765625,0.020648820275068282,-0.0010034779541194438,-0.0008961359889712184
1761508326362372400,6.182372314453125,0.011370119798183441,0.007964530872087925,-0.002894031807919964
1761508326372343600,6.192343505859375,0.018698855251073836,-0.004272781948372721,0.0049346525237429885
1761508326382314500,6.202314453125,0.028425299495458602,-0.0025097177986055613,-0.0009806724672671407
1761508326392286500,6.212286376953125,0.02872691279053688,0.008521488901413977,0.008043258664105086
1761508326402257400,6.22225732421875,0.027081483671069145,0.0015338402374647556,-0.0006151818894315511
1761508326412228400,6.232228271484375,0.01555938818156719,0.0016026311573572455,-0.002493816976575181
1761508326422200300,6.242200439453125,0.018553893822431562,0.0035111681924201547,-0.005418380920076743
1761508326432171300,6.252171142578125,0.016910218268632888,0.005327478633075952,0.00539224183182232
1761508326442143500,6.2621435546875,0.018705869513750074,0.006467844307236373,0.0006735244805458932
1761508326452114400,6.272114501953125,0.014815876337885855,-0.00654613370783627,-0.003680725206201896
1761508326462085400,6.28208544921875,0.005091770181059837,0.006069291710015386,-0.012821478517120703
1761508326472057300,6.292057373046875,0.020203999117016792,0.0017562873491086064,0.0009715849785134195
1761508326482028500,6.302028564453125,0.03456687099039554,0.0006581168488599359,-0.0020218338169623166
1761508326492000300,6.312000244140625,0.01780804389119148,0.0009926095002330839,0.006000162863405421
1761508326501971500,6.321971435546875,0.008679565539956092,-0.0006917085912078618,0.004266607935912907
1761508326511942400,6.3319423828125,0.019002222111821173,0.004867971362546086,-0.005443095236225054
1761508326521914400,6.341914306640625,0.010770984861254692,0.0016278386638499795,-0.0000716221977956593
1761508326531885300,6.35188525390625,0.016607435929775236,-0.0015249262786470354,0.002904178742598742
1761508326541857500,6.361857421875,0.01600947003662586,0.0029114852662198245,0.002043095800699666
1761508326551828500,6.371828369140625,0.01556114174723625,-0.00035034780763089655,0.0077955309807322916
1761508326561799400,6.38179931640625,0.009726444244384765,0.0012229659236967564,-0.00028841588678769767
1761508326571771400,6.391771484375,0.012869418445229529,-0.0006265344005078077,-0.008004780684085562
1761508326581742600,6.40174267578125,0.02738309696614742,-0.004053513174504041,-0.0049605267505161465
1761508326591713500,6.411713623046875,0.02020049198567867,-0.006034238662943244,-0.006123469582665711
1761508326601685500,6.421685546875,0.010620762735605239,0.0012376520361751318,0.006388431528629735
1761508326611656400,6.431656494140625,0.008374445113539694,0.0014227993447333573,0.0022853892571292815
1761508326621628400,6.44162841796875,0.005386369213461876,0.0005063238206319511,-0.007222151539567858
1761508326631599400,6.451599365234375,0.02124795521199703,-0.0008504976158030331,-0.006030503202741965
1761508326641570300,6.4615703125,0.019749825608730315,0.0030922669269144534,0.0021199786955025048
1761508326651542500,6.47154248046875,0.024837504136562345,0.007987400291021914,-0.0017198460625484585
1761508326661513500,6.481513427734375,0.018254034093022346,0.001450198808312416,0.003410676093166694
1761508326671485400,6.4914853515625,0.003591302490234375,0.0031880919842049477,0.0008201938090845942
1761508326681456600,6.50145654296875,0.018552140256762502,0.0012184541453607379,-0.00007639883761294185
1761508326691427600,6.511427490234375,0.022740824118256567,0.002111731456965208,0.004233299321355298
1761508326701399600,6.521399658203125,0.013612345767021179,-0.001991265148762613,0.003455318952491507
1761508326711370500,6.53137060546875,0.01825344957113266,-0.0013041779337450861,-0.0024496033755131066
1761508326721342500,6.541342529296875,0.022594693645834923,-0.0032164778284728525,0.0031202326460741457
1761508326731313400,6.5513134765625,0.014659808993339537,0.001939827222470194,0.0018193061153404413
1761508326741284400,6.561284423828125,0.01480477042198181,0.0032932145928032696,-0.002143231706926599
1761508326751256600,6.571256591796875,0.012410568761825561,0.004950736008863896,-0.0009600406711921095
1761508326761227300,6.581227294921875,0.01630231550335884,0.004157284076232463,0.004276371278101578
1761508326771198500,6.591198486328125,0.01765080750286579,-0.003320285262819379,0.0026670820510946215
1761508326781170400,6.60117041015625,0.030074820268154143,-0.0020442557113245128,-0.003605568477604538
1761508326791141600,6.6111416015625,0.022743162205815314,0.0031049985443241893,-0.0026213249469175933
1761508326801113300,6.62111328125,0.01601005455851555,-0.003603212123736739,-0.0020440456487704067
1761508326811084500,6.63108447265625,0.01795242079794407,0.0007603533806279301,-0.0009719503046944737
1761508326821055500,6.641055419921875,0.018998714980483052,0.00034848464410752055,-0.001810291691822931
1761508326831027500,6.65102734375,0.01675239735841751,-0.0060430612902157,0.003156445603771135
1761508326840998400,6.660998291015625,0.024686112967133522,0.0018570260435342787,0.00001612915089353919
1761508326850970600,6.670970703125,0.02723229031860828,0.000582001139037311,-0.0055536246723029755
1761508326860941300,6.68094140625,0.017651976546645163,-0.00023711495781317352,-0.0009361300726421177
1761508326870912500,6.69091259765625,0.021390578553080557,-0.0017112243646755813,-0.002627270630514249
1761508326880884500,6.700884521484375,0.027828502646088597,-0.001088891215249896,0.0010505958983208984
1761508326890855400,6.71085546875,0.025587445721030232,-0.004745988950692117,0.005470841759676113
1761508326900827400,6.720827392578125,0.016608020451664925,0.0008120470352470875,-0.0036786611132789402
1761508326910798600,6.730798583984375,0.02498714174032211,0.004879588735103607,-0.005767577950237319
1761508326920769500,6.74076953125,0.02633738730549812,-0.00019860957833006977,-0.005971384293492883
1761508326930741500,6.750741455078125,0.027532734569907187,-0.0015490378065966069,0.0002487049309071153
1761508326940712400,6.76071240234375,0.01960018800497055,-0.003901902809366584,0.0010552081413567065
1761508326950683400,6.770683349609375,0.022739070552587507,0.003954509779438376,-0.0015021573244128376
1761508326960655400,6.7806552734375,0.016451953107118604,0.004442037568055093,-0.006633035673154518
1761508326970626300,6.790626220703125,0.017348609685897826,0.0015342786288820207,0.0016223953037522731
1761508326980598500,6.8005986328125,0.013306056296825408,0.005412617899570614,-0.0015534673865418881
1761508326990569500,6.810569580078125,0.0245300456225872,0.0017438114600256084,-0.004232102878112346
1761508327000540400,6.82054052734375,0.029769699841737746,0.004746372543182224,-0.0001665613390970975
1761508327010512400,6.830512451171875,0.024233693024516105,0.0028068375816568732,0.0010006192767526953
1761508327020483600,6.840483642578125,0.017501169899106026,0.003041322190966457,-0.004537168505601584
1761508327030455300,6.850455322265625,0.01884732381105423,0.00593450461551547,0.0053779301786795256
1761508327040426500,6.860426513671875,0.015255436798930168,-0.002798709074128419,0.0007365706462413072
1761508327050397400,6.8703974609375,0.01630582263469696,-0.006783339997194707,0.009199461228214204
1761508327060369400,6.880369384765625,0.022892215287685393,-0.0019217983754351734,-0.002976358062820509
1761508327070340400,6.89034033203125,0.01750526155233383,0.0013323445823043584,0.0030394955600611864
1761508327080312600,6.9003125,0.01720949347615242,-0.001754643381293863,0.004295870563015341
1761508327090283500,6.910283447265625,0.008683657193183899,-0.0032428543787449597,-0.006243881091941148
1761508327100254500,6.92025439453125,0.016468904241919515,-0.0020249664889648556,0.0007062668395228683
1761508327110226400,6.930226318359375,0.014524784436821937,-0.004083122861478478,0.003020690394891426
1761508327120197600,6.94019775390625,0.017966449323296545,-0.00396506770607084,-0.00005980389583855867
1761508327130168300,6.950168212890625,0.01183072304725647,0.0009290792773477733,-0.010656190242012963
1761508327140140500,6.960140625,0.012424012765288352,0.0005644106834195554,-0.0029724399395287034
1761508327150111500,6.970111572265625,0.015863339564204215,-0.0022434863441623746,0.008953541909437627
1761508327160083500,6.98008349609375,0.017955927929282186,0.0028797566873952746,0.01023010118389502
1761508327170054400,6.990054443359375,0.01810556553304195,0.0033437026710249483,0.0045321270043030375
1761508327180025000,7.000025146484375,0.016907880181074142,0.0044564679522067305,-0.0013577804176602513
1761508327189997000,7.0099970703125,0.014066519275307655,0.00009324950771406292,-0.004741075313556939
1761508327199968000,7.019968017578125,0.01586217052042484,-0.004534355494007468,-0.00010553360055200755
1761508327209940000,7.02993994140625,0.021993220621347426,-0.006295994871668517,0.000054616264067590237
1761508327219911200,7.0399111328125,0.014511924955248832,-0.002409764555469155,0.0012480272997170685
1761508327229882000,7.049882080078125,0.014658055427670479,-0.0017678499227389692,0.00034980895151384174
1761508327239854000,7.05985400390625,0.01241232232749462,0.004622472168877721,0.010164936126349493
1761508327249825000,7.069824951171875,0.015105799195170402,-0.005211377972736954,-0.0021453688650857655
1761508327259797000,7.079796875,0.013759645283222198,-0.007704327299632132,0.0009097991881426423
1761508327269768000,7.089767822265625,0.017651392024755477,0.007130326803959906,-0.003444404832832515
1761508327279739100,7.0997392578125,0.022591771036386488,-0.0039080402892082925,0.005228749232646077
1761508327289711000,7.109711181640625,0.012567220628261565,0.004683646037895232,0.005557926388084888
1761508327299682000,7.11968212890625,0.009270517170429229,0.005052881209086627,-0.0010967639944516122
1761508327309653000,7.129653076171875,0.014207973572611807,-0.005383337006159126,0.004281768972426652
1761508327319625200,7.139625244140625,0.010911854636669159,-0.0005790785295888781,0.00567584454617463
1761508327329596200,7.14959619140625,0.019735797083377835,-0.0066147784972563385,0.004000842272350564
1761508327339568000,7.159568115234375,0.01883154172003269,0.004831804070621728,0.008310869224881752
1761508327349539000,7.1695390625,0.009400281029939651,-0.0029794359358958898,-0.0017520769648719577
1761508327359510300,7.17951025390625,0.02600537887215614,0.0017059636676684021,0.004882803605496883
1761508327369482000,7.18948193359375,0.014481529816985129,0.001873958912026137,0.006144914229493588
1761508327379453200,7.199453125,0.017771803534030912,-0.007409344674739986,-0.0012009002223610876
1761508327389425200,7.209425048828125,0.024063012632727622,-0.003059752896800637,-0.003768421755963936
1761508327399396000,7.21939599609375,0.02242225968837738,0.00358911053314805,0.0024849760829936712
1761508327409367000,7.229366943359375,0.023171032229065892,0.00037135406304150817,0.0004721018906217068
1761508327419339300,7.23933935546875,0.020783844831585883,-0.004667060229275375,0.004977733613643795
1761508327429310200,7.249310302734375,0.021533201894164085,-0.002680434723012149,-0.0024217015884350985
1761508327439281000,7.259281005859375,0.0183954883903265,-0.002968129090592265,0.0065837349050212645
