time,seconds_elapsed,z,y,x
1761508320289797600,0.109797607421875,0.00007624365389347076,-0.00003178464248776436,-0.001378742279484868
1761508320299769300,0.119769287109375,-0.004853534046560526,-0.0004387156805023551,-0.0009007047628983855
1761508320309740500,0.129740478515625,0.0006477576680481434,0.0009613080765120685,-0.0018972596153616905
1761508320319711500,0.13971142578125,-0.0013919570483267307,0.0017197763081640005,-0.0004160095122642815
1761508320329683500,0.149683349609375,0.00028576096519827843,-0.0019424781203269958,0.001831631176173687
1761508320339654400,0.159654296875,0.00045934831723570824,-0.0004504502285271883,-0.000058561679907143116
1761508320349626600,0.169626708984375,0.0005637439899146557,0.0022859477903693914,-0.0006852034712210298
1761508320359597600,0.17959765625,0.0002527623437345028,-0.00048075011000037193,-0.0002681470359675586
1761508320369568500,0.189568603515625,0.00036248471587896347,0.0008654777775518596,-0.0006122274207882583
1761508320379540500,0.19954052734375,0.00010546483099460602,-0.002386160660535097,-0.002261913614347577
1761508320389511700,0.20951171875,0.0004380936734378338,-0.0006500459276139736,-0.0018651026766747236
1761508320399482400,0.219482421875,0.0012207962572574615,0.0009572122944518924,0.0014810571447014809
1761508320409454600,0.22945458984375,0.0009315772913396358,0.0002179187722504139,0.00037078524474054575
1761508320419425500,0.239425537109375,-0.002601969987154007,0.0015202380018308759,0.0016824486665427685
1761508320429397500,0.2493974609375,0.0016961060464382172,-0.0026420163922011852,-0.0004235791857354343
1761508320439368400,0.259368408203125,-0.001870892010629177,-0.00044063921086490154,-0.0014332626014947891
1761508320449339400,0.26933935546875,0.001312118023633957,-0.0010952443117275834,-0.0003043485921807587
1761508320459311400,0.279311279296875,-0.0007777027785778046,0.0027308696880936623,0.00016028806567192078
1761508320469282300,0.2892822265625,-0.0013356348499655724,-0.0009757177904248238,-0.0015699677169322968
1761508320479253500,0.29925341796875,0.0007064887322485447,0.0013149995356798172,-0.0035175771918147802
1761508320489225500,0.3092255859375,-0.001560394186526537,0.00026278465520590544,-0.0011095469817519188
1761508320499196400,0.319196533203125,0.0033546481281518936,-0.0003880169242620468,0.0018327474826946855
1761508320509168400,0.32916845703125,-0.0024534398689866066,-0.001947297714650631,-0.0021747772116214037
1761508320519139600,0.3391396484375,-0.00006784405559301376,0.00018672633450478315,-0.0020759175531566143
1761508320529110500,0.349110595703125,-0.0008819722570478916,0.002793162129819393,0.0002985569881275296
1761508320539082500,0.35908251953125,-0.0008804374374449253,-0.001192225143313408,0.0015718708746135235
1761508320549053400,0.369053466796875,0.0005571367219090462,0.00016865029465407133,-0.00046251784078776836
1761508320559024600,0.379024658203125,-0.0019549871794879436,0.00047283334424719214,0.0009208127157762647
1761508320568996400,0.388996337890625,-0.002872712444514036,0.00003953708801418543,0.0029421523213386536
1761508320578967600,0.398967529296875,-0.002457929775118828,-0.0004958250792697072,0.002090093679726124
1761508320588939500,0.408939453125,-0.0001300610601902008,-0.0011818554485216737,0.0014725066721439362
1761508320598910500,0.418910400390625,0.0003314530476927757,-0.00054815539624542,-0.0003890030784532428
1761508320608881400,0.42888134765625,0.0008169473148882389,0.0000031188828870654106,-0.000779422465711832
1761508320618853600,0.438853515625,0.001847767736762762,0.001459717401303351,0.0007057542679831386
1761508320628824600,0.448824462890625,-0.0006406898610293865,-0.0003064910415560007,0.000740109127946198
1761508320638796500,0.458796630859375,0.0017779422923922539,0.00032719981390982866,0.000489890924654901
1761508320648767500,0.468767578125,-0.0005264906212687492,0.0003695441409945488,0.000689095351845026
1761508320658738400,0.478738525390625,0.0011865422129631042,0.00018065120093524456,-0.0006835319800302386
1761508320668710400,0.48871044921875,-0.0012297439388930798,-0.0013615853385999799,0.0013045178493484855
1761508320678681300,0.498681396484375,-0.0012133470736443996,0.0006814837106503546,-0.00365917244926095
1761508320688652500,0.508652587890625,-0.00011878740042448044,0.0005504561704583466,-0.0013416899600997567
1761508320698624300,0.518624267578125,-0.000050076283514499664,0.0008031490724533796,0.0014182464219629765
1761508320708595500,0.528595458984375,-0.001596307847648859,0.00027371267788112164,0.0008222309406846762
1761508320718567400,0.5385673828125,0.0012202388606965542,0.0009676403715275228,0.0015071335947141051
1761508320728538600,0.54853857421875,-0.00018644286319613457,-0.00033970538061112165,0.0006983316270634532
1761508320738509300,0.55850927734375,-0.0024290531873703003,-0.0012379399267956614,0.0010606063297018409
1761508320748481500,0.5684814453125,0.0014258725568652153,0.0008827352430671453,0.0007855017902329564
1761508320758452500,0.578452392578125,-0.0007039345800876617,0.0006693580653518438,0.00029973534401506186
1761508320768424400,0.588424560546875,-0.00034041330218315125,0.00034258817322552204,0.0008065348956733942
1761508320778395400,0.5983955078125,-0.001702633686363697,-0.0007723020389676094,-0.0010670615592971444
1761508320788366600,0.60836669921875,-0.0016091568395495415,-0.0004700332647189498,-0.000899282400496304
1761508320798338300,0.61833837890625,0.0003598220646381378,0.0016327730845659971,0.0005035354988649487
1761508320808309500,0.6283095703125,0.0031406949274241924,-0.0012269292492419481,0.0012026153272017837
1761508320818280400,0.638280517578125,0.0019633728079497814,-0.0008652631659060717,-0.0006825291784480214
1761508320828252700,0.648252685546875,0.0002650748938322067,0.0007773745455779135,0.0017212399980053306
1761508320838223400,0.658223388671875,-0.0018051625229418278,0.0008615052211098373,0.0016268285689875484
1761508320848195600,0.668195556640625,-0.000994762871414423,-0.0008080304833129048,0.0000068276422098279
1761508320858166500,0.67816650390625,-0.00010872911661863327,-0.0016874062130227685,0.0015306883724406362
1761508320868137500,0.688137451171875,0.0002249651588499546,0.00008412846364080906,0.0006619652267545462
1761508320878109400,0.698109375,-0.001203631516546011,0.0026734613347798586,-0.0013282208237797022
1761508320888080600,0.70808056640625,0.00015111826360225677,-0.0012853277148678899,-0.0014536556554958224
1761508320898052400,0.71805224609375,-0.00093857292085886,-0.0018586055375635624,-0.0007493463926948607
1761508320908023600,0.7280234375,-0.0013497648760676384,0.00013050949200987816,0.0022674822248518467
1761508320917994500,0.737994384765625,0.00016805483028292656,0.00037804769817739725,-0.0013955150498077273
1761508320927966700,0.747966796875,-0.00026657339185476303,0.0006440974539145827,0.0016301021678373218
1761508320937937400,0.7579375,0.000036244746297597885,-0.00036362651735544205,-0.0011881185928359628
1761508320947908400,0.767908447265625,0.0002104155719280243,-0.0022600635420531034,0.0019208554876968265
1761508320957880600,0.777880615234375,-0.0000690012238919735,0.00011000433005392551,-0.0023878752253949642
1761508320967851500,0.7878515625,0.000004502013325691223,0.0008229325758293271,0.001322174328379333
1761508320977823500,0.797823486328125,0.0030210199765861034,0.0009034165414050221,0.003339804243296385
1761508320987794400,0.80779443359375,-0.0008738525211811066,0.0004245801828801632,-0.000772383064031601
1761508320997765600,0.817765625,0.0021284185349941254,0.001129715470597148,-0.0006324220448732376
1761508321007737300,0.8277373046875,-0.0004945290274918079,0.00069269078085199,-0.0005738324834965169
1761508321017708500,0.83770849609375,0.0014408351853489876,0.00017545861192047596,0.0003912991378456354
1761508321027680500,0.847680419921875,-0.0026559061370790005,-0.0013902137288823724,0.0017095640068873763
1761508321037651500,0.8576513671875,-0.0005059116519987583,0.00024365319404751062,0.0002911968622356653
1761508321047622400,0.867622314453125,0.00048158830031752586,-0.00015981565229594707,0.001171371666714549
1761508321057594600,0.8775947265625,-0.001258394680917263,0.0015890339855104685,-0.00005760299973189831
1761508321067565600,0.887565673828125,0.0008361814543604851,0.0019842470064759254,-0.00010820303577929735
1761508321077537500,0.89753759765625,-0.0008590826764702797,-0.0008246098877862096,-0.0006651252042502165
1761508321087508500,0.907508544921875,-0.0006881076842546463,0.0007831405382603407,0.00003288930747658014
1761508321097479700,0.917479736328125,-0.00038261106237769127,0.0013125936966389418,0.0015699483919888735
1761508321107451400,0.927451416015625,-0.0009815557859838009,0.0013501442736014724,-0.00355770206078887
1761508321117422600,0.937422607421875,0.0015844139270484447,0.0006647442351095378,0.0008152539376169443
1761508321127393500,0.9473935546875,0.0001279311254620552,-0.0003698938526213169,0.0010498784249648452
1761508321137365500,0.957365478515625,0.0023635183461010456,-0.0006408115150406957,-0.0003830377827398479
1761508321147336400,0.96733642578125,0.0010449877008795738,0.00012964103370904922,0.000059579615481197834
1761508321157308700,0.97730859375,-0.0000338992103934288,0.0018162170890718699,-0.0013231338234618306
1761508321167279400,0.987279296875,-0.0025162314996123314,-0.0008429491426795721,0.00212992075830698
1761508321177250300,0.997250244140625,0.001832157839089632,-0.0009408007608726621,-0.0008958309190347791
1761508321187222500,1.007222412109375,0.000998854637145996,0.0022680419497191906,-0.0021983832120895386
1761508321197193500,1.017193359375,0.001455345656722784,0.000827298266813159,0.0006889592623338103
1761508321207165400,1.02716552734375,-0.0003393581137061119,-0.0010947051923722029,-0.0003667178098112345
1761508321217136400,1.037136474609375,0.00009879469871520996,-0.0009269540896639228,-0.001126314396969974
1761508321227107600,1.047107666015625,-0.0015734038315713406,-0.0002592995297163725,-0.001855487935245037
1761508321237079300,1.057079345703125,-0.0011493400670588017,0.0018564860802143812,-0.0003177584148943424
1761508321247050500,1.067050537109375,0.0001920945942401886,-0.0007936256006360054,-0.002523654606193304
1761508321257021400,1.077021484375,-0.000965398270636797,0.0016143274260684848,-0.0024370839819312096
1761508321266993400,1.086993408203125,-0.00040560169145464897,-0.002716238610446453,-0.00002292846329510212
1761508321276964400,1.09696435546875,-0.0005289744585752487,-0.0006408640183508396,0.0013064272934570909
1761508321286936600,1.1069365234375,0.0005522686988115311,0.000533057376742363,0.00012211943976581097
1761508321296907500,1.116907470703125,0.0024344949051737785,0.00044739176519215107,0.00010249263141304255
1761508321306878500,1.12687841796875,-0.0011639688163995743,0.0009089175728149712,-0.00026315933791920543
1761508321316850400,1.136850341796875,0.0009524780325591564,-0.0011579357087612152,0.0005309487460181117
1761508321326821600,1.146821533203125,-0.0010214569047093391,0.0007355717243626714,-0.0010144836269319057
1761508321336793300,1.15679345703125,0.00006248336285352707,-0.0019203830743208528,-0.0014153079828247428
1761508321346764500,1.1667646484375,0.0013258871622383595,0.00038591446354985237,0.0006704797269776464
1761508321356735500,1.176735595703125,-0.0006968146190047264,-0.000903174513950944,0.0010632263729348779
1761508321366707500,1.18670751953125,0.0016582189127802849,-0.0014246213249862194,-0.0006907315691933036
1761508321376678400,1.196678466796875,-0.00012815603986382484,0.0014296002918854356,-0.0019144481047987938
1761508321386650600,1.206650634765625,-0.0005017975345253944,0.0009020280558615923,0.0001066247932612896
1761508321396621600,1.21662158203125,0.0012413994409143925,-0.000556844868697226,0.0008427946595475078
1761508321406592300,1.22659228515625,0.000019008293747901917,-0.001725706155411899,-0.0004568280419334769
1761508321416564500,1.236564453125,0.0012452667579054832,-0.0006042638560757041,0.0014838086208328605
1761508321426535400,1.246535400390625,-0.00024823425337672234,-0.000779766240157187,0.001844400423578918
1761508321436506600,1.256506591796875,-0.0014286171644926071,-0.0026085926219820976,-0.0003299087402410805
1761508321446478300,1.266478271484375,-0.00020595965906977654,-0.0005033640190958977,-0.0009128747042268515
1761508321456449500,1.276449462890625,-0.0009654001332819462,0.0016438222955912352,0.0010156761854887009
1761508321466421200,1.286421142578125,-0.00039788009598851204,0.0011250386014580727,-0.001138554885983467
1761508321476392400,1.296392333984375,-0.00009606080129742622,0.0007781470194458961,-0.0021628818940371275
1761508321486363400,1.30636328125,-0.0008361535146832466,-0.000498572364449501,-0.0004560620291158557
1761508321496335600,1.316335693359375,-0.0010560979135334492,-0.0009037274867296219,0.0025371671654284
1761508321506306300,1.326306396484375,0.002296821679919958,0.0002776507753878832,-0.0006945785717107356
1761508321516278500,1.336278564453125,-0.0005282200872898102,0.0012301182141527534,-0.002369365654885769
1761508321526249500,1.34624951171875,0.0010084235109388828,-0.0011515466030687094,-0.002423427766188979
1761508321536220700,1.356220703125,0.0006034583784639835,0.00004838407039642334,0.001600318355485797
1761508321546192400,1.3661923828125,0.00041330838575959206,0.0007490616990253329,-0.0012596502201631665
1761508321556163600,1.37616357421875,0.00019493047147989273,0.0010143667459487915,0.0014366395771503448
1761508321566135300,1.38613525390625,0.00019652815535664558,-0.002379565965384245,0.00047417322639375925
1761508321576106500,1.3961064453125,-0.002151862718164921,0.0019259144319221377,0.0012334884377196431
1761508321586077400,1.406077392578125,0.0014812210574746132,-0.0020437934435904026,-0.00019689527107402682
1761508321596049700,1.416049560546875,-0.0029687248170375824,0.0015497037675231695,0.0014534906949847937
1761508321606020400,1.426020263671875,0.0013029854744672775,-0.0006141145713627338,-0.0009055375121533871
1761508321615991300,1.4359912109375,-0.0012878412380814552,-0.00026557978708297014,-0.0008382938103750348
1761508321625963500,1.445963623046875,-0.0024665556848049164,-0.00004107528366148472,0.0006693217437714338
1761508321635934500,1.4559345703125,0.0004086000844836235,-0.0024206158705055714,-0.000840968219563365
1761508321645906400,1.465906494140625,0.0013641426339745522,0.0005591949447989464,-0.0017195451073348522
1761508321655877400,1.47587744140625,0.002633619587868452,-0.0011392490705475211,0.0010986769339069724
1761508321665848600,1.4858486328125,-0.001000263262540102,-0.00025321554858237505,0.0039498573169112206
1761508321675820300,1.4958203125,0.00042257318273186684,-0.0015229438431560993,0.0007590639870613813
1761508321685791500,1.50579150390625,0.0023227385245263577,-0.00037618656642735004,0.000057853758335113525
1761508321695763500,1.515763427734375,-0.000013067387044429779,0.0021878278348594904,-0.002027812646701932
1761508321705734400,1.525734375,-0.002354784868657589,0.0001281390432268381,-0.0011060925899073482
1761508321715705300,1.535705322265625,-0.0013173697516322136,-0.0023538931272923946,-0.0018229542765766382
1761508321725677600,1.545677490234375,0.0016560489311814308,0.00081633374793455,0.0022255831863731146
1761508321735648500,1.5556484375,-0.0013798889704048634,0.0016185673885047436,-0.0004535557236522436
1761508321745620500,1.565620361328125,-0.0010398034937679768,-0.001403055153787136,-0.0018013815861195326
1761508321755591400,1.57559130859375,-0.0003932979889214039,0.00008774432353675365,-0.00018489081412553787
1761508321765562600,1.585562744140625,-0.00006413133814930916,0.0009082643082365394,0.0009512137621641159
1761508321775534300,1.595534423828125,-0.00202609458938241,0.004113409668207169,-0.0003140508779324591
1761508321785505500,1.605505615234375,-0.0024639186449348927,-0.00024405447766184807,-0.0025223440025001764
1761508321795476500,1.6154765625,0.002093769609928131,-0.000256712781265378,0.0004692670190706849
1761508321805448400,1.625448486328125,-0.002305773086845875,-0.00023567373864352703,0.0014916545478627086
1761508321815419400,1.63541943359375,0.0016320557333528996,0.0005783376982435584,0.00028873549308627844
1761508321825391600,1.6453916015625,0.0004536067135632038,-0.0008762809447944164,0.0016019402537494898
1761508321835362600,1.655362548828125,0.0014578690752387047,0.0007401520851999521,0.0013463329523801804
1761508321845333200,1.665333251953125,0.0008679786697030067,0.0019998273346573114,-0.0010449193650856614
1761508321855305500,1.675305419921875,-0.00034027500078082085,-0.0013166258577257395,-0.0030621576588600874
1761508321865276400,1.6852763671875,-0.0014356332831084728,-0.000008747563697397709,0.0003011483931913972
1761508321875248400,1.695248291015625,-0.0018689939752221107,-0.002914073411375284,0.0013313076924532652
1761508321885219300,1.70521923828125,0.0008101463317871094,0.00206124410033226,0.0011944212019443512
1761508321895190500,1.7151904296875,-0.0013460991904139519,-0.00023841217625886202,-0.00022331945365294814
1761508321905162200,1.725162353515625,-0.001232115551829338,-0.0013580049853771925,0.00012795149814337492
1761508321915133400,1.735133544921875,-0.0008777724578976631,0.0002924838336184621,0.0013118378119543195
1761508321925105400,1.74510546875,0.0013486300595104694,0.0017335203010588884,-0.002021641004830599
1761508321935076400,1.755076416015625,-0.002812035381793976,0.00004675693344324827,0.00032883009407669306
1761508321945047300,1.76504736328125,0.00006391247734427452,0.0012723436811938882,0.0010215183719992638
1761508321955019500,1.77501953125,0.0012092581018805504,0.0021096672862768173,0.00030268006958067417
1761508321964990500,1.784990478515625,0.0001727556809782982,-0.0004352494142949581,-0.0015399610856547952
1761508321974961400,1.79496142578125,0.0025319093838334084,-0.0010554097825661302,-0.0020505953580141068
1761508321984933400,1.804933349609375,0.00016862014308571815,-0.0015326481079682708,-0.0005818619974888861
1761508321994904600,1.814904541015625,-0.000343304593116045,0.0020316890440881252,0.00009583530481904745
1761508322004876300,1.824876220703125,0.0021502128802239895,-0.001904995646327734,0.00003990891855210066
1761508322014847500,1.834847412109375,-0.000027332454919815063,-0.0003468841314315796,-0.00019951385911554098
1761508322024818400,1.844818359375,0.0007380601018667221,-0.00013329857029020786,0.00006733485497534275
1761508322034790400,1.854790283203125,-0.0001563425175845623,0.001085102092474699,-0.0014201756566762924
1761508322044761300,1.86476123046875,0.0015185195952653885,0.00046298769302666187,0.001404106616973877
1761508322054733600,1.874733642578125,-0.0010420377366244793,-0.00036661920603364706,-0.005481697153300047
1761508322064704500,1.88470458984375,0.0016911644488573074,0.0014762883074581623,0.0002795192413032055
1761508322074675500,1.894675537109375,0.0016853916458785534,-0.00009655824396759272,0.001992016565054655
1761508322084647400,1.9046474609375,0.000978322234004736,-0.0007173410849645734,0.0003123609349131584
1761508322094618600,1.91461865234375,-0.00007786322385072708,-0.0017735653091222048,-0.001623703632503748
1761508322104590300,1.92459033203125,0.00016048969700932503,-0.0009767476003617048,0.0003414429957047105
1761508322114561500,1.9345615234375,-0.0004101325757801533,-0.00034990510903298855,0.0009063545148819685
1761508322124532500,1.944532470703125,-0.0009217257611453533,0.002030694391578436,-0.000207379343919456
1761508322134504400,1.95450439453125,-0.002530127763748169,0.0026465789414942265,-0.00032719923183321953
1761508322144475400,1.964475341796875,0.0036651836708188057,-0.0009838422993198037,0.0035522272810339928
1761508322154446300,1.9744462890625,-0.000720588956028223,0.000923919549677521,-0.0015169389080256224
1761508322164418800,1.984418701171875,0.000883433036506176,-0.0020526954904198647,-0.00015686254482716322
1761508322174389500,1.994389404296875,0.00008086208254098892,0.0004937896737828851,0.002127222716808319
1761508322184361700,2.00436181640625,-0.0008195522241294384,0.0013790244702249765,-0.0020121282432228327
1761508322194332700,2.014332763671875,-0.001465748529881239,0.0007722523296251893,-0.0012501218589022756
1761508322204303600,2.0243037109375,0.002317804377526045,-0.0010328381322324276,-0.000042910920456051826
1761508322214275600,2.034275634765625,-0.0010057524777948856,0.0008521112031303346,-0.0012673914898186922
1761508322224246500,2.04424658203125,0.0013130614534020424,-0.00047014839947223663,0.0002554040402173996
1761508322234218500,2.054218505859375,-0.0025129332207143307,0.0015984567580744624,-0.0018019673880189657
1761508322244189400,2.064189453125,0.000795245636254549,-0.0011086463928222656,0.0007067304104566574
1761508322254160600,2.07416064453125,-0.00006231479346752167,-0.0008000426460057497,-0.0007848176173865795
1761508322264132600,2.084132568359375,0.000035156961530447006,0.0001855932641774416,0.00023011304438114166
1761508322274103600,2.094103515625,0.0007963068783283234,0.0005034032510593534,0.0003356790402904153
1761508322284075500,2.104075439453125,0.0014277426525950432,-0.0014654716942459345,-0.002675557043403387
1761508322294046700,2.114046630859375,0.0002626837231218815,-0.0007516503101214767,0.0004748590290546417
1761508322304017700,2.124017578125,-0.0004979148507118225,0.0014790133573114872,0.0005630097584798932
1761508322313989600,2.13398974609375,0.002048913389444351,0.00022106536198407412,0.0027507899794727564
1761508322323960600,2.143960693359375,-0.00003421120345592499,2.8940849006175995e-7,-0.0008846911368891597
1761508322333931800,2.153931884765625,0.0026060263626277447,0.0005527848843485117,0.0008929934119805694
1761508322343903500,2.163903564453125,-0.0008425009436905384,0.0012507993960753083,0.0036658765748143196
1761508322353874700,2.173874755859375,0.0015629064291715622,0.000569873140193522,-0.0022563342936336994
1761508322363846700,2.1838466796875,0.0019711689092218876,0.0009786683367565274,-0.0012983951019123197
1761508322373817600,2.193817626953125,-0.0010574893094599247,0.000670440262183547,0.0019102992955595255
1761508322383788500,2.20378857421875,0.002394766081124544,-0.0006952288094907999,0.00038057961501181126
1761508322393760800,2.2137607421875,0.0011367378756403923,0.000013913726434111595,0.00039892864879220724
1761508322403731700,2.223731689453125,0.0002315291203558445,0.000005924259312450886,0.0010545989498496056
1761508322413703700,2.23370361328125,-0.0028457562439143658,0.0014028752921149135,0.0027497783303260803
1761508322423674600,2.243674560546875,0.00012233667075634003,-0.00043204263783991337,0.00019314372912049294
1761508322433645800,2.253645751953125,-0.00004256982356309891,0.0016647857846692204,-0.0011129677295684814
1761508322443617500,2.263617431640625,-0.00012459512799978256,-0.0017123688012361526,0.0015909397043287754
1761508322453588700,2.273588623046875,-0.00010649953037500381,0.0001028386177495122,-0.002548373071476817
1761508322463559700,2.2835595703125,-0.0019001387991011143,0.0014892802573740482,0.00015100708696991205
1761508322473531600,2.29353173828125,0.0014380230568349361,-0.003172590397298336,-0.0015231185825541615
1761508322483502600,2.303502685546875,-0.0015359288081526756,-0.00025270041078329086,0.0011224657064303756
1761508322493474800,2.313474853515625,0.0011530211195349693,-0.0012958119623363018,0.0008714355062693357
1761508322503445500,2.323445556640625,0.004202607087790966,-0.000472895335406065,0.00014146312605589628
1761508322513416400,2.33341650390625,-0.00013919919729232788,-0.0014202684396877885,0.0011405773693695664
1761508322523388700,2.343388671875,-0.0007701022550463676,0.000690819404553622,0.0006425662431865931
1761508322533359600,2.353359619140625,0.0016039866022765636,0.00056120113003999,-0.0008587224874645472
1761508322543331600,2.36333154296875,0.0010489840060472488,-0.00007209856994450092,0.00013809872325509787
1761508322553302500,2.373302490234375,-0.0006681624799966812,-0.00107498315628618,0.0015976704889908433
1761508322563273700,2.383273681640625,0.0018373397178947926,0.0014233281835913658,0.000019747531041502953
1761508322573245400,2.393245361328125,0.00010629231110215187,0.002023006323724985,-0.0007468608091585338
1761508322583216600,2.403216552734375,0.0005081631243228912,-0.003005574457347393,-0.00014019268564879894
1761508322593188600,2.413188720703125,0.000057903118431568146,0.000665845989715308,-0.00176447001285851
1761508322603159600,2.42315966796875,-0.0002307835966348648,0.0008480061660520732,-0.0011348987463861704
1761508322613130500,2.433130615234375,-0.0005997810512781143,0.0005311681888997555,-0.002298626583069563
1761508322623102700,2.443102783203125,-0.0007534455507993698,-0.0013586109271273017,0.0035006729885935783
1761508322633073700,2.45307373046875,0.0020096716471016407,0.0003026366466656327,0.002074969932436943
1761508322643044600,2.463044677734375,-0.00037252577021718025,0.0006051717791706324,-0.0013626384316012263
1761508322653016600,2.4730166015625,0.001345616765320301,-0.0004886322421953082,0.001431604498066008
1761508322662987800,2.48298779296875,0.0022308514453470707,0.0009292346658185124,-0.0009282225510105491
1761508322672959500,2.49295947265625,-0.0007981816306710243,-0.0012823933502659202,0.0029665185138583183
1761508322682930700,2.5029306640625,0.0017462028190493584,-0.0018349994206801057,0.00029190571513026953
1761508322692901600,2.512901611328125,0.0009280187077820301,0.0016580092487856746,-0.0009263958781957626
1761508322702873600,2.52287353515625,0.001748538576066494,0.003100111149251461,-0.001454234472475946
1761508322712844500,2.532844482421875,0.00042511429637670517,0.0005472119664773345,0.0006434920942410827
1761508322722816800,2.542816650390625,-0.00006890203803777695,-0.00008688669186085463,-0.000703534809872508
1761508322732787700,2.55278759765625,0.0014758110046386719,-0.0030311676673591137,0.0006141995545476675
1761508322742758400,2.56275830078125,0.0014236131682991982,0.00422994140535593,0.0005369678838178515
1761508322752730600,2.572730712890625,0.000897272489964962,-0.0006780690746381879,-0.002531660720705986
1761508322762701600,2.58270166015625,-0.0016226102598011494,0.0005413924809545279,-0.0010208493331447244
1761508322772673500,2.592673583984375,0.0005092336796224117,-0.0007733285892754793,-0.0006496796268038452
1761508322782644500,2.60264453125,-0.0015949304215610027,-0.00034429319202899933,-0.0011333096772432327
1761508322792615700,2.61261572265625,0.0004684841260313988,-0.0006473773391917348,0.0009994464926421642
1761508322802587400,2.62258740234375,0.000028263311833143234,0.0001470434945076704,0.002543281065300107
1761508322812558600,2.63255859375,-0.0005862978287041187,-0.00038764183409512043,0.0010992949828505516
1761508322822529500,2.642529541015625,0.0001492672599852085,-0.0005674052517861128,0.00216615735553205
1761508322832501800,2.652501708984375,0.0011107358150184155,-0.0007512466982007027,0.0007410714169964194
1761508322842472400,2.662472412109375,-0.003297861199826002,0.0016296193934977055,-0.0007249987684190273
1761508322852444700,2.672444580078125,-0.001354210078716278,0.0027556903660297394,0.0005221253959462047
1761508322862415600,2.68241552734375,-0.0024940436705946922,-0.0021461236756294966,-0.0024883118458092213
1761508322872386800,2.69238671875,-0.00031981198117136955,0.002047882415354252,-0.0009831268107518554
1761508322882358500,2.702358642578125,-0.0011962582357227802,0.0011469351593405008,-0.0024598496966063976
1761508322892329700,2.712329833984375,0.00029105832800269127,0.0007408992387354374,0.00010492943692952394
1761508322902301400,2.722301513671875,-0.00017632683739066124,-0.00014992814976722002,0.0004157202783972025
1761508322912272600,2.732272705078125,0.0010604253038764,-0.0010155676864087582,0.0009327193256467581
1761508322922243600,2.74224365234375,-0.00059552863240242,0.0029195190872997046,0.00017265311907976866
1761508322932215800,2.7522158203125,0.0005716229788959026,0.00012093677651137114,0.000584249384701252
1761508322942186500,2.7621865234375,-0.000507755670696497,-0.0004782743053510785,0.0012186144012957811
1761508322952158700,2.77215869140625,0.0034934883005917072,-0.0008732047863304615,-0.002082973951473832
1761508322962129700,2.782129638671875,-0.0015305648557841778,0.001583028701134026,0.00019349611829966307
1761508322972100600,2.7921005859375,0.0009771264158189297,0.0006593165453523397,0.0009422292932868004
1761508322982072600,2.802072509765625,-0.0021968288347125053,0.000716574490070343,0.0022551678121089935
1761508322992043800,2.812043701171875,-0.0010941927321255207,0.00010841921903192997,-0.0009606782114133239
1761508323002014700,2.8220146484375,-0.0006209495477378368,0.0015641030622646213,-0.0009769235039129853
1761508323011986700,2.831986572265625,-0.00174299580976367,-0.0008796703768894076,-0.001184539869427681
1761508323021957600,2.84195751953125,0.0008495915681123734,0.0012497932184487581,0.0018746331334114075
1761508323031929900,2.851929931640625,-0.0026315958239138126,-0.0008183438330888748,0.0016316385008394718
1761508323041900500,2.861900634765625,0.0008230567909777164,0.0011915438808500767,-0.0016483105719089508
1761508323051871500,2.87187158203125,-0.0012762895785272121,0.002477832604199648,-0.002108893822878599
1761508323061843700,2.88184375,-0.00046189548447728157,0.0004208069294691086,0.0005334945162758231
1761508323071814700,2.891814697265625,0.00043435022234916687,-0.0007047211984172463,0.0024841572158038616
1761508323081786600,2.90178662109375,-0.00010227691382169724,0.0003128726966679096,-0.0012203000951558352
1761508323091757600,2.911757568359375,-0.0014591561630368233,0.0024274210445582867,-0.001167559647001326
1761508323101728800,2.921728759765625,-0.000963275320827961,0.00014269514940679073,0.0005480487598106265
1761508323111700500,2.931700439453125,0.0014984654262661934,-0.0011438127839937806,-0.002488967962563038
1761508323121671700,2.941671630859375,-0.00018518511205911636,0.00023969938047230244,-0.003061814233660698
1761508323131643600,2.9516435546875,0.0003578099422156811,0.000279904343187809,-0.002356960903853178
1761508323141614600,2.961614501953125,0.0005852440372109413,-0.0003195732133463025,-0.0005944808362983167
1761508323151585500,2.97158544921875,0.00015550199896097183,0.0010812480468302965,-0.0014709716197103262
1761508323161557800,2.981557861328125,-0.00007166573777794838,0.00018269754946231842,-0.00014498375821858644
1761508323171528400,2.991528564453125,-0.00045862095430493355,-0.0003798597026616335,-0.00012569664977490902
1761508323181499100,3.0014990234375,0.0014266311191022396,0.0007762184832245111,0.0019052299903705716
1761508323191471400,3.011471435546875,-0.0008239937014877796,0.00003720121458172798,-0.0011244547786191106
1761508323201442300,3.0214423828125,0.0008543306030333042,-0.0004307163180783391,-0.001542038400657475
1761508323211414300,3.031414306640625,-0.0027929674834012985,0.001705980976112187,-0.0018550853710621595
1761508323221385200,3.04138525390625,-0.0014784317463636398,0.001783479005098343,-0.0030465838499367237
1761508323231356400,3.0513564453125,-0.0008658366277813911,0.0009256085613742471,0.0005545424064621329
1761508323241328000,3.061328125,0.0009549660608172417,0.0005098890978842974,0.000852283788844943
1761508323251299300,3.07129931640625,0.0006515667773783207,-0.0000415752874687314,-0.0019074775045737624
1761508323261271300,3.081271240234375,-0.0006682961247861385,0.00012114387936890125,-0.001338093657977879
1761508323271242500,3.091242431640625,-0.00010584667325019836,0.0009476834093220532,-0.0006451703957282007
1761508323281213200,3.101213134765625,0.001443580724298954,0.0006153209251351655,0.002138898242264986
1761508323291185400,3.111185302734375,0.0012189424596726894,-0.0011856737546622753,-0.002242881106212735
1761508323301156400,3.12115625,0.00034356163814663887,0.0007211495540104806,-0.0007208845345303416
1761508323311127600,3.13112744140625,-0.0006856564432382584,0.0003798812394961715,-0.0005345275858417153
1761508323321099300,3.141099365234375,0.0012118457816541195,-0.0007777947466820478,0.0012348766904324293
1761508323331070500,3.151070556640625,-0.0015922724269330502,-0.0007555956253781915,-0.00029907142743468285
1761508323341042200,3.161042236328125,-0.0003445819020271301,0.002553914673626423,0.00032384193036705256
1761508323351013400,3.171013427734375,0.0004462287761271,0.0004958756035193801,-0.0004568548174574971
1761508323360984300,3.180984375,0.001223072875291109,0.000522773596458137,0.00032265239860862494
1761508323370956500,3.19095654296875,-0.0002594948746263981,-0.0005250542890280485,0.0020937053486704826
1761508323380927200,3.20092724609375,0.0016782209277153015,-0.0031205713748931885,0.001536572235636413
1761508323390899500,3.2108994140625,-0.0002748565748333931,0.00043065089266747236,0.0004111683228984475
1761508323400870400,3.220870361328125,0.0005712299607694149,-0.0013576616765931249,0.0036610239185392857
1761508323410841300,3.23084130859375,-0.00011965632438659668,-0.0005203129258006811,-0.0010605588322505355
1761508323420813300,3.240813232421875,0.0005674390122294426,-0.000014045974239706993,-0.002088805427774787
1761508323430784300,3.2507841796875,-0.000560353510081768,0.00013694190420210361,-0.0010915504535660148
1761508323440756200,3.260756103515625,0.0010066507384181023,-0.0004204576835036278,-0.0013623939594253898
1761508323450727200,3.27072705078125,-0.0016604913398623466,0.0021978674922138453,-0.00033894937951117754
1761508323460698400,3.280698486328125,-0.0015885857865214348,-0.00014784466475248337,0.0011697312584146857
1761508323470670300,3.29067041015625,-0.00034344661980867386,0.0004979032091796398,-0.00027149892412126064
1761508323480641300,3.300641357421875,0.0005425871349871159,-0.0021961505990475416,0.003276896895840764
1761508323490612200,3.3106123046875,0.0026811668649315834,0.001643220311962068,0.00177155586425215
1761508323500584400,3.32058447265625,0.002804471179842949,0.0009193731239065528,0.0013598311925306916
1761508323510555400,3.330555419921875,-0.0009898459538817406,0.0005271061090752482,0.0013137651840224862
1761508323520527400,3.34052734375,-0.002239667810499668,-0.0003757054219022393,-0.0036921785213053226
1761508323530498300,3.350498291015625,0.0004797196015715599,-0.00029189337510615587,0.00030028459150344133
1761508323540469500,3.360469482421875,0.0010957089252769947,0.0017134668305516243,-0.0003274225164204836
1761508323550441200,3.370441162109375,-0.001611068844795227,-0.0010202244156971574,0.00016596144996583462
1761508323560412400,3.380412353515625,-0.0005798926576972008,-0.0004937173798680305,-0.0004697350668720901
1761508323570384400,3.39038427734375,-0.003355813678354025,0.0008170168148353696,-0.0008839833899401128
1761508323580355300,3.400355224609375,-0.0009389943443238735,-0.0021726477425545454,0.0011458779918029904
1761508323590326300,3.410326171875,0.0012080678716301918,0.003981742542237043,-0.0027250624261796474
1761508323600298500,3.420298583984375,0.00016064662486314774,-0.0011267332592979074,-0.0010256994282826781
1761508323610269200,3.430269287109375,-0.0007093609310686588,-0.00013409799430519342,-0.00017553824000060558
1761508323620241400,3.440241455078125,0.0009734905324876308,0.0005247680237516761,-0.002559866290539503
1761508323630212400,3.45021240234375,-0.0007171910256147385,0.0018522311002016068,0.0019787882920354605
1761508323640183300,3.460183349609375,0.000017840880900621414,0.002805642783641815,0.0020150071941316128
1761508323650155300,3.4701552734375,-0.0002543879672884941,-0.0009301673853769898,0.0013292665826156735
1761508323660126200,3.480126220703125,-0.004328492097556591,0.0011423045070841908,-0.0013240408152341843
1761508323670097400,3.490097412109375,0.0014916821382939816,-0.0005380287766456604,-0.0013678505783900619
1761508323680069000,3.500069091796875,0.00024106167256832123,0.0008119276026263833,0.0008332520956173539
1761508323690040300,3.510040283203125,0.0011495742946863174,-0.002118969801813364,-0.00040324911242350936
1761508323700012300,3.52001220703125,0.002652928698807955,0.0017921484541147947,-0.00041842914652079344
1761508323709983200,3.529983154296875,-0.00021636206656694412,-0.0002637067809700966,0.00032961100805550814
1761508323719954200,3.5399541015625,0.0014065681025385857,0.002492398489266634,-0.0018025157041847706
1761508323729926400,3.549926513671875,0.00079771364107728,0.000840253836940974,0.0000773468054831028
1761508323739897300,3.5598974609375,0.0008544391021132469,-0.00013179995585232973,-0.0009202733635902405
1761508323749869300,3.569869384765625,0.0018090521916747093,0.0028294920921325684,-0.0021037289407104254
1761508323759840300,3.57984033203125,0.00028226152062416077,-0.0018360997783020139,-0.0005548345507122576
1761508323769811500,3.5898115234375,0.001658526249229908,-0.00005104939918965101,0.00043931358959525824
1761508323779783200,3.599783203125,-0.0006682779639959335,0.001242980477400124,0.0023610505741089582
1761508323789754400,3.60975439453125,0.0021378304809331894,-0.0014436880592256784,-0.0011498181847855449
1761508323799726300,3.619726318359375,-0.001542924903333187,-0.0015616659075021744,-0.0003545982763171196
1761508323809697300,3.629697265625,0.0012855669483542442,0.0007167879957705736,0.0007973180618137121
1761508323819668200,3.639668212890625,-0.0010737278498709202,-0.0022521039936691523,0.0018098517321050167
1761508323829640400,3.649640380859375,0.0007182811386883259,0.0014503791462630033,0.0002200842136517167
1761508323839611400,3.659611328125,0.003387833945453167,-0.0011680409079417586,-0.0026577275712043047
1761508323849582300,3.669582275390625,0.00011395663022994995,-0.002274478320032358,0.0012452414957806468
1761508323859554300,3.67955419921875,-0.0010314686223864555,0.00006803800351917744,-0.0019422958139330149
1761508323869525500,3.689525390625,-0.0001262468285858631,-0.0005614334950223565,0.0009677194757387042
1761508323879497200,3.699497314453125,-0.0003661974333226681,-0.0014101829146966338,-0.00020087556913495064
1761508323889468400,3.709468505859375,0.0011019171215593815,-0.00029695581179112196,-0.0002689604298211634
1761508323899439400,3.719439453125,-0.0005713473074138165,0.0004918725462630391,-0.0006750925094820559
1761508323909411300,3.729411376953125,-0.0003776359371840954,-0.0016721846768632531,0.0006788598839193583
1761508323919382300,3.73938232421875,-0.0010407627560198307,0.0003182617947459221,-0.001410123659297824
1761508323929354500,3.7493544921875,0.0016539045609533787,-0.0014909362653270364,0.00198024557903409
1761508323939325400,3.759325439453125,0.000978260301053524,0.00038685870822519064,0.0006976672448217869
1761508323949296000,3.769296142578125,0.0010531134903430939,0.0013687136815860868,0.001246415777131915
1761508323959268400,3.779268310546875,-0.0015218975022435188,-0.0008920436957851052,-0.0004244514857418835
1761508323969239300,3.7892392578125,-0.0004577338695526123,0.00011197524145245552,0.000984243699349463
1761508323979210500,3.79921044921875,-0.0014114119112491608,-0.00018496718257665634,-0.000011778553016483784
1761508323989182200,3.80918212890625,-0.00013704970479011536,0.0016167395515367389,-0.0019397024298086762
1761508323999153400,3.8191533203125,-0.00011015171185135841,-0.0017524254508316517,0.0007692649960517883
1761508324009125000,3.829125,-0.0003652838058769703,-0.0020824926905333996,-0.00009149278048425913
1761508324019096300,3.839096435546875,-0.0019221673719584942,-0.0009913953253999352,-0.0006480934098362923
1761508324029067300,3.8490673828125,-0.0008298279717564583,-0.0009939434239640832,-0.00020472757751122117
1761508324039039500,3.85903955078125,0.00026925839483737946,-0.0018067402997985482,-0.00047370686661452055
1761508324049010200,3.86901025390625,-0.0009465347975492477,-0.0006565151270478964,0.0007737412815913558
1761508324058982400,3.878982421875,-0.0012192418798804283,-0.00142350560054183,-0.0009072459652088583
1761508324068953300,3.888953369140625,0.00031741801649332047,-0.0009103728225454688,0.00007697008550167084
1761508324078924500,3.898924560546875,0.00017094425857067108,-0.0011926678707823157,0.00029055553022772074
1761508324088896300,3.908896240234375,-0.0002880948595702648,-0.000224773189984262,0.00035392469726502895
1761508324098867500,3.918867431640625,-0.0021829335018992424,-0.000804809620603919,-0.00037018873263150454
1761508324108839200,3.928839111328125,-0.00030152546241879463,-0.0014320823829621077,0.001967506017535925
1761508324118810400,3.938810302734375,-0.001533770002424717,-0.0007559056393802166,-0.0026512141339480877
1761508324128781300,3.94878125,0.00022179260849952698,0.00022099469788372517,-0.0021596113219857216
1761508324138753500,3.95875341796875,0.002295596059411764,-0.0006570495897904038,-0.0007689084159210324
1761508324148724200,3.96872412109375,0.001937776803970337,0.00026801356580108404,-0.0001712291268631816
1761508324158696400,3.978696533203125,0.0006227078847587109,0.000526606454513967,-0.0018514174735173583
1761508324168667600,3.988667724609375,-0.00017419084906578064,-0.0012424893211573362,0.0017963675782084465
1761508324178637600,3.998637451171875,-0.000551294069737196,-0.000186013407073915,0.00046025949995964766
1761508324188608800,4.00860888671875,-0.0018815649673342705,0.0008857989450916648,-0.0006738554802723229
1761508324198580500,4.01858056640625,0.0038490251172333956,-0.0017848190618678927,0.0005376165499910712
1761508324208551700,4.0285517578125,-0.0003601685166358948,0.000893225718755275,0.0013672152999788523
1761508324218523400,4.0385234375,0.0005130819045007229,-0.0010932260192930698,0.002203447977080941
1761508324228494600,4.04849462890625,-0.00008959369733929634,-0.0009646060643717647,0.0015269406139850616
1761508324238465500,4.058465576171875,-0.0016083945520222187,-0.000132368179038167,-0.0009809581097215414
1761508324248437800,4.068437744140625,-0.0016908682882785797,-0.0005588150816038251,0.001902068150229752
1761508324258408400,4.078408447265625,0.0011169025674462318,0.000645998923573643,-0.0031840368174016476
1761508324268379600,4.088379638671875,-0.0009718132205307484,0.0012923004105687141,0.00023457210045307875
1761508324278351600,4.0983515625,-0.0005355873145163059,-0.0010707223555073142,0.00043404288589954376
1761508324288322600,4.108322509765625,-0.00044276146218180656,-0.0010867812670767307,-0.00011895422358065844
1761508324298294500,4.11829443359375,-0.0014771330170333385,0.0018616042798385024,-0.00010883423965424299
1761508324308265700,4.128265625,-0.0019189170561730862,-0.0005769907729700208,0.00046057149302214384
1761508324318236700,4.138236572265625,-0.0001383274793624878,-0.00041879911441355944,-0.0015037761768326163
1761508324328208600,4.148208740234375,-0.00008135335519909859,0.0015378940152004361,-0.0022568260319530964
1761508324338179600,4.1581796875,0.0017905826680362225,-0.00004349101800471544,0.001528591150417924
1761508324348151800,4.16815185546875,-0.0010531065054237843,0.0019823017064481974,-0.0014283916680142283
1761508324358122500,4.17812255859375,-0.0010664216242730618,-0.0007069584680721164,-0.0011221282184123993
1761508324368093400,4.188093505859375,0.000016483943909406662,0.0004576663486659527,0.000004551024176180363
1761508324378065700,4.198065673828125,0.0004292735829949379,0.0007612666813656688,-0.00262611941434443
1761508324388036600,4.20803662109375,-0.0005426225252449512,-0.0009584507206454873,0.002130342647433281
1761508324398008600,4.218008544921875,-0.00025446806102991104,0.0004072182346135378,0.002177480375394225
1761508324407979500,4.2279794921875,-0.0009816689416766167,0.001794684212654829,-0.0011837361380457878
1761508324417950700,4.23795068359375,-0.0005835266783833504,0.0006969291716814041,0.0012575837317854166
1761508324427922400,4.24792236328125,-0.00013014068827033043,0.0011342954821884632,-0.0036369175650179386
1761508324437893600,4.2578935546875,-0.0006047161296010017,0.0024166074581444263,-0.00015483435709029436
1761508324447864600,4.267864501953125,-0.0006698118522763252,0.0025299694389104843,0.0018789777532219887
1761508324457836500,4.27783642578125,0.00013233209028840065,-0.0014948660973459482,0.0002912011696025729
1761508324467807500,4.287807373046875,0.00010603340342640877,-0.00018788350280374289,0.0037266789004206657
1761508324477779700,4.29777978515625,-0.0009235446341335773,-0.0010984183754771948,-0.0003309131716378033
1761508324487750700,4.307750732421875,-0.000732986256480217,0.0003058988368138671,0.0002412897301837802
1761508324497721600,4.3177216796875,0.0012470739893615246,-0.0009266121778637171,-0.00014087388990446925
1761508324507693600,4.327693603515625,0.0005221306346356869,0.0024927433114498854,-0.0003475549747236073
1761508324517664800,4.337664794921875,0.002360776998102665,0.0004753987304866314,0.00021250778809189796
1761508324527636500,4.347636474609375,-0.0005943076685070992,-0.00013405235949903727,0.0012633372098207474
1761508324537607700,4.357607666015625,0.0005122357979416847,0.0011133721563965082,-0.0005856954958289862
1761508324547578600,4.36757861328125,-0.00035932986065745354,-0.0003653551684692502,-0.001253451220691204
1761508324557550600,4.377550537109375,-0.001245096791535616,0.0006972461706027389,0.0009865335887297988
1761508324567522600,4.3875224609375,-0.00022362498566508293,-0.0020917134825140238,-0.0014382904628291726
1761508324577493800,4.39749365234375,-0.0022481600753962994,0.0008715857984498143,0.0010986367706209421
1761508324587464400,4.40746435546875,0.0006090705282986164,0.001093749888241291,0.0014014049666002393
1761508324597436700,4.417436767578125,-0.0003611193969845772,0.0010455467272549868,0.0014213788090273738
1761508324607407600,4.42740771484375,0.0014381762593984604,0.0006124373758211732,0.0003024972975254059
1761508324617379600,4.437379638671875,-0.003497992642223835,-0.0023186379112303257,0.0008095632074400783
1761508324627350500,4.4473505859375,0.0021129907108843327,0.00022997078485786915,0.0007265309104695916
1761508324637321500,4.457321533203125,-0.0009650904685258865,0.0010813833214342594,-0.000018355203792452812
1761508324647293400,4.46729345703125,-0.00141588831320405,0.0009450871148146689,-0.0031211208552122116
1761508324657264400,4.477264404296875,0.0005777543410658836,0.00035599584225565195,0.0009889359353110194
1761508324667235600,4.487235595703125,0.0023655868135392666,0.0008196728304028511,0.0009444823954254389
1761508324677207600,4.49720751953125,0.0016436036676168442,-0.00014838622882962227,-0.00008243252523243427
1761508324687178500,4.507178466796875,0.00013102171942591667,-0.0010461155325174332,0.0021418114192783833
1761508324697150500,4.517150390625,0.0014474219642579556,0.0006194253219291568,-0.00014184939209371805
1761508324707121700,4.52712158203125,0.001099498476833105,0.000136310001835227,0.0020820186473429203
1761508324717092600,4.537092529296875,0.001106955111026764,-0.0018251080764457583,0.001643129624426365
1761508324727064600,4.547064697265625,-0.0003981068730354309,-0.0004716354887932539,-0.0015183012001216412
1761508324737035500,4.557035400390625,0.0022381567396223545,0.0017374566523358226,0.000424741068854928
1761508324747007500,4.567007568359375,-0.001027380581945181,0.0008874159539118409,-0.0014586725737899542
1761508324756978400,4.576978515625,-0.0020995684899389744,-0.0004063477972522378,-0.0006352232303470373
1761508324766949600,4.58694970703125,0.001362483948469162,-0.000270737218670547,0.0009417157853022218
1761508324776921600,4.596921630859375,0.0013249334879219532,-0.00033944693859666586,0.0024338848888874054
1761508324786892500,4.606892578125,-0.0016070837154984474,0.0025579994544386864,-0.003149694763123989
1761508324796863500,4.616863525390625,0.0002667163498699665,-0.000972287030890584,-0.0008990574860945344
1761508324806835700,4.626835693359375,-0.0005548512563109398,0.0015796365914866328,0.00016521161887794733
1761508324816806700,4.636806640625,0.0003988267853856087,0.0006720313103869557,-0.001198326819576323
1761508324826778600,4.646778564453125,0.000903070904314518,-0.0007734652608633041,0.0014977441169321537
1761508324836749600,4.65674951171875,0.0010687196627259254,0.0014377572806552052,0.00018560478929430246
1761508324846720500,4.666720458984375,-0.0019646231085062027,0.0004960477817803621,-0.0008289563120342791
1761508324856692500,4.6766923828125,-0.00042957626283168793,0.0007336016860790551,-0.0009919417789205909
1761508324866663400,4.686663330078125,-0.0010161390528082848,0.00023385032545775175,-0.0034323041327297688
1761508324876635600,4.6966357421875,0.0000073141418397426605,0.0003387788310647011,0.0002479181857779622
1761508324886606300,4.7066064453125,0.0007918449118733406,-0.0006540891481563449,0.00029272655956447124
1761508324896577500,4.71657763671875,-0.0004997886717319489,0.0007302219746634364,-0.001183729968033731
1761508324906549800,4.7265498046875,0.0012846793979406357,0.00184969964902848,-0.0004431160050444305
1761508324916520700,4.736520751953125,0.0011328794062137604,-0.00013089319691061974,-0.0009568397654220462
1761508324926492700,4.74649267578125,0.0012672655284404755,0.001480075647123158,0.0010077954502776265
1761508324936463600,4.756463623046875,-0.0014510229229927063,0.00011493917554616928,-0.0014620200963690877
1761508324946434600,4.7664345703125,-0.0009173108264803886,-0.0010460022604092956,0.003794986056163907
1761508324956406500,4.776406494140625,-0.000522097572684288,0.0010208769235759974,0.0016404888592660427
1761508324966377500,4.78637744140625,0.00040868576616048813,0.0009318120428360999,-0.0010102232918143272
1761508324976349700,4.796349609375,-0.00024165818467736244,0.00007587205618619919,0.002701424527913332
1761508324986320400,4.8063203125,-0.0004145395942032337,0.0008628463838249445,-0.0013218236854299903
1761508324996291600,4.81629150390625,0.0001101028174161911,0.00027988036163151264,-0.0023319607134908438
1761508325006263600,4.826263671875,-0.0008486425504088402,-0.0006121047772467136,-0.0005372032755985856
1761508325016234800,4.83623486328125,-0.0022803572937846184,-0.0003276793286204338,0.001211161958053708
1761508325026205400,4.846205322265625,-0.000009372364729642868,0.0010389687959104776,-0.0022406585048884153
1761508325036177700,4.856177734375,0.002375488169491291,0.0006866325275041163,-0.0007785831112414598
1761508325046148600,4.866148681640625,0.00021692784503102303,0.00008099991828203201,0.0015085404738783836
1761508325056120600,4.87612060546875,0.002613240387290716,0.003020863514393568,-0.00006858340930193663
1761508325066091500,4.886091552734375,-0.002403161022812128,-0.00003139919135719538,-0.0015989290550351143
1761508325076062700,4.896062744140625,-0.0010326984338462353,0.00021201372146606445,-0.0009619009215384722
1761508325086034400,4.906034423828125,-0.0006080735474824905,-0.002311265328899026,0.0018762281397357583
1761508325096005600,4.916005615234375,-0.00017744023352861404,0.0010855967411771417,0.00035183469299227
1761508325105977600,4.9259775390625,0.0004117768257856369,0.00045612675603479147,0.003250070381909609
1761508325115948800,4.93594873046875,-0.0010111499577760696,-0.0015433744993060827,-0.0010195095092058182
1761508325125919500,4.94591943359375,-0.00018530432134866714,-0.0010705528547987342,-0.00006987643428146839
1761508325135891700,4.9558916015625,-0.0036261086352169514,-0.00047959748189896345,-0.0014752264833077788
1761508325145862700,4.965862548828125,-0.000699065625667572,-0.0010776246199384332,-0.003085835138335824
1761508325155834600,4.975834716796875,-0.0000207582488656044,-0.002326647285372019,-0.00046315405052155256
1761508325165805600,4.9858056640625,-0.0003432692028582096,-0.0009809724288061261,0.0005248745437711477
1761508325175776500,4.995776611328125,0.000328646507114172,0.0008624675683677197,-0.00030496646650135517
1761508325185748500,5.00574853515625,-0.0015649213455617428,0.001896939123980701,-0.0024597388692200184
1761508325195719400,5.015719482421875,0.003290820401161909,0.0004170205211266875,-0.0012264291290193796
1761508325205690400,5.0256904296875,0.00043143704533576965,-0.0011841104133054614,0.0013200946850702167
1761508325215662600,5.03566259765625,0.0002466137520968914,0.0003107218071818352,0.0014740255428478122
1761508325225633300,5.04563330078125,-0.0005460912361741066,0.001655510044656694,0.0002221341710537672
1761508325235605500,5.05560546875,-0.0008536865934729576,0.0010893219150602818,-0.0004255466046743095
1761508325245576400,5.065576416015625,-0.00008764071390032768,0.0017355452291667461,-0.004713543690741062
1761508325255547600,5.075547607421875,-0.002328956965357065,-0.0024408239405602217,0.00028228037990629673
1761508325265519400,5.085519287109375,0.0009958543814718723,-0.0014165423344820738,-0.001125006820075214
1761508325275490600,5.095490478515625,-0.001542670652270317,0.0009313004557043314,0.0012308255536481738
1761508325285462300,5.105462158203125,0.001297526527196169,-0.0000057854922488331795,0.001142628025263548
1761508325295433500,5.11543359375,0.00151457404717803,-0.0009631918510422111,-0.0009729872108437121
1761508325305404400,5.125404296875,0.0014174766838550568,-0.0011975672096014023,-0.0016548229614272714
1761508325315376600,5.135376708984375,-0.0016470225527882576,0.0006203065859153867,-0.0003251066664233804
1761508325325347300,5.145347412109375,-0.0008498439565300941,-0.0007217966485768557,-0.00027325295377522707
1761508325335319600,5.155319580078125,0.0007573738694190979,0.0006912766839377582,-0.00031799409771338105
1761508325345290500,5.16529052734375,-0.0003307107836008072,0.00039420428220182657,-0.0038459652569144964
1761508325355261400,5.175261474609375,0.00117184454575181,-0.002281473483890295,-0.0020792242139577866
1761508325365233400,5.1852333984375,-0.0009923549368977547,0.0006247246637940407,0.001459585502743721
1761508325375204600,5.19520458984375,-0.000478365458548069,0.00023803371004760265,0.0014254970010370016
1761508325385175600,5.205175537109375,-0.0014190608635544777,-0.0004924507811665535,-0.003058055182918906
1761508325395147500,5.2151474609375,-0.0001505967229604721,0.0009861362632364035,0.00036756880581378937
1761508325405118500,5.225118408203125,0.0014768890105187893,0.001330881961621344,-0.0000058212317526340485
1761508325415090700,5.235090576171875,-0.00039504654705524445,-0.0005338633200153708,0.002106864470988512
1761508325425061400,5.245061279296875,0.0004034005105495453,0.0008595692343078554,-0.0018804834689944983
1761508325435032600,5.255032470703125,0.0021725385449826717,-0.0006371273193508387,0.0009435324463993311
1761508325445004500,5.265004638671875,0.0007533691823482513,-0.0008533698273822665,0.0008271737024188042
1761508325454975500,5.2749755859375,-0.001544139813631773,-0.00021554273553192616,0.00001783913467079401
1761508325464947500,5.284947509765625,0.0010070553980767727,0.0017099229153245687,0.0001815417781472206
1761508325474918700,5.294918701171875,-0.0007101511582732201,0.00035384122747927904,-0.0009811943164095283
1761508325484889600,5.3048896484375,-0.00011495919898152351,0.000778329442255199,-0.001605409663170576
1761508325494861600,5.314861572265625,-0.000047048553824424744,-0.000485873082652688,0.0003160609630867839
1761508325504832500,5.32483251953125,-0.0008376846089959145,0.0006049234070815146,0.0016508027911186218
1761508325514804500,5.334804443359375,0.00133838364854455,0.0012395547237247229,0.0012499969452619553
1761508325524775400,5.344775390625,-0.002467760816216469,-0.0005048720631748438,0.0007069188868626952
1761508325534746400,5.354746337890625,0.0005685086362063885,0.0009036739356815815,0.0014896219363436103
1761508325544718600,5.364718505859375,0.0009721429087221622,-0.0018076130654662848,0.002669887151569128
1761508325554689300,5.374689208984375,-0.0016199112869799137,0.0025056423619389534,-0.000635894772130996
1761508325564661500,5.38466162109375,-0.00012132665142416954,-0.000964608509093523,0.0021799264941364527
1761508325574632400,5.394632568359375,-0.0006616818718612194,0.0003214320167899132,-0.001511481124907732
1761508325584603600,5.404603759765625,-0.0006093718111515045,0.0035959207452833652,0.0011440296657383442
1761508325594575400,5.414575439453125,-0.0014208368957042694,-0.00043637119233608246,-0.00048715656157583
1761508325604546600,5.424546630859375,0.0020626550540328026,0.0010353503748774529,0.0024918317794799805
1761508325614517500,5.434517578125,-0.0006556333974003792,0.0005796834593638778,0.0033863878343254328
1761508325624489500,5.444489501953125,0.0002170759253203869,-0.004274650476872921,0.000335854128934443
1761508325634460400,5.45446044921875,-0.0011286190710961819,-0.00045354722533375025,-0.001059109577909112
1761508325644432600,5.4644326171875,-0.0012534582056105137,-0.00008750136476010084,0.002496365923434496
1761508325654403300,5.4744033203125,0.001299181953072548,-0.0017850003205239773,-0.0013191448524594307
1761508325664374500,5.48437451171875,0.0003279619850218296,0.0009754201164469123,-0.0024881334975361824
1761508325674346500,5.494346435546875,0.002086447551846504,0.002590893767774105,-0.0023632312659174204
1761508325684317700,5.504317626953125,-0.000038047321140766144,0.0013503306545317173,0.002940674079582095
1761508325694289400,5.514289306640625,0.0008415947668254375,-0.0019043185748159885,0.00011745712254196405
1761508325704260600,5.524260498046875,0.0008129752241075039,0.0004624355351552367,0.0003325088182464242
1761508325714231600,5.5342314453125,0.00023613497614860535,0.0017540686530992389,-0.00026190868811681867
1761508325724203500,5.54420361328125,0.0009202072396874428,0.0029607019387185574,0.002302158623933792
1761508325734174500,5.554174560546875,0.0008501661941409111,0.00024640816263854504,-0.0004225214943289757
1761508325744146700,5.564146728515625,0.0014414158649742603,-0.0015240894863381982,0.0010631716577336192
1761508325754117400,5.574117431640625,-0.00032186321914196014,-0.00007719406858086586,0.0003627602709457278
1761508325764088300,5.58408837890625,-0.0014950218610465527,0.001242378493770957,-0.0015669683925807476
1761508325774060500,5.594060546875,-0.00004919152706861496,-0.0014990795170888305,0.0011638370342552662
1761508325784031500,5.604031494140625,-0.0001392853446304798,-0.002044928725808859,0.0001686898758634925
1761508325794002400,5.61400244140625,-0.0003163856454193592,-0.00022598973009735346,0.0008691012626513839
1761508325803974400,5.623974365234375,-0.00016023777425289154,0.0001866496168076992,-0.00035823648795485497
1761508325813945600,5.633945556640625,0.002380950842052698,-0.001212575240060687,0.0015507173957303166
1761508325823917300,5.643917236328125,-0.001092227641493082,0.0004739185096696019,-0.000846239214297384
1761508325833888500,5.653888427734375,0.0002678483724594116,0.0008672673720866442,-0.00003370875492691994
1761508325843859500,5.663859375,-0.003254375420510769,0.0012305472046136856,0.003139759413897991
1761508325853831400,5.67383154296875,-0.0006902841851115227,-0.001140465261414647,-0.0010307508055120707
1761508325863802400,5.68380224609375,-0.0007104938849806786,0.0000889836810529232,-0.0020886026322841644
1761508325873774600,5.693774658203125,0.002236825879663229,0.0015199001645669341,0.002021720167249441
1761508325883745500,5.70374560546875,0.0014163916930556297,-0.002731305081397295,-0.0018712598830461502
1761508325893716500,5.713716552734375,0.0001553851179778576,-0.0007267434848472476,0.0024699592031538486
1761508325903688400,5.7236884765625,-0.0011142781004309654,0.0015789300668984652,0.002177515299990773
1761508325913659600,5.73365966796875,-0.000738772563636303,0.0007576111238449812,0.0014611249789595604
1761508325923630600,5.743630615234375,-0.0005208924412727356,-0.0017170459032058716,0.0008516215020790696
1761508325933602600,5.7536025390625,-0.00018879631534218788,0.0017823476810008287,-0.0010149881709367037
1761508325943573500,5.763573486328125,0.0004973276518285275,0.0014421764062717557,-0.0004163664998486638
1761508325953545500,5.77354541015625,-0.0011903177946805954,0.000016852631233632565,-0.0013783002505078912
1761508325963516400,5.783516357421875,-0.0010518846102058887,0.0023836148902773857,-0.002410454675555229
1761508325973487400,5.7934873046875,-0.00013149622827768326,0.00029649550560861826,0.0022535393945872784
1761508325983459600,5.80345947265625,0.0005089542828500271,-0.0012428746558725834,0.0005332076689228415
1761508325993430300,5.81343017578125,-0.0002873307093977928,0.001314292661845684,-0.00042899243999272585
1761508326003402500,5.823402587890625,-0.001593809574842453,-0.0020364648662507534,0.0020971044432371855
1761508326013373400,5.83337353515625,0.0019545862451195717,0.0004879453335888684,-0.00015379925025627017
1761508326023344600,5.8433447265625,-0.0004605324938893318,0.0017225745832547545,-0.00122782401740551
1761508326033316400,5.85331640625,0.0003980705514550209,0.0018906199838966131,0.0007130878511816263
1761508326043287600,5.86328759765625,0.00020492961630225182,0.0008553880616091192,0.0008537055691704154
1761508326053259300,5.87325927734375,-0.00015220046043395996,0.0000029101502150297165,0.0008547708857804537
1761508326063230500,5.88323046875,-0.00005439389497041702,-0.0015003230655565858,-0.0004330568481236696
1761508326073201400,5.893201416015625,-0.0014890390448272228,-0.001888079452328384,0.001259382115676999
1761508326083173600,5.903173583984375,0.002351649571210146,-0.0006412694929167628,-0.0026385218370705843
1761508326093144300,5.913144287109375,-0.002186110708862543,0.00044050661381334066,0.0009570119436830282
1761508326103115500,5.923115478515625,0.0003262115642428398,-0.0003426744369789958,-0.0010460142511874437
1761508326113087500,5.93308740234375,0.0006109033711254597,-0.0006838253466412425,-0.00039274076698347926
1761508326123058400,5.943058349609375,0.001330893486738205,0.0012746560387313366,0.00028441124595701694
1761508326133030400,5.953030517578125,0.0003580404445528984,0.00027117691934108734,0.0023369095288217068
1761508326143001600,5.963001708984375,-0.0007173288613557816,-0.000021675601601600647,-0.0011373533634468913
1761508326152972500,5.97297265625,0.0020294557325541973,-0.0003652232699096203,-0.0007155085913836956
1761508326162944500,5.982944580078125,-0.001846920233219862,0.0017418409697711468,-0.0006806012243032455
1761508326172915500,5.99291552734375,0.002606417518109083,0.00021824648138135672,0.00020356825552880764
1761508326182887700,6.0028876953125,0.0010084323585033417,-0.0020446251146495342,0.0006851676153019071
1761508326192858400,6.0128583984375,-0.0009079785086214542,-0.0008549910271540284,-0.0002128502819687128
1761508326202829300,6.022829345703125,-0.00047753937542438507,-0.0006168005056679249,-0.0007235315861180425
1761508326212801500,6.032801513671875,0.0019746990874409676,0.0006194388261064887,0.0003079107264056802
1761508326222772500,6.0427724609375,0.0028718863613903522,0.00012951740063726902,-0.002289323601871729
1761508326232743400,6.052743408203125,0.0011014165356755257,0.0007625507423654199,0.002496909350156784
1761508326242715400,6.06271533203125,-0.000055217184126377106,-0.0006357495440170169,-0.000029418617486953735
1761508326252686600,6.0726865234375,0.0008156364783644676,-0.0011265702778473496,-0.0015852372162044048
1761508326262658300,6.082658203125,0.0017018220387399197,0.0012668344425037503,0.0013754500541836023
1761508326272629500,6.09262939453125,0.0010062046349048615,-0.0015702310483902693,0.0013376330025494099
1761508326282600400,6.102600341796875,0.0012855343520641327,-0.00039063417352735996,0.001190324081107974
1761508326292572400,6.112572509765625,0.0010266751050949097,-0.0022476562298834324,0.0007583593251183629
1761508326302543400,6.12254345703125,-0.0013904338702559471,0.0031293858774006367,0.00016089389100670815
1761508326312515600,6.132515625,0.0034221643581986427,-0.0012413939693942666,-0.00025189603911712766
1761508326322486500,6.142486572265625,-0.00012831343337893486,-0.001467344118282199,-0.0012893152888864279
1761508326332457500,6.15245751953125,-0.00030141882598400116,-0.0013051577843725681,-0.000007535796612501144
1761508326342429400,6.162429443359375,-0.00028619542717933655,0.001849158899858594,-0.0016893009888008237
1761508326352400600,6.172400634765625,-0.00013466179370880127,0.001709609292447567,-0.00032762670889496803
1761508326362372400,6.182372314453125,0.0013623526319861412,-0.0024524887558072805,-0.0024742227979004383
1761508326372343600,6.192343505859375,0.0010174731723964214,-0.0029587557073682547,-0.0005607416969724
1761508326382314500,6.202314453125,0.0021798047237098217,-0.00018652703147381544,-0.0011082451092079282
1761508326392286500,6.212286376953125,-0.0004015974700450897,0.0027826311998069286,0.0004033651202917099
1761508326402257400,6.22225732421875,0.0005184365436434746,0.0009124235366471112,-0.0019683092832565308
1761508326412228400,6.232228271484375,-0.0011548278853297234,0.0025539961643517017,0.0016256265807896852
1761508326422200300,6.242200439453125,0.0014749509282410145,-0.0012350488686934114,-0.00024760235100984573
1761508326432171300,6.252171142578125,-0.0007519843056797981,0.00030985078774392605,-0.0026212777011096478
1761508326442143500,6.2621435546875,-0.00023999717086553574,-0.0012756637297570705,0.00023293355479836464
1761508326452114400,6.272114501953125,-0.002059468999505043,0.0023811226710677147,0.0002992462832480669
1761508326462085400,6.28208544921875,0.00026771891862154007,-0.0023848707787692547,0.00002474954817444086
1761508326472057300,6.292057373046875,0.002491192426532507,-0.0006237226771190763,0.001126499380916357
1761508326482028500,6.302028564453125,-0.0007044859230518341,0.001303867669776082,0.0000508336815983057
1761508326492000300,6.312000244140625,-0.0005020853132009506,0.0005477962549775839,-0.0004786027129739523
1761508326501971500,6.321971435546875,-0.0002273591235280037,-0.0008903942070901394,-0.0018578553572297096
1761508326511942400,6.3319423828125,-0.0008348259143531322,-0.0016493950970470905,-0.0010905986418947577
1761508326521914400,6.341914306640625,0.0012426897883415222,0.0001231880160048604,-0.0010036997264251113
1761508326531885300,6.35188525390625,0.000768913421779871,-0.0002927976893261075,-0.0011805335525423288
1761508326541857500,6.361857421875,-0.00010506436228752136,0.0005634111003018916,-0.00018291035667061806
1761508326551828500,6.371828369140625,-0.0008499501273036003,-0.00018440454732626677,-0.00034749374026432633
1761508326561799400,6.38179931640625,0.000034543685615062714,-0.000969030661508441,-0.0009320582030341029
1761508326571771400,6.391771484375,-0.0015372540801763535,-0.00033812783658504486,-0.00007079192437231541
1761508326581742600,6.40174267578125,0.00017686095088720322,-0.0011285207001492381,-0.001930431229993701
1761508326591713500,6.411713623046875,-0.0027174619026482105,-0.002171148080378771,0.0017271542456001043
1761508326601685500,6.421685546875,0.0014661871828138828,-0.0007111306767910719,0.0012603184441104531
1761508326611656400,6.431656494140625,0.00013860128819942474,-0.00016118783969432116,0.0000142253702506423
1761508326621628400,6.44162841796875,0.000004917848855257034,-0.00013378937728703022,-0.0014467578148469329
1761508326631599400,6.451599365234375,-0.0004211878404021263,-0.0016081153880804777,0.0013570181326940656
1761508326641570300,6.4615703125,-0.002202821895480156,-0.001624070922844112,-0.0005443450063467026
1761508326651542500,6.47154248046875,0.001481128390878439,0.0011030060704797506,-0.001419992302544415
1761508326661513500,6.481513427734375,-0.0022111069411039352,0.001042259274981916,0.00019783724565058947
1761508326671485400,6.4914853515625,0.0011402149684727192,0.0007706168107688427,-0.00022720335982739925
1761508326681456600,6.50145654296875,0.0001307590864598751,-0.00018228439148515463,0.00042539252899587154
1761508326691427600,6.511427490234375,-0.0005502109415829182,-0.001013989676721394,-0.001004458637908101
1761508326701399600,6.521399658203125,0.001521189697086811,-0.0010060942731797695,-0.0008642780012451112
1761508326711370500,6.53137060546875,-0.0016807294450700283,0.00017741462215781212,-0.002237670123577118
1761508326721342500,6.541342529296875,0.000939567107707262,-0.002521681133657694,0.0006941979518160224
1761508326731313400,6.5513134765625,-0.0007930858992040157,-0.001539507182314992,0.000034532975405454636
1761508326741284400,6.561284423828125,-0.0007702508009970188,-0.0006301576504483819,0.0002882513217628002
1761508326751256600,6.571256591796875,0.0013256571255624294,0.0014377868501469493,0.00011168373748660088
1761508326761227300,6.581227294921875,0.0009865323081612587,-0.0008668259251862764,0.0013522604713216424
1761508326771198500,6.591198486328125,0.0007007750682532787,0.0022477409802377224,0.00022148224525153637
1761508326781170400,6.60117041015625,-0.0004846714437007904,-0.002289974596351385,0.00017589388880878687
1761508326791141600,6.6111416015625,-0.00011209491640329361,-0.0016010146355256438,-0.0016963083762675524
1761508326801113300,6.62111328125,-0.001344921998679638,-0.0017374976305291057,-0.0005443878471851349
1761508326811084500,6.63108447265625,-0.0010791392996907234,-0.001012318884022534,-0.0003907234640792012
1761508326821055500,6.641055419921875,-0.002462383359670639,-0.0003242582315579057,-0.0003368815523572266
1761508326831027500,6.65102734375,-0.00011001294478774071,0.0024246564134955406,-0.0013928249245509505
1761508326840998400,6.660998291015625,-0.0010665934532880783,0.0011631088564172387,0.00023267092183232307
1761508326850970600,6.670970703125,0.0009137331508100033,-0.0002726012608036399,0.0021059385035187006
1761508326860941300,6.68094140625,0.0014215405099093914,-0.002253858372569084,0.0008176220580935478
1761508326870912500,6.69091259765625,-0.001202206127345562,0.0005832071183249354,0.0007366619538515806
1761508326880884500,6.700884521484375,0.003382846713066101,0.0010785784106701612,-0.0034827382769435644
1761508326890855400,6.71085546875,-0.00037966715171933174,-0.0016231985064223409,0.0029208327177911997
1761508326900827400,6.720827392578125,0.0031622154638171196,0.001743336790241301,-0.0005544207524508238
1761508326910798600,6.730798583984375,0.0003001159057021141,-0.00019517820328474045,-0.0007240641280077398
1761508326920769500,6.74076953125,0.0014622220769524574,-0.00035169930197298527,0.000824898830614984
1761508326930741500,6.750741455078125,-0.0017764479853212833,0.0010195623617619276,0.000017961137928068638
1761508326940712400,6.76071240234375,-0.0006289123557507992,-0.000877052778378129,0.001345470896922052
1761508326950683400,6.770683349609375,-0.0013729999773204327,-0.0007276495452970266,0.0008669007802382112
1761508326960655400,6.7806552734375,-0.00126723013818264,-0.002367036882787943,0.00015498825814574957
1761508326970626300,6.790626220703125,0.0012297499924898148,-0.0015087000792846084,0.00007535971235483885
1761508326980598500,6.8005986328125,0.000364513136446476,0.0010811013635247946,0.0018476743716746569
1761508326990569500,6.810569580078125,0.0012979512102901936,-0.0004475531168282032,-0.0016802152385935187
1761508327000540400,6.82054052734375,0.0022777668200433254,0.0006323731504380703,-0.0016853068955242634
1761508327010512400,6.830512451171875,0.00003511877730488777,-0.00017802673391997814,0.00037837657146155834
1761508327020483600,6.840483642578125,0.0006022532470524311,0.0014493685448542237,-0.0024611640255898237
1761508327030455300,6.850455322265625,-0.0008483710698783398,-0.002300095744431019,-0.0007847041124477983
1761508327040426500,6.860426513671875,-0.001618583220988512,-0.0011795128230005503,-0.0011138208210468292
1761508327050397400,6.8703974609375,0.00024962425231933594,0.000823450565803796,0.0003735546488314867
1761508327060369400,6.880369384765625,-0.0005295481532812119,0.00003530026879161596,-0.0003206420224159956
1761508327070340400,6.89034033203125,-0.0006696302443742752,0.0012547617079690099,-0.0006737771909683943
1761508327080312600,6.9003125,0.0009706313721835613,0.00035277626011520624,0.0008505671285092831
1761508327090283500,6.910283447265625,-0.0021540559828281403,0.0020143224392086267,-0.0023795808665454388
1761508327100254500,6.92025439453125,0.002389519475400448,0.00019320507999509573,-0.002810815814882517
1761508327110226400,6.930226318359375,0.0016337144188582897,-0.0008022845722734928,-0.0003428645431995392
1761508327120197600,6.94019775390625,0.00008466001600027084,0.0008344773668795824,0.00030808255542069674
1761508327130168300,6.950168212890625,0.0006143627688288689,0.0011535240337252617,0.00019303406588733196
1761508327140140500,6.960140625,-0.002630844246596098,-0.0017378554912284017,0.0013442994095385075
1761508327150111500,6.970111572265625,-0.0012260260991752148,-0.0009905725019052625,0.00014241482131183147
1761508327160083500,6.98008349609375,-0.0007612453773617744,-0.00021000916603952646,0.0008812235901132226
1761508327170054400,6.990054443359375,0.001014284323900938,0.0014555318048223853,-0.0008745985105633736
1761508327180025000,7.000025146484375,-0.0006050667725503445,0.00019878929015249014,0.0032084137201309204
1761508327189997000,7.0099970703125,-0.00021384842693805695,0.0015420876443386078,-0.0011634314432740211
1761508327199968000,7.019968017578125,-0.0036094561219215393,0.0009031659574247897,0.0009138641180470586
1761508327209940000,7.02993994140625,0.00007848953828215599,-0.0005192284006625414,0.0017639450961723924
1761508327219911200,7.0399111328125,0.0016535529866814613,-0.00021555123385041952,-0.00033323117531836033
1761508327229882000,7.049882080078125,-0.0012711305171251297,-0.001981759676709771,-0.0015020925784483552
1761508327239854000,7.05985400390625,-0.0005681207403540611,0.0014499438693746924,0.0003915507113561034
1761508327249825000,7.069824951171875,-0.00002883048728108406,-0.0007085481192916632,0.0005433509359136224
1761508327259797000,7.079796875,0.00006834138184785843,-0.0005442857509478927,-0.00438005430623889
1761508327269768000,7.089767822265625,-0.0016661756671965122,-0.00027663796208798885,-0.0011744070798158646
1761508327279739100,7.0997392578125,-0.0004002479836344719,0.000006444635801017284,-0.0005876494105905294
1761508327289711000,7.109711181640625,-0.0004945239052176476,-0.003385890042409301,-0.0009096255525946617
1761508327299682000,7.11968212890625,-0.0002361084334552288,-0.0021098293364048004,0.0016811001114547253
1761508327309653000,7.129653076171875,0.0014012032188475132,-0.0003990145632997155,0.0019498129840940237
1761508327319625200,7.139625244140625,-0.0021208375692367554,0.0005975655512884259,0.0006353036733344197
1761508327329596200,7.14959619140625,0.0014073182828724384,0.00026946410071104765,0.0029794182628393173
1761508327339568000,7.159568115234375,-0.0012794267386198044,-0.0031399668660014868,0.0019478893373161554
1761508327349539000,7.1695390625,0.0025773635134100914,-0.00040703092236071825,0.0033076992258429527
1761508327359510300,7.17951025390625,0.0008882191032171249,-0.00023167498875409365,0.0028383363969624043
1761508327369482000,7.18948193359375,-0.001162148080766201,-0.0012284961994737387,-0.001448021735996008
1761508327379453200,7.199453125,-0.0012334114871919155,0.0013501098146662116,-0.0024737988132983446
1761508327389425200,7.209425048828125,-0.001958324108272791,-0.0003772163763642311,-0.004656791687011719
1761508327399396000,7.21939599609375,-0.0005292957648634911,-0.0007672023493796587,-0.0010536244371905923
1761508327409367000,7.229366943359375,-0.0016257194802165031,0.0016293763183057308,-0.0009955675341188908
1761508327419339300,7.23933935546875,0.001126364804804325,0.0014007373247295618,-0.0015708880964666605
1761508327429310200,7.249310302734375,0.0028361142612993717,0.0011711728293448687,-0.003863070858642459
1761508327439281000,7.259281005859375,0.0010375473648309708,-0.0004108842695131898,-0.0032868755515664816
