time,seconds_elapsed,z,y,x
1761469360228077000,0.0610771484375,-0.4691740935415029,0.110074531917274,0.1675641046651639
1761469360238032100,0.0710322265625,-0.5673182414293289,0.15232523540854453,0.03902984174862504
1761469360247987000,0.080987060546875,-0.643104427036643,0.11087021233960985,-0.010739201483502983
1761469360257942000,0.09094189453125,-0.6770429369956255,0.07342544782534241,-0.0367680342964828
1761469360267897000,0.10089697265625,-0.5906821658819914,0.11706804406642914,-0.07389620714224875
1761469360277852200,0.11085205078125,-0.4391448659807443,0.13127119533345102,-0.09043547320663929
1761469360287807000,0.120806884765625,-0.3138561060577631,0.15668912970647214,-0.04589618385415524
1761469360297763000,0.13076318359375,-0.18308453080952167,0.17997896600961685,0.002394640051573515
1761469360307718100,0.14071826171875,-0.08805705363750457,0.17621040725633502,0.04471398833226412
1761469360317673000,0.1506728515625,-0.008049450942873954,0.16564532023072243,0.06089125268384814
1761469360327628000,0.1606279296875,-0.008655600142478943,0.09885434198379515,0.08949410070329904
1761469360337583000,0.1705830078125,0.0005003507375717163,0.04947554017826915,0.0691662194782868
1761469360347538000,0.180537841796875,0.00017477204501628875,0.018783318664133547,0.01875997432116419
1761469360357493200,0.1904931640625,-0.05143266559541225,-0.03406958899274468,-0.03513685289807617
1761469360367448000,0.200447998046875,-0.04047463372945785,-0.08789265685603022,-0.12754903300516307
1761469360377403100,0.210403076171875,-0.000003507131338119507,-0.14479878542646765,-0.15146934923157096
1761469360387358000,0.22035791015625,0.07090776591598986,-0.1922977648347616,-0.15959785676002503
1761469360397313000,0.23031298828125,0.14576222363114355,-0.2114135303236544,-0.1171299303214997
1761469360407268000,0.24026806640625,0.15233867941200732,-0.21873466699197888,-0.04054499555192888
1761469360417223000,0.250222900390625,0.1602700569331646,-0.23587445623278616,0.00829049315713346
1761469360427178200,0.26017822265625,0.1703822856247425,-0.23051059111207722,0.04126019461657852
1761469360437133000,0.270133056640625,0.16473697321414946,-0.23858327680006622,0.07714421262014656
1761469360447089000,0.2800888671875,0.10898410633206367,-0.2760048065692186,0.11097926220465451
1761469360457044200,0.290044189453125,0.10351122787892818,-0.29612331935986874,0.11403477731775492
1761469360466999000,0.2999990234375,0.04035714482963085,-0.3504273026078939,0.11177622126862406
1761469360476953900,0.309953857421875,-0.12606909664571284,-0.3885528889931738,0.04586312183476984
1761469360486909200,0.3199091796875,-0.37513445836305614,-0.39886385512724515,-0.02800389574561268
1761469360496864000,0.329864013671875,-0.5472831691384316,-0.3680804481983185,-0.09243636470027268
1761469360506819000,0.339819091796875,-0.6493804385662079,-0.3010061229653656,-0.12307462753746658
1761469360516774000,0.34977392578125,-0.6562094078034162,-0.20236498534083366,-0.07331705554742365
1761469360526729200,0.359729248046875,-0.6722223849713802,-0.16481369171217083,-0.006151764095388352
1761469360536684000,0.36968408203125,-0.7622393405050039,-0.1463748025715351,-0.011918839722126722
1761469360546638800,0.379638916015625,-0.8578454943478107,-0.12714856244549155,-0.07652366956900805
1761469360556594200,0.38959423828125,-0.9099556208133697,-0.09709843822717666,-0.11774261885974556
1761469360566549000,0.399549072265625,-0.8992582857102155,-0.045773032398521894,-0.1726059895562008
1761469360576504000,0.409504150390625,-0.7806079408884048,-0.021777532044053076,-0.20011227451059965
1761469360586460200,0.419460205078125,-0.6321428880393505,-0.042935617015510796,-0.22098847380075604
1761469360596415000,0.4294150390625,-0.3856593595087528,-0.11966405190899967,-0.2527314099442214
1761469360606370000,0.4393701171875,-0.10089023172557353,-0.16874430915936828,-0.24709935887400059
1761469360616325000,0.4493251953125,0.1268634618937969,-0.2182819547884166,-0.26173443528488277
1761469360626280200,0.4592802734375,0.28085750729739667,-0.25079569264128804,-0.330551804792881
1761469360636235000,0.469235107421875,0.3704612058550119,-0.28557050729393957,-0.4075525172891095
1761469360646190000,0.479190185546875,0.3974392291516065,-0.29150384286567566,-0.45620600049477067
1761469360656145200,0.489145263671875,0.36515725422799583,-0.2569211897842586,-0.48567627899851645
1761469360666100000,0.499099853515625,0.3182213155299425,-0.21094781250804662,-0.4455228035148233
1761469360676055000,0.509054931640625,0.30754853034615515,-0.13009557568281888,-0.4104753459332511
1761469360686010000,0.519010009765625,0.38925124652087684,-0.0672347764916718,-0.37530565021149814
1761469360695965000,0.52896484375,0.4219201749354601,-0.05704202990978956,-0.3077368194598704
1761469360705920000,0.538919921875,0.4315396516740322,-0.06514248038753867,-0.2894213740358129
1761469360715875000,0.548875,0.39338615436851976,-0.06684080873802303,-0.28315263249725103
1761469360725830100,0.558830078125,0.3547983572989702,-0.060961979832500214,-0.256445133237727
1761469360735786000,0.568785888671875,0.30103111127614973,-0.04237652182802558,-0.20854798482470213
1761469360745741000,0.578740966796875,0.24409634113311765,-0.03923544732332229,-0.16497856341768055
1761469360755696000,0.588696044921875,0.17704174351394175,-0.042282121542841195,-0.14860533810257912
1761469360765651000,0.59865087890625,0.16589432655572892,-0.007785831570625305,-0.12048979867603629
1761469360775606300,0.608606201171875,0.2217132444113493,-0.01902428781315684,-0.07114515486843884
1761469360785561000,0.61856103515625,0.2571908005058765,-0.043760231271386146,-0.01874262132756412
1761469360795516000,0.628515869140625,0.2737012058019638,-0.0647498278081417,-0.004714790094830095
1761469360805471000,0.638470947265625,0.22816285894215105,-0.07897314508035778,-0.004979834239184856
1761469360815426000,0.648426025390625,0.08310849131941794,-0.052155426912009716,-0.03187869135234505
1761469360825381000,0.658381103515625,-0.08320844456255436,-0.053823067863285536,-0.03982767759542912
1761469360835336000,0.6683359375,-0.21368600530028342,-0.03610591712594032,-0.0176002463594079
1761469360845291300,0.678291259765625,-0.2736357393503189,0.01049757474735379,0.03688793434910476
1761469360855246000,0.68824609375,-0.2671300107181072,0.05620017225816846,0.11463014939501881
1761469360865202000,0.698201904296875,-0.2641068635046482,0.06084156832322478,0.1747104144895449
1761469360875157000,0.708156982421875,-0.2765641940176487,0.07756956189274787,0.22139606822095811
1761469360885112000,0.718112060546875,-0.3392079894572496,0.08347498654425144,0.21753427822627125
1761469360895067000,0.72806689453125,-0.44539632759094233,0.08628799813836813,0.14299316077660768
1761469360905022200,0.738022216796875,-0.4769371287584305,0.11389540537968278,0.09184329417794942
1761469360914977000,0.74797705078125,-0.3912292685955763,0.09927388257011771,0.09110833096690475
1761469360924932000,0.75793212890625,-0.24890286463201045,0.043554333435744046,0.09668905370868743
1761469360934887200,0.76788720703125,-0.04635960011482238,0.009897709158062934,0.08843615261558443
1761469360944842000,0.777842041015625,0.16402853268384932,0.0027792554549872874,0.12242405467424541
1761469360954797000,0.787797119140625,0.3108487409353256,-0.0296289761967957,0.13296926795560865
1761469360964752000,0.797751953125,0.33768647897839543,-0.08979746756404637,0.15658873807191848
1761469360974707200,0.807707275390625,0.2834954545855522,-0.08944193212464452,0.16943192609734833
1761469360984662000,0.817662109375,0.23583237065672874,-0.044508127029240126,0.1361397512178868
1761469360994617000,0.8276171875,0.1694628326922655,-0.028603286410868164,0.1330775871682912
1761469361004573200,0.8375732421875,0.0917331118017435,-0.034860739370435476,0.13438940041922032
1761469361014528000,0.847528076171875,0.09725450557172298,-0.003193243083357811,0.1416782422531396
1761469361024483000,0.857483154296875,0.062411155727505684,-0.015053046094626188,0.18391261566411704
1761469361034438100,0.867438232421875,-0.05455108987689018,0.008033376590907573,0.16823877079002558
1761469361044393000,0.87739306640625,-0.1616857689499855,0.04266162237972021,0.14468001788500695
1761469361054348000,0.88734814453125,-0.20861235529780386,0.05989128186106681,0.12143387459311633
1761469361064303000,0.89730322265625,-0.24035072486400602,0.0780301651418209,0.12758932848293333
1761469361074258200,0.907258056640625,-0.2491664840042591,0.09316124490872026,0.12480620057042688
1761469361084213500,0.917213623046875,-0.22052958758473395,0.0821123198889196,0.17313381282258777
1761469361094168300,0.927168212890625,-0.17450199590325355,0.08189999231249094,0.19393183230999855
1761469361104123400,0.937123291015625,-0.14856851322352885,0.08442483461499213,0.18752393802907316
1761469361114078500,0.947078369140625,-0.11366086597144603,0.046292672358453274,0.17015304344613105
1761469361124033500,0.957033447265625,-0.05759177274703979,0.019872282944619655,0.11012973270323127
1761469361133989400,0.9669892578125,0.01957797617316246,-0.021616788524389266,0.07492116627581417
1761469361143944400,0.9769443359375,0.11178104357421398,-0.09053162705749272,0.06515245379228145
1761469361153899500,0.9868994140625,0.1950041011840105,-0.11954217909500002,0.04699753269217908
1761469361163854300,0.996854248046875,0.23361294104158878,-0.14011325795874,0.04982249045241624
1761469361173809400,1.006809326171875,0.2036830822020769,-0.10958411805182695,0.06321111046615988
1761469361183764500,1.016764404296875,0.1406406428337097,-0.03479761100634932,0.08475110742729157
1761469361193719300,1.02671923828125,0.03132335902452469,0.025730507453531025,0.1015313791733235
1761469361203674400,1.03667431640625,-0.047827919101715084,0.05060892812237143,0.08565558198634535
1761469361213629400,1.04662939453125,-0.08407178339362144,0.05013137373849749,0.0807264184884727
1761469361223584500,1.05658447265625,-0.13364859198927878,0.03015533815845847,0.05187752328608185
1761469361233539300,1.066539306640625,-0.20009996301829813,0.042467122720926995,-0.02005589588321745
1761469361243494400,1.076494384765625,-0.20834172166287898,0.057487289459258316,-0.0763242014741525
1761469361253449500,1.086449462890625,-0.1694067185908556,0.04045899776890874,-0.0599222615212202
1761469361263405300,1.0964052734375,-0.11767419326603412,0.025536884577572343,-0.031637722203321755
1761469361273360400,1.1063603515625,-0.1260404550731182,0.037160979136824604,-0.027859372708387672
1761469361283315500,1.1163154296875,-0.11386486411094665,0.0704535924077034,-0.005685790551453828
1761469361293270300,1.126270263671875,-0.09572481178641319,0.07538330389484763,-0.0012130290515720843
1761469361303225600,1.1362255859375,-0.05752747533917427,0.08707491073235869,0.0027847718803212045
1761469361313180400,1.146180419921875,0.00979424878358841,0.05366963086724281,-0.019326741358451544
1761469361323135500,1.156135498046875,0.06673544866740704,0.029696634605526923,-0.025544885220937428
1761469361333090600,1.166090576171875,0.11463994013667106,0.01939604373499751,-0.004332293583266437
1761469361343045400,1.17604541015625,0.18668401660621164,0.021177228063344954,-0.0007625818703323602
1761469361353000400,1.18600048828125,0.22873218326270578,0.03844926538169384,0.010404635766893624
1761469361362955300,1.195955322265625,0.2466699910134077,0.03580371930897236,0.04029935022778809
1761469361372910600,1.20591064453125,0.2743453489243984,0.03236906868517399,0.056808842208422715
1761469361382865400,1.215865478515625,0.1656979272007942,0.02401391279399395,0.0072808046579360955
1761469361392820500,1.225820556640625,-0.010357143363356589,0.011642068607360124,-0.053037105117365715
1761469361402775600,1.235775634765625,-0.13268354634940624,0.048769876126945014,-0.07896097971852868
1761469361412731400,1.2457314453125,-0.15717442900538445,0.06155775376856327,-0.06254559576213359
1761469361422686500,1.2556865234375,-0.09160568602979183,0.04150865295231342,-0.003039002369716763
1761469361432641500,1.2656416015625,0.020776830568909645,0.043852439599484205,0.06002736586350947
1761469361442596400,1.275596435546875,0.13421966987550257,0.04171031300425529,0.12240790725704281
1761469361452551400,1.285551513671875,0.18098785079121588,-0.022066724248975513,0.12769684397801756
1761469361462506500,1.295506591796875,0.10863923841714858,-0.05229951155781746,0.0696786259798333
1761469361472461600,1.305461669921875,0.008843816190958023,-0.06275280877202749,0.00491181050427258
1761469361482416400,1.31541650390625,-0.11328501839637756,-0.07180939093083143,-0.020028350289165973
1761469361492371200,1.32537109375,-0.15171382551193235,-0.06636778439879416,-0.03221910228785127
1761469361502326500,1.335326416015625,-0.16403028624951838,-0.04750877014994621,-0.020640673501230774
1761469361512281300,1.34528125,-0.16171674861013888,-0.02095043357014656,-0.030627814508415757
1761469361522236400,1.355236328125,-0.14032032483816145,-0.024947394251823424,-0.038498036426864564
1761469361532191500,1.36519140625,-0.1628442913353443,-0.015155775816738605,-0.0678645988278091
1761469361542147300,1.375147216796875,-0.20526187582612038,-0.019918898565322158,-0.119797249834612
1761469361552102400,1.385102294921875,-0.2556973470777273,0.0010709902323782444,-0.13968918732777236
1761469361562057500,1.395057373046875,-0.2528156541615724,-0.0010395721808075904,-0.11928937337771058
1761469361572012500,1.405012451171875,-0.2190285353720188,-0.0005462357059121131,-0.0654336453538388
1761469361581967400,1.41496728515625,-0.09539046526551247,-0.01188756780102849,-0.00464150566291064
1761469361591922400,1.42492236328125,0.050264790859818456,-0.035398499508947134,0.00806676740385592
1761469361601877500,1.43487744140625,0.2090776347219944,-0.09946765157654881,0.010368249279260635
1761469361611832300,1.444832275390625,0.3314110519707203,-0.12966200657114385,-0.01645509491227567
1761469361621787600,1.45478759765625,0.3920698110729456,-0.1461862942621112,-0.10469510390125214
1761469361631742500,1.464742431640625,0.35939328387379643,-0.13847118984013795,-0.1768652179032564
1761469361641697300,1.474697265625,0.21609072835445403,-0.09688552612885833,-0.23787717435732483
1761469361651652400,1.48465234375,0.0825263075172901,-0.00869885476231575,-0.30102110133878884
1761469361661607400,1.494607421875,-0.021545476853847504,0.0683351389490068,-0.27435513966605063
1761469361671562500,1.5045625,-0.1267822133511305,0.11684358766078948,-0.23858634553998706
1761469361681518300,1.514518310546875,-0.12505728925466536,0.185627785551548,-0.2150899538140744
1761469361691473400,1.524473388671875,-0.011839490875601768,0.1974607005558908,-0.20793167955726383
1761469361701428500,1.534428466796875,0.1219534780204296,0.20559593008607624,-0.14982530835159122
1761469361711383300,1.54438330078125,0.21686463533639908,0.19915157625228166,-0.13156849777959287
1761469361721338600,1.554338623046875,0.26944647096693514,0.19958076144978404,-0.14881203965581952
1761469361731293400,1.56429345703125,0.25389935774505135,0.22764015024229883,-0.15339206092245875
1761469361741248300,1.574248291015625,0.3051683572113514,0.29110651411116123,-0.15311587432958185
1761469361751203600,1.58420361328125,0.4316881202340126,0.2765576181463897,-0.11628887638747691
1761469361761158400,1.594158447265625,0.4999193604171276,0.21364450424611567,-0.127811702529341
1761469361771113500,1.604113525390625,0.576906153985858,0.11891177223697304,-0.1336007342595607
1761469361781068300,1.614068359375,0.6705448071479797,0.10415142547860741,-0.16342223735377193
1761469361791023600,1.624023681640625,0.7622311571985483,0.028228461749106645,-0.2261480119884014
1761469361800978400,1.633978515625,0.7215384968042373,-0.03627937399670481,-0.2503938338421285
1761469361810933200,1.643933349609375,0.6342226169228553,-0.028744448447227476,-0.28616189731582997
1761469361820888600,1.653888671875,0.6536702447146177,0.06257818285748362,-0.24588717007264493
1761469361830844400,1.663844482421875,0.6822276461571455,0.07073328613191843,-0.15541538344360886
1761469361840799200,1.67379931640625,0.6826438257426023,0.05010989255905151,-0.04885945410653948
1761469361850754600,1.683754638671875,0.6281634630143642,0.08298267298266292,-0.011496851450391114
1761469361860709400,1.69370947265625,0.5574310536652803,0.09039557958766818,-0.00628156448751688
1761469361870664400,1.70366455078125,0.5462427201747894,0.02956584783270955,0.016677980415336788
1761469361880619500,1.71361962890625,0.5874959370613098,-0.052253845785185694,0.04400952985733747
1761469361890574300,1.72357421875,0.7452619022190571,-0.14661533332914112,0.046625630639865995
1761469361900529400,1.733529296875,0.9305682007312774,-0.2806904071021825,0.10678129905816167
1761469361910484200,1.743484130859375,1.0646394020467995,-0.39471477262377735,0.228775584013015
1761469361920439600,1.753439453125,1.1213742657035588,-0.44728389490321274,0.33545247284863144
1761469361930394400,1.763394287109375,1.086812070888281,-0.5409810733195394,0.3744955028723925
1761469361940349400,1.773349365234375,1.0596756421595812,-0.607647402273491,0.38795634787213057
1761469361950304500,1.783304443359375,1.0342594613522291,-0.6557859216943382,0.38869803308490664
1761469361960259300,1.79325927734375,1.0775357084989547,-0.7168111029561609,0.4038853000184521
1761469361970215400,1.80321533203125,1.1326602143496274,-0.7705922313738613,0.4350669490173459
1761469361980170500,1.81317041015625,1.1732459072381258,-0.8362690378338098,0.46464514487497505
1761469361990125300,1.823125244140625,1.1936825460672378,-0.854519930121675,0.5001389579845592
1761469362000080400,1.833080322265625,1.1500263596922158,-0.841845084400475,0.506819750922732
1761469362010035500,1.843035400390625,1.1431278323501348,-0.8015949070766568,0.5478182623958214
1761469362019990500,1.852990478515625,1.2641671181350946,-0.8084284063585102,0.6080504301164299
1761469362029945300,1.8629453125,1.4365426234036682,-0.8129183381889015,0.6588341302838177
1761469362039900400,1.872900390625,1.5150602798014878,-0.8176187709648162,0.7219202626634389
1761469362049855500,1.88285546875,1.4154717783242463,-0.8978584288496524,0.8422861792314797
1761469362059810300,1.892810302734375,1.1615104612588882,-0.9220831348501145,0.949728974405676
1761469362069765400,1.902765380859375,0.8048118232965469,-0.9476994413394481,0.9294333514824509
1761469362079720200,1.91272021484375,0.40167350572049615,-0.9319355435617268,0.9353962054096162
1761469362089675500,1.922675537109375,-0.06464402934610844,-0.883960105748102,0.9650551383532583
1761469362099630300,1.93263037109375,-0.6006745675861835,-0.7917200673375279,0.9569418283939362
1761469362109585400,1.94258544921875,-0.96762104331851,-0.6731127579398453,0.9677083562757819
1761469362119541500,1.95254150390625,-1.1036001240819693,-0.5420675533819943,0.9910202582802623
1761469362129496300,1.962496337890625,-1.1434271075576543,-0.4928551941845566,0.8371852758958935
1761469362139451400,1.972451416015625,-1.5198825853914022,-0.5520870622888208,0.4456766423696652
1761469362149406200,1.98240625,-1.9676760372519493,-0.5715032720290124,-0.13251133158765732
1761469362159361300,1.992361328125,-2.1357354328870772,-0.6236964006029069,-0.5483945644464343
1761469362169316400,2.00231640625,-2.3367858284980056,-0.7945555099591612,-0.5986165756104513
1761469362179271200,2.012271240234375,-2.2181980275183917,-0.9657483813144266,-0.4109881542935967
1761469362189226500,2.0222265625,-1.9050918630450964,-0.9625393561400473,-0.08230001534759067
1761469362199181300,2.032181396484375,-1.9670570285707711,-0.8282746780790388,0.4184944017378613
1761469362209136000,2.04213623046875,-2.6960323973774907,-0.41911783086583015,0.888581628068909
1761469362219091500,2.052091552734375,-3.86242770806849,0.17880232344567776,0.9696014765460044
1761469362229046300,2.06204638671875,-5.561926855897903,0.5306172810196876,0.7109259904403239
1761469362239001300,2.07200146484375,-8.343703938317299,0.49232510589584705,-0.09603124738708138
1761469362248956200,2.0819560546875,-11.092918475306034,0.3903431334108114,-1.269786273191124
1761469362258911500,2.091911376953125,-12.413594247126579,0.5515191992729902,-2.1781984639547765
1761469362268867300,2.101867431640625,-12.107482471585273,0.5424160014934838,-2.612901694226265
1761469362278822400,2.111822509765625,-10.86781909558773,0.19685674331337213,-2.5933681417167187
1761469362288777500,2.121777587890625,-9.229256354758142,-0.17673910730555653,-2.458722939905524
1761469362298732300,2.131732177734375,-7.602701447108387,-0.5092207111172378,-2.14767034696117
1761469362308687000,2.14168701171875,-6.628402241200209,-0.796157976719737,-1.562544792293012
1761469362318642400,2.151642333984375,-6.489838404640555,-1.0938519063971937,-1.2156581579666583
1761469362328597200,2.16159716796875,-6.234827870783209,-1.1707026524960995,-1.1979648995615542
1761469362338552300,2.17155224609375,-5.229485291835665,-0.9631957742221653,-1.0249233315996824
1761469362348507400,2.18150732421875,-4.152117341119051,-0.9013846302144228,-0.7530825128421187
1761469362358462200,2.191462158203125,-3.2311849837392566,-0.8402277123317122,-0.5196171270450577
1761469362368417300,2.201417236328125,-2.475353172188997,-0.5372641716882586,-0.3693163466688245
1761469362378372000,2.2113720703125,-1.9632979682981966,-0.39919805551767346,0.14028444980718194
1761469362388327400,2.221327392578125,-1.2034545830190182,-0.1642829458363354,0.4659903489388525
1761469362398282200,2.2312822265625,-0.017071546310186383,0.2214419531892985,0.335861966964975
1761469362408237300,2.2412373046875,1.326148065751791,0.3967530004531145,0.22435148396044968
1761469362418192400,2.2511923828125,2.465358432397246,0.5931599541723728,0.3612470219817012
1761469362428148200,2.261148193359375,3.2049668388992547,0.8455611092489212,0.580886894185096
1761469362438103300,2.271103271484375,3.52506680778265,0.8464675565693527,0.8229371164433658
1761469362448058400,2.281058349609375,3.4325989519655704,0.7137844486113637,0.6893012378051877
1761469362458013200,2.29101318359375,3.316070421603322,0.37498116749748583,0.47811917814984917
1761469362467968300,2.30096826171875,3.378210359174013,-0.1801722783583216,0.8180494905322789
1761469362477923300,2.31092333984375,3.8533541747748847,-0.37480011184215545,1.0247076430223883
1761469362487878400,2.32087841796875,4.698275305619836,-0.34128991029784084,1.2372072150170803
1761469362497833200,2.330833251953125,5.905897529712319,-0.06377013258840888,1.3366444714553654
1761469362507788500,2.34078857421875,6.9310039627939455,0.04244779696594923,1.4743103362619876
1761469362517743400,2.350743408203125,7.548259078302979,-0.17495474463943392,1.6086071630269287
1761469362527698200,2.3606982421875,8.081030322486162,-0.43222905871029943,1.5661502694390714
1761469362537653200,2.3706533203125,8.297260751572251,-0.6945405266981571,1.4671438056334851
1761469362547608300,2.3806083984375,8.796045555001497,-0.7792207243137061,0.7747158871751278
1761469362557563400,2.3905634765625,8.870520658010244,-0.5356467630868778,0.5881606115151197
1761469362567518200,2.400518310546875,9.169681299239397,-0.2799445571709424,1.6745707505390046
1761469362577474300,2.410474365234375,9.463067448720336,-1.1591527922168374,2.4906758290052413
1761469362587429400,2.420429443359375,8.728943611109257,-1.6977505505964159,2.016803933036327
1761469362597384200,2.43038427734375,7.1402861801773305,-1.7823279454246161,1.5454608248926698
1761469362607339300,2.44033935546875,6.050891691580414,-1.0252876348674296,1.4827160532966255
1761469362617294300,2.45029443359375,6.090569037452339,0.47895365621261293,0.575831437426433
1761469362627249200,2.460249267578125,5.935865382474661,1.7974793373271822,-0.01984890206903219
1761469362637204500,2.47020458984375,5.8356228010028595,2.2906788879700004,-0.07835179831162095
1761469362647159300,2.4801591796875,5.81798017680645,2.2064752948902546,-0.13568250896967946
1761469362657114400,2.4901142578125,6.387592082130909,2.300777088136226,-0.4309502344135195
1761469362667069200,2.500069091796875,6.7931848071217535,2.350276593711972,-0.5089086860259995
1761469362677024300,2.510024169921875,7.042788513499498,2.498542909118533,-0.43825573512129484
1761469362686979300,2.519979248046875,6.8470163505524395,2.667706466603279,-0.14326174858491866
1761469362696934100,2.52993408203125,6.329429231497645,2.706411168050766,-0.04229465223085135
1761469362706889500,2.539889404296875,6.452218575820327,2.778282518301904,0.2637505974128842
1761469362716844300,2.54984423828125,6.492486288800835,3.0155364461943504,0.7555660732861608
1761469362726799400,2.55979931640625,6.730758453825116,3.182053288562596,1.2122120361007749
1761469362736755500,2.56975537109375,7.073970418226718,2.824225062048435,1.506616861104965
1761469362746710300,2.579710205078125,7.385926828143,2.324981993457675,1.1698341260332614
1761469362756665300,2.589665283203125,6.9306994268894195,1.5533473403587936,1.0654399778399617
1761469362766620400,2.599620361328125,5.1040235134333365,0.43649347468912597,1.5892578810431062
1761469362776575200,2.6095751953125,2.3249843315452337,-0.30433190638720986,2.4449156560882925
1761469362786530300,2.6195302734375,-0.5743289969742298,0.6014259704753756,2.3168530475378035
1761469362796485400,2.6294853515625,-3.510565988743305,1.5899012935131787,1.7892387477263807
1761469362806440400,2.6394404296875,-6.038576399886607,1.2420201682567595,1.2309309112265705
1761469362816395300,2.649395263671875,-6.927141442146897,-0.2576008426114917,-0.7991410841837525
1761469362826350300,2.659350341796875,-6.53074733813405,-2.889261597843468,-2.3698097078301013
1761469362836305400,2.669305419921875,-5.676114960613846,-4.945805712854862,-2.965853546875715
1761469362846260200,2.67926025390625,-5.687278159663081,-5.6408396490931505,-3.316426103173196
1761469362856215300,2.68921533203125,-7.580574955496192,-5.634243904089927,-2.86249517147094
1761469362866170400,2.69917041015625,-9.608411154678464,-4.682008061429858,-1.7868382624559103
1761469362876125400,2.70912548828125,-11.419343555557727,-2.902318355554342,0.06855120198563672
1761469362886081300,2.719081298828125,-13.846243370223045,-1.544354617216438,1.7286004468902945
1761469362896036400,2.729036376953125,-15.599235038787125,-0.6171123460374772,2.388285714110732
1761469362905991400,2.738991455078125,-16.22669006127119,-0.7498423618771135,1.1880020162127911
1761469362915946200,2.7489462890625,-15.196612854039667,-1.9891032945536076,-0.9403670526247471
1761469362925901300,2.7589013671875,-13.09258422653675,-3.2629964185416696,-2.672221605940163
1761469362935856400,2.7688564453125,-10.777118833965062,-3.8708804791152476,-3.763046127340197
1761469362945811200,2.778811279296875,-8.988594079726933,-3.4134263417229054,-4.123069233550131
1761469362955766300,2.788766357421875,-7.291833416950702,-2.2128253945693372,-4.143756632269919
1761469362965721300,2.798721435546875,-6.019426293736696,-1.1077848624207078,-3.7610891480535265
1761469362975676400,2.808676513671875,-5.070101370087266,0.28924086636975405,-2.8222549310192466
1761469362985631200,2.81863134765625,-4.509293533465266,1.7857704870939253,-1.7796823993518947
1761469362995586300,2.82858642578125,-4.892029114481806,2.6724925318360326,-0.9418272613704204
1761469363005541400,2.838541259765625,-5.406244711276888,3.585266717201471,-0.8187911026798188
1761469363015496200,2.84849609375,-6.46817660793066,3.60102834995687,-1.4826196071848272
1761469363025451500,2.858451416015625,-7.965171654209494,2.935273699694872,-2.529660808698833
1761469363035406300,2.86840625,-7.93631030138433,2.226759519636631,-2.7109306913018223
1761469363045361400,2.878361328125,-5.7974085134208195,0.9655969901449978,-1.3017451536402105
1761469363055316200,2.888316162109375,-2.835167896345258,0.9365512206636368,0.49556817947030063
1761469363065272300,2.898272216796875,-0.5951993510454893,1.0369080761648715,1.672562479456514
1761469363075227100,2.90822705078125,-0.2842798829615116,0.4096338901404291,2.0659027488566934
1761469363085183000,2.918182861328125,-0.9797896200180053,0.2159047773282975,1.7642898921698331
1761469363095138000,2.928137939453125,-1.2159405551046132,0.4811767390895635,0.8616112766221166
1761469363105093000,2.938093017578125,-2.3897189617842436,0.667633376680687,0.17458324444592
1761469363115048000,2.9480478515625,-3.4034780714213846,1.0920569858044384,0.155405373506248
1761469363125002800,2.958002685546875,-2.1706845811933277,1.2074746323153376,1.0681994326159356
1761469363134958000,2.9679580078125,-0.7012620169728994,0.2132612040169537,2.3883090949863193
1761469363144913000,2.977912841796875,0.5010217687010765,-1.0662321511309594,3.6393843840971587
1761469363154868000,2.987867919921875,1.7249837176978586,-2.0205046872504053,4.293862145802378
1761469363164823000,2.997822998046875,3.4483711061149833,-2.573891287830472,3.9940903869375584
1761469363174778000,3.007778076171875,5.42075196005702,-3.1303353762850166,3.5167493535533545
1761469363184733000,3.01773291015625,7.1176382950395345,-3.9282799441605802,3.385222868284583
1761469363194688000,3.02768798828125,8.705189810556172,-4.337298551946878,2.7480045766770838
1761469363204643000,3.03764306640625,10.293056383371352,-4.266142948749661,1.9401777894735335
1761469363214598000,3.047597900390625,11.526986768674849,-4.105337469765543,1.9749650252163409
1761469363224554000,3.057553955078125,11.803549793648719,-3.6647324681043623,2.8657202709972855
1761469363234509000,3.067509033203125,11.352992137771844,-3.0620185036450622,3.640254152669012
1761469363244463900,3.0774638671875,11.300173570775986,-1.987861331668496,3.57511386423856
1761469363254419200,3.087419189453125,11.132712725555896,-1.0047413981840014,3.01713189869225
1761469363264374000,3.0973740234375,10.6733942555964,-0.06081869890429079,2.612752056622505
1761469363274328800,3.107328857421875,9.661510292181372,0.34669447275511917,2.5666595830112695
1761469363284284000,3.117283935546875,7.277184713873266,0.30768421248979866,2.425939591331035
1761469363294239000,3.127239013671875,5.2115679423511025,0.6263544408310204,2.2456530206769703
1761469363304194000,3.137194091796875,4.382952634140849,0.2737208968831226,2.4894635306060313
1761469363314148900,3.14714892578125,4.747468667855858,-0.11728418930144979,2.80182706001848
1761469363324104200,3.157104248046875,5.792585623309016,0.19396032775212077,2.3046600670494137
1761469363334059000,3.16705908203125,6.930867184671759,0.2418999270673841,0.9301550898857415
1761469363344013800,3.177013916015625,7.7467206264644854,0.4680912302082404,-0.42637247816920276
1761469363353969000,3.186968994140625,7.951449418327212,1.449207313057035,-0.904674319409579
1761469363363924000,3.196924072265625,7.976998870125413,2.5219950963765383,0.02689560571014881
1761469363373879000,3.206879150390625,7.741208000522851,2.5126450842291117,1.7502210348069667
1761469363383833900,3.216833740234375,7.264511110261083,2.425042350230366,3.2361089961379763
1761469363393790000,3.2267900390625,6.8160454582273955,2.6119439551100134,4.6434547511518
1761469363403745000,3.2367451171875,6.85617288595438,2.0867365703098475,4.345930771213769
1761469363413699800,3.246699951171875,5.557295688965916,1.4838677075497806,2.760990607239306
1761469363423655000,3.256655029296875,4.3970840353459115,0.5009795369945467,1.4295394666433334
1761469363433610000,3.26660986328125,2.4365000021815297,-0.2817597898993641,0.49185259301327167
1761469363443564800,3.276564697265625,0.45694121943414207,-0.5709961992897093,-0.5106690832946449
1761469363453520100,3.28652001953125,-0.7388122876882552,-0.5558725721769034,-1.4515411628320811
1761469363463475000,3.296474853515625,-2.7965952968448398,-0.2295516829520464,-2.0340116729468107
1761469363473430000,3.306429931640625,-5.282170003318786,0.3067057959116995,-2.19103251882568
1761469363483385000,3.316385009765625,-6.419858859485387,1.1678485782392323,-1.4923736700884997
1761469363493340000,3.32633984375,-6.131539345744252,1.0932786365538836,-0.5237824665635824
1761469363503295000,3.336294921875,-3.9473885492563245,0.631585108026117,-0.5023793207898736
1761469363513249800,3.346249755859375,-2.072209593915939,-0.2693655146852135,-0.8550193310111761
1761469363523205000,3.356205078125,-1.095388760575652,-1.2294430107563734,-1.0567902959816158
1761469363533160000,3.366159912109375,-0.9315677331626415,-1.7697439197920262,-0.8021496183499693
1761469363543115000,3.376114990234375,-2.072258109232783,-2.0312948152035473,-0.7389138483665884
1761469363553070000,3.386070068359375,-3.7299288706362246,-1.473874429062754,-1.453462486283481
1761469363563026000,3.39602587890625,-6.107616618365049,-0.480309820061922,-1.6525158628582954
1761469363572981000,3.40598095703125,-9.94193876041174,0.10305398563072085,-1.778400542847812
1761469363582936000,3.41593603515625,-13.722958351337908,0.44713717990890145,-2.844404511246085
1761469363592891000,3.425890869140625,-14.566725051450728,0.32756427688207473,-3.8243288635596633
1761469363602846000,3.435845947265625,-12.792062818348407,-0.7104084693722427,-3.690165600046515
1761469363612801000,3.445801025390625,-9.7131177298218,-2.0541031516000627,-3.2453090784206986
1761469363622756000,3.455756103515625,-6.1240586346000425,-3.3198902721524237,-2.5693188653483987
1761469363632711000,3.4657109375,-4.702086972862482,-4.109603602777422,-1.4758074429519474
1761469363642666000,3.475666015625,-4.759040447705984,-3.621573417596519,-0.7845940879151224
1761469363652621000,3.48562109375,-5.365668370738625,-2.4411036965847015,-0.6670882369533181
1761469363662575900,3.495575927734375,-7.216683775681257,-2.849177424736321,-0.06022752807810902
1761469363672531000,3.505531005859375,-9.274069309952855,-2.6318083470091223,-0.17695538040474057
1761469363682486000,3.515486083984375,-10.613892265313863,-0.3052939928850159,-1.8479406736724078
1761469363692441000,3.525441162109375,-12.115810739469527,-0.5762003438040614,-2.1108891609221696
1761469363702396000,3.53539599609375,-12.807564338862894,-0.5232655665500089,-2.696600552654266
1761469363712351000,3.54535107421875,-12.238555660128593,-0.1453857915341854,-2.4356552219204604
1761469363722306000,3.55530615234375,-11.01321540851593,-0.08627740367911756,-1.5347393782615661
1761469363732262000,3.565261962890625,-10.146392826986313,-0.20788455247990786,-0.580885140619427
1761469363742217000,3.575217041015625,-8.590118493264914,-0.5890788954038173,-0.026944997809827325
1761469363752172000,3.585172119140625,-7.033525595113635,-0.24547084435671568,-0.12286387086361646
1761469363762126800,3.595126953125,-6.723587539282441,0.6705098819650709,-0.3954623761206865
1761469363772082200,3.605082275390625,-7.6422244792014355,2.12514594207257,-0.5727896585777401
1761469363782037000,3.615037109375,-8.379834405362606,3.412096262162924,0.1020376481950283
1761469363791992000,3.624991943359375,-7.973307614392041,3.7309614285543558,0.7604635630041361
1761469363801947000,3.63494677734375,-6.373315719497204,3.087245591621101,0.43125674307942385
1761469363811902000,3.64490185546875,-4.87700982452631,1.960794461044669,-0.12504121490269898
1761469363821857000,3.65485693359375,-3.088406744354963,1.5792399065062404,-1.1955451250687241
1761469363831811800,3.664811767578125,-2.107529329100251,0.32911439240090545,-0.9506874441742896
1761469363841767200,3.67476708984375,-0.04392272835671902,0.7879475630614906,-0.7394812729910015
1761469363851722000,3.684721923828125,1.9481126741260288,0.9267305953297763,-0.07788783406168222
1761469363861677000,3.694677001953125,3.2721488622903823,0.7938634360417723,0.6500266275152564
1761469363871632000,3.7046318359375,4.225125878706574,0.9925061859890818,0.6862772138088942
1761469363881587000,3.7145869140625,4.6291924170434475,0.9328677829105406,0.14688801279067992
1761469363891542000,3.7245419921875,4.228568712636828,0.912740063900128,-0.17029256151467562
1761469363901496800,3.734496826171875,3.708212128868699,0.644109512425959,0.3268850989788771
1761469363911453000,3.744452880859375,4.2142292216390365,0.34658151389993724,0.9125172879949212
1761469363921408000,3.754407958984375,6.238374749609828,0.413119321103394,1.2044646368443965
1761469363931362800,3.76436279296875,9.046183514386415,0.3423275827825069,1.7240081506639717
1761469363941318100,3.774318115234375,12.107316467368602,0.11373210457675158,1.9232529581576585
1761469363951273000,3.78427294921875,14.13262402485609,-0.533789919706434,2.234972928969562
1761469363961227800,3.794227783203125,15.368927569031715,-0.8238124379731714,2.0544860134378076
1761469363971183000,3.80418310546875,14.753898312878608,-1.492842018252611,1.9577686834827064
1761469363981138000,3.814137939453125,14.661059870183466,-0.6601689590841532,2.100429433967173
1761469363991093000,3.824093017578125,14.932816956180334,1.9003060900732873,2.2991581086322666
1761469364001048000,3.834048095703125,15.29994930987358,3.595673544925451,2.9489190709486603
1761469364011003100,3.844003173828125,15.691083301401138,2.9548309253409504,3.7995366598695512
1761469364020958000,3.8539580078125,15.189432587146758,2.415613573758304,4.352300306245684
1761469364030912800,3.863912841796875,12.985104679548739,3.0677897805228826,4.320898036766052
1761469364040868000,3.8738681640625,9.09044935709238,3.256764830675721,4.561297569207847
1761469364050823000,3.883822998046875,6.426588460001349,3.036361792080104,4.701018466848135
1761469364060778000,3.893778076171875,6.39648558268249,3.899723711761832,3.6765377644494173
1761469364070733000,3.903733154296875,6.026321313947439,3.7362703486174342,2.4668536393910645
1761469364080689000,3.91368896484375,6.065840254387259,2.9994220544785257,1.6806651218913495
1761469364090645000,3.92364501953125,5.901113218045234,2.836281702806055,1.0436610575564205
1761469364100600000,3.93360009765625,5.7950131427168845,2.7930750137642026,0.4700111288875341
1761469364110555000,3.943554931640625,5.931106205248832,2.389178571297228,-0.17066826295927165
1761469364120510000,3.953510009765625,6.535495409443974,2.1244434928916394,-0.6261548996709286
1761469364130465000,3.963465087890625,7.653634346488118,1.9592361256867645,-0.7098081653915346
1761469364140419800,3.973419921875,8.435672027918695,1.7679232802361249,-0.600855623241514
1761469364150375000,3.983375,8.486731768548488,1.699688240660727,-0.4078102549098432
1761469364160952000,3.9939521484375,7.11639618602395,1.5995812682673334,-0.26682839742302894
1761469364170907100,4.0039072265625,4.959430333581566,1.565871890889108,-0.21893048182502386
1761469364180862000,4.013862060546875,2.413694296133518,0.9678843704298138,0.3057394350975752
1761469364190816800,4.023816650390625,0.8228209427177906,0.28002456360459327,0.2740248847983777
1761469364200772000,4.033772216796875,1.0042506920576095,-0.1052361519753933,-0.157557583104074
1761469364210727000,4.043726806640625,0.750338474830985,-1.184485970915854,0.36663141843378544
1761469364220682000,4.053681884765625,-0.9782388834446668,-1.9821331632800399,0.7797722207166254
1761469364230637000,4.063636962890625,-2.9165391886085272,-1.9712034807257353,0.4556133318312466
1761469364240592100,4.073592041015625,-4.3049160392582415,-1.6067461914606391,-0.30281477982252836
1761469364250547000,4.083546875,-5.477350045591592,-1.275997110529989,-1.2867372618615627
1761469364260501800,4.093501708984375,-6.4144631379216905,-0.9652424776189029,-2.3559397340402004
1761469364270457900,4.103457763671875,-7.1955083011835805,-0.7046401151038706,-3.3012259036928415
1761469364280413000,4.113412841796875,-9.192209941911697,-0.5197916433617472,-4.4341164196670055
1761469364290368000,4.123367919921875,-12.558487871229648,-0.26200170791894195,-5.569029381379485
1761469364300323000,4.133322998046875,-15.070077893447875,0.20092567325271665,-5.941258181428909
1761469364310278000,4.14327783203125,-16.76658721181154,0.3998311657894402,-5.490377869468927
1761469364320233000,4.15323291015625,-17.33707823805809,0.36179325768761333,-4.265186086416244
1761469364330188000,4.16318798828125,-15.989071391719579,-0.6097474798252805,-2.6167194989487528
1761469364340142800,4.173142822265625,-13.208581426501274,-1.694099480742961,-1.5923624229297042
1761469364350098000,4.183097900390625,-10.025621252226829,-2.760697177250683,-1.0716332064568996
1761469364360053000,4.193052978515625,-7.260366265541315,-3.9520553720235823,-0.5684738412052392
1761469364370008000,4.203008056640625,-5.422675037074089,-4.542759165215492,0.18017331953793764
1761469364379963000,4.212962890625,-5.126660877177119,-4.726992281538248,0.9034814563632011
1761469364389918200,4.222918212890625,-6.172503808817267,-4.950073307171464,0.6237547066614031
1761469364399873000,4.232873046875,-7.87478235823214,-4.391066674752533,-0.546230445215106
1761469364409827800,4.242827880859375,-10.487357304722071,-3.903944544327259,-2.3537281954705715
1761469364419783000,4.252782958984375,-13.763468056380749,-3.3999455133810637,-4.163361788710952
1761469364429738000,4.262738037109375,-15.353007530844211,-2.3278417668029663,-5.365476063036918
1761469364439693000,4.272693115234375,-14.8361241761446,-1.7821759697332977,-5.624401724511385
1761469364449647900,4.28264794921875,-12.899060719299316,-1.5413576273575424,-5.087105696380138
1761469364459604000,4.29260400390625,-11.53744971050024,-0.8483943599134683,-4.095314672923088
1761469364469559000,4.30255908203125,-10.415390969663857,0.03573021568134427,-2.985302051450312
1761469364479513900,4.312513916015625,-9.008511078596115,0.8242679266557097,-2.4855162542849776
1761469364489469000,4.322468994140625,-7.5367264614194625,1.208459405568987,-3.003491788135469
1761469364500046000,4.333046142578125,-6.696842740219831,1.304642920908332,-4.307496703401208
1761469364510002000,4.343001953125,-6.57617813296616,1.8568096243046224,-5.26584430693984
1761469364519957000,4.35295703125,-6.122096394616365,3.358523077407479,-5.185554380172491
1761469364529912000,4.362912109375,-5.0625937709361315,5.111702377498149,-3.164519677698612
1761469364539867000,4.372866943359375,-3.6895103510081766,6.342742302057147,-0.3924506270840764
1761469364549822200,4.382822265625,-2.2305448833942414,6.745175686234235,1.8249615107536314
1761469364559777000,4.392777099609375,-1.7417033818304537,4.944283617854118,4.295979284086823
1761469364569731800,4.40273193359375,-0.01965805567204952,4.506179200837016,4.32618036108315
1761469364579687000,4.41268701171875,1.8116092772275207,4.141780656021833,3.1528526207804677
1761469364589642000,4.42264208984375,3.1991835793226957,2.558499657431245,2.3075326998762784
1761469364599597000,4.43259716796875,4.7545688552498815,1.5875804493501782,1.2419358509741723
1761469364609552000,4.4425517578125,6.026583179754018,0.96944884326756,0.9535910566613077
1761469364619507200,4.452507080078125,7.02157972125411,1.0038444493442773,1.3660206419348715
1761469364629462000,4.4624619140625,7.307490420287847,0.8871230267584324,2.424317689217627
1761469364639416800,4.472416748046875,7.068740700879693,0.7349144034668803,3.1798879272222518
1761469364649372000,4.482371826171875,6.867251329329609,0.47873219548165796,3.1878987997204065
1761469364659327000,4.492326904296875,7.320863696601987,0.5821949080437422,2.090650675013661
1761469364669282000,4.502281982421875,7.573697470942139,0.7877417382910847,0.3613178221955895
1761469364679238100,4.512238037109375,7.910166975346207,0.4527069428652525,-1.2065072485879063
1761469364689193000,4.52219287109375,9.08080533043444,-0.25570377681851386,-2.6985046327099202
1761469364699148000,4.53214794921875,10.445275235795974,-1.0411661720007657,-3.03531579015851
1761469364709102800,4.542102783203125,11.881847669816016,-0.7559493004500866,-3.071436028070748
1761469364719058000,4.552057861328125,13.123439968049526,0.09702157359868288,-2.579943427476287
1761469364729013000,4.562012939453125,13.78491065738201,1.5085761784791945,-1.0609269573949276
1761469364738967800,4.5719677734375,14.162138873153925,3.241669552874565,0.8690914032444358
1761469364748923100,4.581923095703125,14.219875607329605,3.836442202940583,2.616487736019492
1761469364758878000,4.5918779296875,14.337555061292647,4.0432188672438265,4.074200573223829
1761469364768833000,4.6018330078125,14.10205586811304,4.6085725306019185,4.734023203088343
1761469364778788000,4.6117880859375,12.944534184229374,4.867724986569583,5.07479391181767
1761469364788743000,4.621742919921875,11.828121924847364,5.417885464709997,4.557062123595178
1761469364798698000,4.631697998046875,11.088232947838305,6.418708520406485,3.296455620551109
1761469364808652800,4.64165283203125,10.15057566562891,6.253163737940788,2.4899855086535214
1761469364818608000,4.651608154296875,9.274028393420577,5.949547870868444,1.7384774055212735
1761469364828563000,4.66156298828125,8.59633371451795,6.347683265590668,1.1474155196066944
1761469364838518000,4.67151806640625,8.336953295013307,6.534386571419239,0.9074475104499607
1761469364848474000,4.68147412109375,8.43680132420957,6.548610327082872,0.7329744483802467
1761469364858429000,4.691428955078125,8.9156995239079,6.747679193487763,0.8707052681818604
1761469364868384000,4.701384033203125,9.379479649451374,6.790699420046806,1.5727698337092995
1761469364878339000,4.711339111328125,9.628962944319843,6.475875930261611,2.6069281727746128
1761469364888294000,4.7212939453125,9.594389643588661,6.10933043654561,3.3662305830448864
1761469364898249000,4.7312490234375,9.067682229489087,5.589207661533355,3.6237191974535583
1761469364908204000,4.7412041015625,8.56445973587334,5.352993013560772,3.6757717485129833
1761469364918159000,4.7511591796875,7.788878098714351,4.88508440991044,3.9273338954821226
1761469364928114000,4.761114013671875,6.8958139914691445,4.134228340946137,3.846535142409801
1761469364938069000,4.771069091796875,6.376805315178633,3.367312825323641,3.026516397631168
1761469364948024000,4.781024169921875,6.421777844849228,2.159462929955125,1.0617999408371745
1761469364957979000,4.790978759765625,6.003461831885576,0.7052098778158425,-0.8394805472262203
1761469364967934000,4.800933837890625,3.4467543185681104,-0.699259737239778,-2.191745489400625
1761469364977889000,4.810888916015625,-0.7739519901305436,-1.0597596671812235,-3.468068324753642
1761469364987844000,4.820843994140625,-5.139286549994349,-0.37966961757466194,-5.43576540479362
1761469364997799000,4.830798828125,-8.153903835517168,0.20356310908421874,-7.377352476543187
1761469365007754000,4.84075390625,-10.059511831390857,0.0983442005045712,-8.073158566197753
1761469365017709000,4.850708984375,-12.571845365452766,0.1375209764432162,-8.45489403026104
1761469365027665000,4.860664794921875,-12.58019233803749,-0.36429851850681005,-8.369626315081119
1761469365037620000,4.870619873046875,-12.613738049286603,-0.8589888191640377,-8.291576276195048
1761469365047575000,4.880574951171875,-12.662151659321784,-1.2889691125668585,-8.231957381534576
1761469365057529900,4.89052978515625,-12.699245418441295,-1.60156455103904,-8.218544942253828
1761469365067485000,4.90048486328125,-12.707251030242443,-1.7647995952576399,-8.253691658958791
1761469365077440000,4.91043994140625,-12.689932815694808,-1.781827740817517,-8.307399868270755
1761469365087393000,4.92039306640625,-12.662522246199845,-1.6909361944064496,-8.349553833389281
1761469365097348000,4.93034814453125,-12.637739687120913,-1.5370711822099983,-8.3669749237895
1761469365107303200,4.94030322265625,-12.620519672250747,-1.3550979736432431,-8.363073824697732
1761469365117258000,4.950258056640625,-12.610225072729587,-1.1708302974637597,-8.349406533873081
1761469365127213000,4.960213134765625,-8.02953920470178,-6.34320173626244,-1.9427856338843703
1761469365137168100,4.970168212890625,-7.293222825482487,-6.318470030587911,-3.1131214988946914
1761469365147123200,4.980123291015625,-7.760043633896112,-6.182656954041123,-4.2945185638844965
1761469365157078000,4.990078125,-9.060332451248168,-5.094342661896348,-4.876599782420694
1761469365167032800,5.00003271484375,-10.90521212991476,-3.326178850902617,-5.160601140701771
1761469365176988200,5.00998828125,-13.311242175030708,-1.5171471690781413,-5.1781379664361475
1761469365186943000,5.01994287109375,-13.314637078166006,-1.3205121056914328,-5.180574253672361
1761469365196899000,5.029899169921875,-13.33706869020462,-1.0644636070884763,-5.149053910771012
1761469365206854100,5.039854248046875,-13.380380593186617,-0.7614573232818395,-5.090513458997011
1761469365216809000,5.04980908203125,-13.44400813896656,-0.42811552244424816,-5.015687642854452
1761469365226764000,5.059763916015625,-13.52704064244032,-0.08248144546225666,-4.929968092253804
1761469365236719000,5.069718994140625,-7.242736500826478,5.313623710724711,-3.2016715967461464
1761469365246674200,5.079674072265625,-4.689095973864197,5.16183389736712,-3.316132088662684
1761469365256629000,5.08962890625,-2.721183205246925,4.909181909334659,-3.415940954892337
1761469365266584000,5.099583984375,-1.035260747349262,4.736893790088594,-2.8636113160192966
1761469365276539100,5.1095390625,0.5788216322183609,4.541377647729218,-1.7267144870132207
1761469365286494000,5.119493896484375,2.0013649563640357,4.5073274940893056,-0.41650984032452104
1761469365296449000,5.129448974609375,3.1636534162580965,4.667319610863924,1.1098863647446036
1761469365306404000,5.139404052734375,3.9733214474141594,4.787269932368398,2.5841648445636034
1761469365316359200,5.149359130859375,4.611314815047383,4.786366846048832,3.597844459223747
1761469365326314000,5.15931396484375,5.1566661393404,4.673925877261161,3.882219034731388
1761469365336269000,5.16926904296875,5.671528801867366,4.600000517089665,3.6851357891857623
1761469365346224000,5.17922412109375,6.238123989719152,4.516332930582761,3.5886829553857442
1761469365356179000,5.189178955078125,6.7560022006750104,4.309127519473433,3.553475448404252
1761469365366134300,5.19913427734375,7.079251573500037,4.069027554500103,3.485860002031922
1761469365376089000,5.209089111328125,7.460686593312024,3.910125278788805,3.2910867869943377
1761469365386045000,5.219044921875,7.920532302016019,3.7026311138659715,3.2151664536133406
1761469365396000300,5.229000244140625,8.462378833058477,3.5294825783982873,3.3312694520398973
1761469365405955000,5.238955078125,9.076546503946185,3.444574928702414,3.650702189186215
1761469365415910000,5.248909912109375,9.858910933113098,3.0756811182945967,3.8802562102258205
1761469365425865200,5.258865234375,10.950562845247983,2.2846298170641064,3.707458972413838
1761469365435820000,5.268820068359375,11.672322291326521,1.3823895929336547,3.2814246401578187
1761469365445775000,5.278775146484375,11.93598141106367,1.0865066582009195,2.743484761165082
1761469365455730000,5.28872998046875,11.95028816883564,1.1894444701060651,2.204712523001432
1761469365465685200,5.298685302734375,11.590274122714996,1.3751605184629558,1.9248329208254813
1761469365475640000,5.30864013671875,11.108319458055496,1.8024746613964437,2.042699714054167
1761469365485595000,5.318594970703125,10.989929225474595,2.1039628687903282,2.251460537911951
1761469365495550200,5.32855029296875,11.17116257545948,2.354312717360258,2.1627013273544606
1761469365505505000,5.338505126953125,11.255466998565197,2.785524452254176,2.014920603507757
1761469365515460000,5.348460205078125,11.143126567542552,3.3759617034643887,1.8423241489648818
1761469365525415000,5.358414794921875,11.034351720046997,3.7010099424049256,1.6878103174708783
1761469365535370000,5.368369873046875,10.699067626035212,3.789577868174016,1.6390249515138566
1761469365545325000,5.378324951171875,10.406953980708122,3.9899282988220452,1.5202178086951375
1761469365555280000,5.38827978515625,10.065767384654283,4.179611204983294,1.3807942865662275
1761469365565236000,5.398236083984375,9.5465360055238,4.342393829259276,1.3848245649956166
1761469365575191000,5.40819091796875,9.045197425958513,4.223758682006597,1.2421771123841405
1761469365585145900,5.418145751953125,8.520566818132997,3.972121131713688,0.9268272606372833
1761469365595101200,5.42810107421875,7.969718065467476,3.494010575261712,0.6935038040615618
1761469365605056000,5.438055908203125,7.809303631627559,3.049854895381629,0.049681291883438825
1761469365615011000,5.448010986328125,7.137143205976486,3.4063591798156496,0.08020502496287227
1761469365624966100,5.457966064453125,5.878320956000685,3.033938072064519,0.4071501835659146
1761469365634921000,5.4679208984375,4.8210032751441,2.2831293493732807,0.3627121991634369
1761469365644876000,5.4778759765625,3.629046237695217,1.5118550540193914,0.5232382766842841
1761469365654831000,5.4878310546875,2.908676200148463,0.7345771343365312,1.0855969960100949
1761469365664786200,5.4977861328125,2.8076784163951873,0.17079320451319216,1.2534274051949381
1761469365674741000,5.507740966796875,2.2808102587759493,-0.018482874412834645,1.123116871587187
1761469365684696000,5.517696044921875,0.8042407454103231,-0.29913024609088895,0.34997722075283527
1761469365694651100,5.527651123046875,-1.6964368376493453,-0.18092413790524003,-0.5957308275736868
1761469365704606000,5.53760595703125,-5.500715139088034,-0.011524433577060698,-0.7457502702578902
1761469365714561000,5.54756103515625,-8.864943150138854,0.012263853767514227,-1.842847880578041
1761469365724516000,5.55751611328125,-11.139853244960307,0.7547852251067757,-3.613521920827031
1761469365734471200,5.56747119140625,-12.897552652823924,1.2706126410126686,-3.7265012342751023
1761469365744426000,5.577426025390625,-12.878511267745495,1.1249774047620593,-3.6825042716383933
1761469365754382000,5.587382080078125,-12.864938669466971,0.9943516677252948,-3.63679875151813
1761469365764337200,5.597337158203125,-12.856094853276014,0.8823943908013403,-3.5925004678472874
1761469365774292000,5.6072919921875,-12.841839533430337,0.7779300999812782,-3.583407353070378
1761469365784247000,5.6172470703125,-12.82012688331604,0.6761436500683426,-3.614194997783005
1761469365794202000,5.6272021484375,-12.796350870931148,0.5775016356609761,-3.6619016285926103
1761469365804157000,5.637156982421875,-12.776717949700355,0.4919127257026732,-3.7036347379505634
1761469365814112000,5.647112060546875,-12.764182293254136,0.422662517735362,-3.7249160109102726
1761469365824067000,5.657067138671875,-12.756117060220241,0.3711097328916192,-3.73645593431741
1761469365834022100,5.667022216796875,-12.750905463051796,0.3353739642523229,-3.7434874403893947
1761469365843977000,5.67697705078125,-12.746616241425276,0.315177198593691,-3.7542286146342754
1761469365853932000,5.68693212890625,-12.741723793208598,0.31819735013246536,-3.779451903218031
1761469365863887000,5.69688720703125,-12.73603171904683,0.3537660185765475,-3.825682908517122
1761469365873842000,5.706842041015625,-8.36059778997302,-2.792735698807239,-2.0672214302398264
1761469365883797200,5.71679736328125,-6.3721051746636626,-2.614684485989809,-1.6764105331867933
1761469365893752000,5.726751953125,-4.536836204907297,-2.545126381117105,-1.304804833471775
1761469365903707100,5.73670703125,-3.350889806050062,-2.2233869744636117,-1.3677528725549577
1761469365913662000,5.746661865234375,-3.29167890766859,-1.9226387717820703,-1.4674183847911655
1761469365923617000,5.756616943359375,-3.7823803578853603,-1.8067374334074555,-1.68268303758502
1761469365933572000,5.766572021484375,-4.942987148302794,-1.0734925705879925,-2.1780175544299185
1761469365943527000,5.77652685546875,-6.22949410853982,0.24407003764808177,-2.657646260359883
1761469365953483000,5.78648291015625,-6.894169731393456,1.5987952324561774,-3.3232015886574984
1761469365963438000,5.79643798828125,-7.4177821020871395,2.190604210411012,-3.8186359126150604
1761469365973393000,5.806392822265625,-7.54247581872642,1.9024867951132356,-4.103770366579294
1761469365983348200,5.81634814453125,-6.994534477940201,1.6580708666369317,-3.90836236076951
1761469365993303000,5.826302978515625,-6.688488753372431,1.7531404293850064,-2.797699166433513
1761469366003258000,5.836258056640625,-6.310117797306179,2.008231042741239,-1.389519006422162
1761469366013213200,5.846213134765625,-5.268877391025423,1.9731587064467369,-0.37270679282471536
1761469366023168000,5.85616796875,-3.96420056784749,1.8391311981424687,0.36324469860494135
1761469366033123000,5.866123046875,-2.801040001294017,1.4030094793751835,0.35853330604359507
1761469366043078000,5.876077880859375,-1.1637947728037834,0.7592607630856335,-0.411867859737575
1761469366053033200,5.886033203125,0.7744552634775638,0.31630773699358106,-1.1760277930416165
1761469366062988000,5.895988037109375,2.2082126400768756,0.16896686586886644,-1.3176418109521268
1761469366072942800,5.90594287109375,3.0186691912621257,-0.01736424564644694,-1.3482408012248575
1761469366082899200,5.915899169921875,3.713455874741077,0.15164295223280785,-1.2792816851586102
1761469366092854000,5.92585400390625,4.770538577798009,0.48126010652408,-0.7170293488167226
1761469366102809000,5.93580908203125,5.534969875389337,-0.3320012729488313,0.7349142573364078
1761469366112764200,5.94576416015625,6.530657906284928,-0.5407536212392151,2.1850231954082844
1761469366122719000,5.955718994140625,7.655534042629599,0.15418269984349608,2.7371120112627745
1761469366132674300,5.96567431640625,8.742572323489188,0.662181467950344,2.6125086032554505
1761469366142629000,5.975629150390625,9.284831526985764,0.7861063921742141,2.4533748568758367
1761469366152585000,5.9855849609375,9.788143452450633,0.5012975169025361,1.9964631557971237
1761469366162540300,5.995540283203125,10.450047272503376,0.4227966655090451,1.504121537157893
1761469366172495000,6.0054951171875,10.746413899099826,0.3110395873323083,0.936797304379195
1761469366182450200,6.0154501953125,10.534998176819085,0.05728825975582003,0.4875342914227396
1761469366192405000,6.025405029296875,10.44998414413929,0.006592091741412878,0.08923713026754558
1761469366202360000,6.035360107421875,10.284884767353534,0.12899550548642874,-0.2202235173102468
1761469366212315100,6.045315185546875,10.066828876405953,0.4167372193396091,-0.48589711867496366
1761469366222270000,6.05527001953125,9.675172322309017,0.649412002748251,-0.5436918666481971
1761469366232225300,6.065225341796875,8.004729173094034,0.5748267173632979,0.18404782288372515
1761469366242180000,6.07518017578125,6.756828130105138,0.3285536167129874,0.7349440679527819
1761469366252135000,6.085135009765625,6.16565262774825,0.8171732922196387,0.7119019228003919
1761469366262090200,6.09509033203125,5.874404659339786,1.6077391480207441,0.8621291630163789
1761469366272045000,6.105045166015625,5.864051607629657,2.5569544738158583,0.8166716263078153
1761469366282000100,6.115000244140625,5.978541910162567,3.2208249177664516,0.7266918609794228
1761469366291955000,6.124954833984375,6.2066094920367,3.342180722154677,0.6763857882611453
1761469366301910300,6.13491015625,6.046549862983823,2.993858867393434,0.770266652681306
1761469366311865000,6.144864990234375,5.683965089592338,2.4854984263673425,1.0059863567437977
1761469366321820000,6.15481982421875,5.578711401960254,2.0658549641922117,1.254753393101692
1761469366331775200,6.164775146484375,5.649225200122594,1.5712161745265125,1.2552353313997386
1761469366341730000,6.17472998046875,5.751276292321085,1.1431246174797416,1.0835505118090658
1761469366351685000,6.18468505859375,5.579134011286497,0.8094979352861642,0.9016833209000528
1761469366361641200,6.19464111328125,4.405168557602167,0.6205690623626112,1.2405956884115934
1761469366371596000,6.204595947265625,1.9724574263095855,0.6246119080126286,2.0130188615396616
1761469366381551000,6.214551025390625,-0.8289940783947706,0.8086123846232891,2.4458149430155753
1761469366391506200,6.224506103515625,-2.746596463444829,0.7064215916931629,1.7575751969620586
1761469366401461200,6.234461181640625,-3.569389933633804,0.21767244458794593,0.4105667870763689
1761469366411416000,6.244416015625,-3.5737855382442474,-0.6395414738580584,-0.6092278033327311
1761469366421371000,6.254370849609375,-3.1342735925167795,-1.6461840294882655,-1.2403358684316277
1761469366431326200,6.264326171875,-2.997239449742436,-1.9715347585067151,-2.0928123830921948
1761469366441281000,6.274281005859375,-4.61176898855567,-1.8836422477811574,-2.3555104027122256
1761469366451236000,6.284236083984375,-7.381646374344825,-1.3875333855628966,-1.8464988043010233
1761469366461191200,6.294191162109375,-10.00073932442665,-0.10626198789179324,-1.5327242390468716
1761469366471146000,6.30414599609375,-11.56307398110032,0.4661413017168641,-0.7115492369052022
1761469366481101000,6.31410107421875,-11.550341925299167,0.4175578880727291,-0.7047560696337372
1761469366491056000,6.32405615234375,-11.541005941677092,0.3763613698095083,-0.6881736220147461
1761469366501011200,6.33401123046875,-9.143204795724152,-1.0380816499888896,-1.2788318955644964
1761469366510966000,6.343966064453125,-9.001396862676739,-1.9880621149376034,-1.747270076046884
1761469366520921000,6.353921142578125,-8.518120009502768,-2.4404446481540796,-2.3204399661138653
1761469366530876200,6.363876220703125,-7.361328977981209,-2.5696470743894575,-2.282841764603555
1761469366540831000,6.3738310546875,-5.9817749007344245,-2.6130273664325476,-1.834309038683027
1761469366550786000,6.3837861328125,-4.769820200395584,-2.5340757025316356,-1.238438510377705
1761469366560741000,6.3937412109375,-3.727423609817028,-2.106205094759166,-0.5051764041624963
1761469366570697000,6.403697021484375,-2.8930057528078557,-1.595005338653922,0.3558143294084817
1761469366580652000,6.413652099609375,-2.398222586235404,-1.1723963046714663,1.114643934535235
1761469366590607000,6.423607177734375,-1.6984277192056179,-0.8381798398911953,1.6309071115098892
1761469366600562200,6.433562255859375,-1.1171136856496333,-0.6335013169109821,1.5279375892922282
1761469366610517000,6.44351708984375,-0.4541448667138815,-0.8404328795149922,0.9444047106429934
1761469366620472300,6.453472412109375,0.1432236450642347,-1.2352937826111912,0.43557460627853867
1761469366630427100,6.46342724609375,0.5769762966126203,-1.4796668948590754,-0.11700038565769791
