time,seconds_elapsed,z,y,x
1761469360228077000,0.0610771484375,0.0329766646027565,-0.5523334741592407,-0.0049363900907337666
1761469360238032100,0.0710322265625,0.026432368904352188,-0.49970442056655884,0.02532297372817993
1761469360247987000,0.080987060546875,0.01173305232077837,-0.4376432001590729,0.04900699853897095
1761469360257942000,0.09094189453125,-0.0059245554730296135,-0.33979710936546326,0.06267426908016205
1761469360267897000,0.10089697265625,-0.011245551519095898,-0.23614899814128876,0.05243148282170296
1761469360277852200,0.11085205078125,-0.012116141617298126,-0.13653168082237244,0.018693987280130386
1761469360287807000,0.120806884765625,0.009416581131517887,-0.04693149775266647,-0.02299593575298786
1761469360297763000,0.13076318359375,0.03858565539121628,0.013612638227641582,-0.06502989679574966
1761469360307718100,0.14071826171875,0.06745938211679459,0.03214983642101288,-0.10097005218267441
1761469360317673000,0.1506728515625,0.08345262706279755,0.018292192369699478,-0.1290665864944458
1761469360327628000,0.1606279296875,0.0917169451713562,-0.0028538391925394535,-0.1511141061782837
1761469360337583000,0.1705830078125,0.09150421619415283,-0.016911007463932037,-0.16158759593963623
1761469360347538000,0.180537841796875,0.09371543675661087,-0.03727699816226959,-0.15818434953689575
1761469360357493200,0.1904931640625,0.09152775257825851,-0.040005557239055634,-0.14246442914009094
1761469360367448000,0.200447998046875,0.0788702741265297,-0.020774604752659798,-0.12555468082427979
1761469360377403100,0.210403076171875,0.06657984107732773,0.011286319233477116,-0.11594650149345398
1761469360387358000,0.22035791015625,0.05701855570077896,0.03515569865703583,-0.11714625358581543
1761469360397313000,0.23031298828125,0.05206652730703354,0.03719676658511162,-0.1317829042673111
1761469360407268000,0.24026806640625,0.0524260513484478,0.03316793963313103,-0.15131957828998566
1761469360417223000,0.250222900390625,0.06186290457844734,0.031337421387434006,-0.1737629622220993
1761469360427178200,0.26017822265625,0.07700058817863464,0.03127776458859444,-0.2030513435602188
1761469360437133000,0.270133056640625,0.099100761115551,0.03790977597236633,-0.2262122482061386
1761469360447089000,0.2800888671875,0.11900736391544342,0.04325500503182411,-0.24265646934509277
1761469360457044200,0.290044189453125,0.13251523673534393,0.03549830615520477,-0.25310319662094116
1761469360466999000,0.2999990234375,0.13878272473812103,0.008856577798724174,-0.25388747453689575
1761469360476953900,0.309953857421875,0.12892965972423553,-0.026430385187268257,-0.23780886828899384
1761469360486909200,0.3199091796875,0.10580810159444809,-0.05189340189099312,-0.20031261444091797
1761469360496864000,0.329864013671875,0.08829233795404434,-0.06830547749996185,-0.15588146448135376
1761469360506819000,0.339819091796875,0.08584782481193542,-0.07500731945037842,-0.11367622017860413
1761469360516774000,0.34977392578125,0.10032988339662552,-0.08397635072469711,-0.07367005944252014
1761469360526729200,0.359729248046875,0.12050945311784744,-0.09850496053695679,-0.03492852300405502
1761469360536684000,0.36968408203125,0.13389715552330017,-0.10790718346834183,0.009369885548949242
1761469360546638800,0.379638916015625,0.14192898571491241,-0.096694216132164,0.05365345999598503
1761469360556594200,0.38959423828125,0.15680547058582306,-0.058933455497026443,0.09781685471534729
1761469360566549000,0.399549072265625,0.1844615936279297,0.006453005596995354,0.13966870307922363
1761469360576504000,0.409504150390625,0.21384887397289276,0.06423050165176392,0.17738795280456543
1761469360586460200,0.419460205078125,0.22962890565395355,0.10899877548217773,0.2102135419845581
1761469360596415000,0.4294150390625,0.23229733109474182,0.12077540904283524,0.23225481808185577
1761469360606370000,0.4393701171875,0.2211080640554428,0.09486285597085953,0.2404448390007019
1761469360616325000,0.4493251953125,0.20330828428268433,0.0427282452583313,0.23740126192569733
1761469360626280200,0.4592802734375,0.1724686175584793,-0.02141185849905014,0.22827807068824768
1761469360636235000,0.469235107421875,0.13190500438213348,-0.07405999302864075,0.21560485661029816
1761469360646190000,0.479190185546875,0.08387302607297897,-0.11843704432249069,0.19696511328220367
1761469360656145200,0.489145263671875,0.03538677468895912,-0.13639071583747864,0.16859160363674164
1761469360666100000,0.499099853515625,0.0024903425946831703,-0.11371204257011414,0.1354147493839264
1761469360676055000,0.509054931640625,-0.01305527426302433,-0.06564318388700485,0.09310761839151382
1761469360686010000,0.519010009765625,-0.01365421898663044,-0.008999083191156387,0.0405980721116066
1761469360695965000,0.52896484375,-0.01161110494285822,0.037373580038547516,-0.015738939866423607
1761469360705920000,0.538919921875,-0.016178693622350693,0.060298334807157516,-0.05864778906106949
1761469360715875000,0.548875,-0.03162762150168419,0.05690822750329971,-0.07613085955381393
1761469360725830100,0.558830078125,-0.05149959400296211,0.025024864822626114,-0.07376543432474136
1761469360735786000,0.568785888671875,-0.07162895053625107,-0.019368454813957214,-0.06266839802265167
1761469360745741000,0.578740966796875,-0.08759859204292297,-0.050892557948827744,-0.045672107487916946
1761469360755696000,0.588696044921875,-0.09774289280176163,-0.058679334819316864,-0.029970794916152954
1761469360765651000,0.59865087890625,-0.10408414900302887,-0.05530884116888046,-0.02410757914185524
1761469360775606300,0.608606201171875,-0.10661068558692932,-0.04863874986767769,-0.03413669764995575
1761469360785561000,0.61856103515625,-0.10563703626394272,-0.03793497383594513,-0.055472880601882935
1761469360795516000,0.628515869140625,-0.10687833279371262,-0.030030611902475357,-0.08521288633346558
1761469360805471000,0.638470947265625,-0.10833188146352768,-0.02138945274055004,-0.11391004174947739
1761469360815426000,0.648426025390625,-0.11547847837209702,-0.004743530414998531,-0.13104531168937683
1761469360825381000,0.658381103515625,-0.1255287081003189,0.01277900394052267,-0.13740867376327515
1761469360835336000,0.6683359375,-0.12885653972625732,0.0264077577739954,-0.1313701570034027
1761469360845291300,0.678291259765625,-0.12258773297071457,0.04338061437010765,-0.11794515699148178
1761469360855246000,0.68824609375,-0.10893508046865463,0.04857821390032768,-0.10597104579210281
1761469360865202000,0.698201904296875,-0.09018322825431824,0.04033173620700836,-0.094468854367733
1761469360875157000,0.708156982421875,-0.07103053480386734,0.012317669577896595,-0.0719316303730011
1761469360885112000,0.718112060546875,-0.05784176290035248,-0.014255351386964321,-0.030746113508939743
1761469360895067000,0.72806689453125,-0.05438368394970894,-0.02025747299194336,0.030113598331809044
1761469360905022200,0.738022216796875,-0.05036577209830284,-0.02157467231154442,0.08567672222852707
1761469360914977000,0.74797705078125,-0.0477898083627224,-0.00940837524831295,0.11816142499446869
1761469360924932000,0.75793212890625,-0.041758548468351364,0.019495444372296333,0.129232719540596
1761469360934887200,0.76788720703125,-0.0384807288646698,0.046768877655267715,0.11212830245494843
1761469360944842000,0.777842041015625,-0.02193903550505638,0.05714162439107895,0.07447279989719391
1761469360954797000,0.787797119140625,-0.017643269151449203,0.0588691309094429,0.021104373037815094
1761469360964752000,0.797751953125,-0.01925288513302803,0.05145648866891861,-0.024492405354976654
1761469360974707200,0.807707275390625,-0.016517747193574905,0.04000792279839516,-0.05233916640281677
1761469360984662000,0.817662109375,-0.016171004623174667,0.02455919235944748,-0.06500116735696793
1761469360994617000,0.8276171875,-0.011212626472115517,0.006894330494105816,-0.06486115604639053
1761469361004573200,0.8375732421875,-0.014881929382681847,-0.009664938785135746,-0.058099132031202316
1761469361014528000,0.847528076171875,-0.01766849309206009,-0.03591460362076759,-0.051204580813646317
1761469361024483000,0.857483154296875,-0.022583091631531715,-0.06360002607107162,-0.04423162713646889
1761469361034438100,0.867438232421875,-0.02439223602414131,-0.07003561407327652,-0.030847303569316864
1761469361044393000,0.87739306640625,-0.01945659890770912,-0.04771380126476288,-0.014694168232381344
1761469361054348000,0.88734814453125,-0.007409261539578438,-0.021345943212509155,0.0011276310542598367
1761469361064303000,0.89730322265625,0.004805859178304672,-0.002514731138944626,0.013579507358372211
1761469361074258200,0.907258056640625,0.015293270349502563,0.008199942298233509,0.02571757882833481
1761469361084213500,0.917213623046875,0.03019312396645546,0.013571804389357567,0.0344676598906517
1761469361094168300,0.927168212890625,0.04668731614947319,0.011418953537940979,0.039270564913749695
1761469361104123400,0.937123291015625,0.06369186192750931,0.015172146260738373,0.042873553931713104
1761469361114078500,0.947078369140625,0.07533473521471024,0.027682241052389145,0.04385915771126747
1761469361124033500,0.957033447265625,0.0813971534371376,0.0400419719517231,0.04210386797785759
1761469361133989400,0.9669892578125,0.08088044822216034,0.05200492963194847,0.03510545939207077
1761469361143944400,0.9769443359375,0.07594587653875351,0.053114935755729675,0.01723698154091835
1761469361153899500,0.9868994140625,0.0631319135427475,0.041823286563158035,-0.005941119976341724
1761469361163854300,0.996854248046875,0.048969488590955734,0.019850077107548714,-0.02777904085814953
1761469361173809400,1.006809326171875,0.0377708375453949,-0.010188210755586624,-0.04380636289715767
1761469361183764500,1.016764404296875,0.035818472504615784,-0.04272804409265518,-0.04544899985194206
1761469361193719300,1.02671923828125,0.038774047046899796,-0.058163292706012726,-0.03681507334113121
1761469361203674400,1.03667431640625,0.04518880322575569,-0.05850444361567497,-0.02406519092619419
1761469361213629400,1.04662939453125,0.051822323352098465,-0.05677336826920509,-0.01232908945530653
1761469361223584500,1.05658447265625,0.052853234112262726,-0.04736015945672989,-0.00016829697415232658
1761469361233539300,1.066539306640625,0.04362889379262924,-0.02363819070160389,0.013172123581171036
1761469361243494400,1.076494384765625,0.03436242416501045,-0.0037086913362145424,0.016375107690691948
1761469361253449500,1.086449462890625,0.03281251713633537,0.004765779711306095,0.01746707782149315
1761469361263405300,1.0964052734375,0.02935893088579178,0.006214539520442486,0.013238511048257351
1761469361273360400,1.1063603515625,0.02614540420472622,0.01124427281320095,0.009830201044678688
1761469361283315500,1.1163154296875,0.02602369710803032,0.018425486981868744,0.013735726475715637
1761469361293270300,1.126270263671875,0.028913589194417,0.024377502501010895,0.01825837418437004
1761469361303225600,1.1362255859375,0.03188594430685043,0.025238236412405968,0.014230342581868172
1761469361313180400,1.146180419921875,0.03018605150282383,0.026852479204535484,0.008217498660087585
1761469361323135500,1.156135498046875,0.022263413295149803,0.023678256198763847,0.0003928649239242077
1761469361333090600,1.166090576171875,0.019248448312282562,0.017107972875237465,-0.006462377496063709
1761469361343045400,1.17604541015625,0.013801750726997852,0.006429761648178101,-0.01323879137635231
1761469361353000400,1.18600048828125,0.009185069240629673,-0.004976040683686733,-0.025382833555340767
1761469361362955300,1.195955322265625,0.01322881318628788,-0.013809213414788246,-0.03889251500368118
1761469361372910600,1.20591064453125,0.011428088881075382,-0.036772433668375015,-0.057037509977817535
1761469361382865400,1.215865478515625,0.005909220315515995,-0.04064440354704857,-0.06734634190797806
1761469361392820500,1.225820556640625,-0.004581570625305176,-0.017278889194130898,-0.06107327342033386
1761469361402775600,1.235775634765625,-0.009072725661098957,0.012545851059257984,-0.047122303396463394
1761469361412731400,1.2457314453125,-0.006915187928825617,0.0412801131606102,-0.03607284277677536
1761469361422686500,1.2556865234375,-0.00014223653124645352,0.05740342289209366,-0.028043415397405624
1761469361432641500,1.2656416015625,0.00795887690037489,0.05236188694834709,-0.030513238161802292
1761469361442596400,1.275596435546875,0.017015490680933,0.02527567371726036,-0.04239705950021744
1761469361452551400,1.285551513671875,0.02277378737926483,-0.010510151274502277,-0.05975884199142456
1761469361462506500,1.295506591796875,0.02150372602045536,-0.0378754623234272,-0.06837151199579239
1761469361472461600,1.305461669921875,0.013190394267439842,-0.05474023148417473,-0.0663183331489563
1761469361482416400,1.31541650390625,0.003853617701679468,-0.06094832718372345,-0.05398043990135193
1761469361492371200,1.32537109375,-0.0014418085338547826,-0.06425241380929947,-0.0394027903676033
1761469361502326500,1.335326416015625,-0.0021739115472882986,-0.06558851897716522,-0.026038512587547302
1761469361512281300,1.34528125,-0.00007752171950414777,-0.06634621322154999,-0.01652710698544979
1761469361522236400,1.355236328125,0.0022940232884138823,-0.06537576019763947,-0.016413390636444092
1761469361532191500,1.36519140625,0.002477403962984681,-0.0532320961356163,-0.021632658317685127
1761469361542147300,1.375147216796875,0.0038792917039245367,-0.01958811655640602,-0.02158951386809349
1761469361552102400,1.385102294921875,0.004522337578237057,0.019783535972237587,-0.01595103181898594
1761469361562057500,1.395057373046875,0.0063886805437505245,0.0441831536591053,-0.000978474272415042
1761469361572012500,1.405012451171875,0.013380921445786953,0.050804655998945236,0.02395191229879856
1761469361581967400,1.41496728515625,0.018607906997203827,0.03995786979794502,0.049907345324754715
1761469361591922400,1.42492236328125,0.018111545592546463,0.015340432524681091,0.06607519835233688
1761469361601877500,1.43487744140625,0.012212110683321953,-0.02397075481712818,0.06281283497810364
1761469361611832300,1.444832275390625,-0.0026884470134973526,-0.07188329845666885,0.044125232845544815
1761469361621787600,1.45478759765625,-0.020377961918711662,-0.10553793609142303,0.01403870340436697
1761469361631742500,1.464742431640625,-0.041376929730176926,-0.11642124503850937,-0.018723348155617714
1761469361641697300,1.474697265625,-0.060569532215595245,-0.10996148735284805,-0.04180816188454628
1761469361651652400,1.48465234375,-0.07757237553596497,-0.08620956540107727,-0.04906824231147766
1761469361661607400,1.494607421875,-0.08560420572757721,-0.06393808126449585,-0.04462182894349098
1761469361671562500,1.5045625,-0.08480918407440186,-0.030582990497350693,-0.031012877821922302
1761469361681518300,1.514518310546875,-0.07940909266471863,0.002641008934006095,-0.013784357346594334
1761469361691473400,1.524473388671875,-0.07520982623100281,0.02298942394554615,-0.008510766550898552
1761469361701428500,1.534428466796875,-0.06872609257698059,0.016887590289115906,-0.014808342792093754
1761469361711383300,1.54438330078125,-0.06924791634082794,0.0023794996086508036,-0.022275544703006744
1761469361721338600,1.554338623046875,-0.0729483813047409,-0.015451694838702679,-0.0311015285551548
1761469361731293400,1.56429345703125,-0.07620073109865189,-0.022594446316361427,-0.03029504232108593
1761469361741248300,1.574248291015625,-0.0704810619354248,-0.003987472038716078,-0.03473959490656853
1761469361751203600,1.58420361328125,-0.059375785291194916,0.021942242980003357,-0.05055789276957512
1761469361761158400,1.594158447265625,-0.056612223386764526,0.04579963907599449,-0.06332961469888687
1761469361771113500,1.604113525390625,-0.06093389168381691,0.05961593985557556,-0.0862802043557167
1761469361781068300,1.614068359375,-0.08060319721698761,0.07350245863199234,-0.1187896728515625
1761469361791023600,1.624023681640625,-0.09915085136890411,0.07791302353143692,-0.1623496413230896
1761469361800978400,1.633978515625,-0.11457641422748566,0.07822541147470474,-0.20954404771327972
1761469361810933200,1.643933349609375,-0.1287439465522766,0.10061255097389221,-0.23382624983787537
1761469361820888600,1.653888671875,-0.14095667004585266,0.08977562189102173,-0.2658054828643799
1761469361830844400,1.663844482421875,-0.14697328209877014,0.04974278062582016,-0.30483579635620117
1761469361840799200,1.67379931640625,-0.1436174362897873,0.0060347141698002815,-0.3377535045146942
1761469361850754600,1.683754638671875,-0.14137277007102966,-0.015786249190568924,-0.35045599937438965
1761469361860709400,1.69370947265625,-0.13736550509929657,-0.02256772294640541,-0.35675305128097534
1761469361870664400,1.70366455078125,-0.1260823756456375,0.0023022289387881756,-0.35812050104141235
1761469361880619500,1.71361962890625,-0.1160888671875,0.04940715804696083,-0.35504934191703796
1761469361890574300,1.72357421875,-0.11011961102485657,0.08500619232654572,-0.3532732129096985
1761469361900529400,1.733529296875,-0.11167915165424347,0.08003220707178116,-0.36114364862442017
1761469361910484200,1.743484130859375,-0.11309744417667389,0.033578839153051376,-0.3644806742668152
1761469361920439600,1.753439453125,-0.11129475384950638,-0.024018945172429085,-0.3591991066932678
1761469361930394400,1.763394287109375,-0.11024551093578339,-0.05771564692258835,-0.3503110110759735
1761469361940349400,1.773349365234375,-0.10596128553152084,-0.06710941344499588,-0.3351925313472748
1761469361950304500,1.783304443359375,-0.1028556227684021,-0.05131279677152634,-0.32153400778770447
1761469361960259300,1.79325927734375,-0.10196239501237869,-0.03477243334054947,-0.30762696266174316
1761469361970215400,1.80321533203125,-0.1027873307466507,-0.019137727096676826,-0.2944725453853607
1761469361980170500,1.81317041015625,-0.1113203689455986,0.00014355828170664608,-0.2679104506969452
1761469361990125300,1.823125244140625,-0.1195806935429573,0.023294316604733467,-0.22378216683864594
1761469362000080400,1.833080322265625,-0.1271592527627945,0.0632057785987854,-0.15465369820594788
1761469362010035500,1.843035400390625,-0.12671078741550446,0.12081454694271088,-0.08119608461856842
1761469362019990500,1.852990478515625,-0.11110172420740128,0.16398224234580994,-0.020510097965598106
1761469362029945300,1.8629453125,-0.08733141422271729,0.17224827408790588,0.013010884635150433
1761469362039900400,1.872900390625,-0.055565498769283295,0.16543059051036835,0.024191368371248245
1761469362049855500,1.88285546875,-0.017468499019742012,0.15067893266677856,0.04036196693778038
1761469362059810300,1.892810302734375,0.024755386635661125,0.142238050699234,0.06589236110448837
1761469362069765400,1.902765380859375,0.052418749779462814,0.12194246053695679,0.11357385665178299
1761469362079720200,1.91272021484375,0.0758308619260788,0.09918282181024551,0.19072909653186798
1761469362089675500,1.922675537109375,0.10763540863990784,0.07047877460718155,0.296804279088974
1761469362099630300,1.93263037109375,0.15591025352478027,0.10868261754512787,0.4014771580696106
1761469362109585400,1.94258544921875,0.2595553696155548,0.2103879749774933,0.530092716217041
1761469362119541500,1.95254150390625,0.3851220905780792,0.2945385277271271,0.6525507569313049
1761469362129496300,1.962496337890625,0.5038502812385559,0.3633328080177307,0.719238817691803
1761469362139451400,1.972451416015625,0.5989850163459778,0.47636961936950684,0.8157605528831482
1761469362149406200,1.98240625,0.6230394244194031,0.6562300324440002,0.9116916060447693
1761469362159361300,1.992361328125,0.5663591027259827,0.7705965638160706,0.9862358570098877
1761469362169316400,2.00231640625,0.47633081674575806,0.8183900117874146,1.0261882543563843
1761469362179271200,2.012271240234375,0.39792415499687195,0.8140357136726379,0.9978355169296265
1761469362189226500,2.0222265625,0.37393245100975037,0.706889271736145,0.8869979977607727
1761469362199181300,2.032181396484375,0.43887707591056824,0.5101785659790039,0.7334984540939331
1761469362209136000,2.04213623046875,0.5722023844718933,0.17737774550914764,0.5727262496948242
1761469362219091500,2.052091552734375,0.7683399319648743,-0.32976216077804565,0.43575000762939453
1761469362229046300,2.06204638671875,0.9799925088882446,-0.7572118043899536,0.352203369140625
1761469362239001300,2.07200146484375,1.1160075664520264,-0.8300135731697083,0.36470770835876465
1761469362248956200,2.0819560546875,1.1151827573776245,-0.5008803606033325,0.4551164209842682
1761469362258911500,2.091911376953125,1.063661813735962,-0.009454675018787384,0.555957019329071
1761469362268867300,2.101867431640625,1.0398330688476562,0.3346121311187744,0.5626672506332397
1761469362278822400,2.111822509765625,1.0106794834136963,0.46658560633659363,0.45240652561187744
1761469362288777500,2.121777587890625,0.9364402890205383,0.3653354346752167,0.19473695755004883
1761469362298732300,2.131732177734375,0.8265630602836609,0.013040500693023205,-0.12291502207517624
1761469362308687000,2.14168701171875,0.7008092403411865,-0.4013775885105133,-0.4116591513156891
1761469362318642400,2.151642333984375,0.5655248761177063,-0.5878822803497314,-0.6376044154167175
1761469362328597200,2.16159716796875,0.4529781937599182,-0.4917331635951996,-0.8422958254814148
1761469362338552300,2.17155224609375,0.39959460496902466,-0.438016414642334,-1.0277405977249146
1761469362348507400,2.18150732421875,0.3710979223251343,-0.5231713652610779,-1.229938268661499
1761469362358462200,2.191462158203125,0.2764132022857666,-0.6579291820526123,-1.424433708190918
1761469362368417300,2.201417236328125,0.11080845445394516,-0.8311805129051208,-1.5638368129730225
1761469362378372000,2.2113720703125,-0.04975087195634842,-1.0346437692642212,-1.6061357259750366
1761469362388327400,2.221327392578125,-0.15588732063770294,-1.206791877746582,-1.569980502128601
1761469362398282200,2.2312822265625,-0.20914281904697418,-1.3011633157730103,-1.5163729190826416
1761469362408237300,2.2412373046875,-0.2114381343126297,-1.3140044212341309,-1.4590085744857788
1761469362418192400,2.2511923828125,-0.14280954003334045,-1.3527361154556274,-1.3925400972366333
1761469362428148200,2.261148193359375,0.020442379638552666,-1.3959968090057373,-1.2915974855422974
1761469362438103300,2.271103271484375,0.2235768586397171,-1.3634670972824097,-1.1454850435256958
1761469362448058400,2.281058349609375,0.39889445900917053,-1.221629023551941,-0.966841995716095
1761469362458013200,2.29101318359375,0.5814749598503113,-0.9263297319412231,-0.7457370162010193
1761469362467968300,2.30096826171875,0.7793729305267334,-0.49998360872268677,-0.4868081510066986
1761469362477923300,2.31092333984375,0.954543948173523,0.012410718947649002,-0.22422073781490326
1761469362487878400,2.32087841796875,1.127014398574829,0.4965687692165375,-0.0059054396115243435
1761469362497833200,2.330833251953125,1.3121174573898315,0.8815976977348328,0.16157463192939758
1761469362507788500,2.34078857421875,1.4942015409469604,1.1207619905471802,0.3128073811531067
1761469362517743400,2.350743408203125,1.6011756658554077,1.3304946422576904,0.4393272399902344
1761469362527698200,2.3606982421875,1.653002381324768,1.501320719718933,0.550620436668396
1761469362537653200,2.3706533203125,1.6705135107040405,1.634806513786316,0.6512394547462463
1761469362547608300,2.3806083984375,1.666797399520874,1.6127169132232666,0.7384371757507324
1761469362557563400,2.3905634765625,1.474481225013733,1.3871461153030396,0.779788076877594
1761469362567518200,2.400518310546875,0.9757291078567505,0.7827843427658081,0.6757159233093262
1761469362577474300,2.410474365234375,0.4594745934009552,0.29362133145332336,0.5667811632156372
1761469362587429400,2.420429443359375,0.05020242556929588,0.15780672430992126,0.6107754111289978
1761469362597384200,2.43038427734375,-0.18539251387119293,0.20491857826709747,0.8614579439163208
1761469362607339300,2.44033935546875,-0.29669278860092163,0.2450777292251587,1.1580052375793457
1761469362617294300,2.45029443359375,-0.39304834604263306,0.21621306240558624,1.3910810947418213
1761469362627249200,2.460249267578125,-0.518496036529541,0.14668071269989014,1.5788828134536743
1761469362637204500,2.47020458984375,-0.6578224897384644,0.06278181821107864,1.7895662784576416
1761469362647159300,2.4801591796875,-0.756413996219635,-0.009656429290771484,1.9985511302947998
1761469362657114400,2.4901142578125,-0.8232249617576599,-0.02490995079278946,2.1547293663024902
1761469362667069200,2.500069091796875,-0.8825210928916931,0.10881222784519196,2.1944267749786377
1761469362677024300,2.510024169921875,-0.9412409067153931,0.29070109128952026,2.1458559036254883
1761469362686979300,2.519979248046875,-0.9951879382133484,0.5388267636299133,1.9969983100891113
1761469362696934100,2.52993408203125,-1.0401809215545654,0.727432906627655,1.8052952289581299
1761469362706889500,2.539889404296875,-1.005562424659729,0.6585764288902283,1.7316181659698486
1761469362716844300,2.54984423828125,-0.9147284030914307,0.6502154469490051,1.6915048360824585
1761469362726799400,2.55979931640625,-0.7804538011550903,0.6544943451881409,1.576064109802246
1761469362736755500,2.56975537109375,-0.6622920036315918,0.6369643211364746,1.325620412826538
1761469362746710300,2.579710205078125,-0.5777089595794678,0.36184054613113403,0.902525782585144
1761469362756665300,2.589665283203125,-0.483992338180542,-0.2651221752166748,0.3499712347984314
1761469362766620400,2.599620361328125,-0.3119928538799286,-1.0406550168991089,-0.1683163046836853
1761469362776575200,2.6095751953125,-0.09224692732095718,-1.4555853605270386,-0.5367627739906311
1761469362786530300,2.6195302734375,0.0976538211107254,-1.4833167791366577,-0.68890380859375
1761469362796485400,2.6294853515625,0.39317813515663147,-1.0009616613388062,-0.6567658185958862
1761469362806440400,2.6394404296875,0.7151638865470886,-0.22835801541805267,-0.5856398344039917
1761469362816395300,2.649395263671875,0.7290040254592896,0.36845770478248596,-0.6768741607666016
1761469362826350300,2.659350341796875,0.45130887627601624,0.8560972809791565,-0.9890838861465454
1761469362836305400,2.669305419921875,0.025201523676514626,1.0203309059143066,-1.5449599027633667
1761469362846260200,2.67926025390625,-0.40949997305870056,0.8192538022994995,-2.1391782760620117
1761469362856215300,2.68921533203125,-0.8134447932243347,0.5606070756912231,-2.4819440841674805
1761469362866170400,2.69917041015625,-0.9323549270629883,0.33450478315353394,-2.599520683288574
1761469362876125400,2.70912548828125,-0.6439753174781799,0.1311168074607849,-2.405198574066162
1761469362886081300,2.719081298828125,-0.10341361910104752,0.039745211601257324,-1.8697243928909302
1761469362896036400,2.729036376953125,0.4703788161277771,0.008541219867765903,-1.0742924213409424
1761469362905991400,2.738991455078125,0.8191732168197632,-0.19075776636600494,-0.2459087073802948
1761469362915946200,2.7489462890625,0.8494080901145935,-0.5547788739204407,0.41066834330558777
1761469362925901300,2.7589013671875,0.6406553983688354,-0.9677181243896484,0.7830960154533386
1761469362935856400,2.7688564453125,0.36778655648231506,-1.135561466217041,0.844176173210144
1761469362945811200,2.778811279296875,0.17443525791168213,-1.0243521928787231,0.729184091091156
1761469362955766300,2.788766357421875,0.07211287319660187,-0.8682504892349243,0.5168470740318298
1761469362965721300,2.798721435546875,0.025894880294799805,-0.8188024759292603,0.31942734122276306
1761469362975676400,2.808676513671875,0.12578366696834564,-0.995837926864624,0.12278005480766296
1761469362985631200,2.81863134765625,0.3673388659954071,-1.3716729879379272,-0.14643561840057373
1761469362995586300,2.82858642578125,0.6818299889564514,-1.5475742816925049,-0.36128613352775574
1761469363005541400,2.838541259765625,0.9614171981811523,-1.6025187969207764,-0.5455819368362427
1761469363015496200,2.84849609375,1.0838851928710938,-1.71412193775177,-0.5726258158683777
1761469363025451500,2.858451416015625,0.8228504061698914,-1.723156452178955,-0.32027289271354675
1761469363035406300,2.86840625,0.37654611468315125,-1.858944058418274,-0.13569426536560059
1761469363045361400,2.878361328125,0.12806753814220428,-2.0477702617645264,-0.35202082991600037
1761469363055316200,2.888316162109375,0.0787162333726883,-1.9288783073425293,-0.9613786935806274
1761469363065272300,2.898272216796875,0.1905744969844818,-1.7336002588272095,-1.807694673538208
1761469363075227100,2.90822705078125,0.3382646143436432,-1.4045428037643433,-2.535632610321045
1761469363085183000,2.918182861328125,0.35164088010787964,-0.9941179156303406,-2.9740185737609863
1761469363095138000,2.928137939453125,0.2830333113670349,-0.7403527498245239,-3.222338914871216
1761469363105093000,2.938093017578125,0.07151266187429428,-0.2867550551891327,-3.1703689098358154
1761469363115048000,2.9480478515625,-0.1308034360408783,0.15990714728832245,-2.874603509902954
1761469363125002800,2.958002685546875,-0.20392201840877533,0.338492751121521,-2.497525930404663
1761469363134958000,2.9679580078125,-0.19931474328041077,0.4898090362548828,-1.9810434579849243
1761469363144913000,2.977912841796875,-0.1289532333612442,0.5333631038665771,-1.3302081823349
1761469363154868000,2.987867919921875,-0.003286114428192377,0.384059339761734,-0.5217148661613464
1761469363164823000,2.997822998046875,0.04148385673761368,0.021497702226042747,0.32074275612831116
1761469363174778000,3.007778076171875,0.0014773166039958596,-0.43573644757270813,1.1137666702270508
1761469363184733000,3.01773291015625,-0.06685210019350052,-0.8218492269515991,1.7651104927062988
1761469363194688000,3.02768798828125,-0.2283371239900589,-1.0733851194381714,2.199721574783325
1761469363204643000,3.03764306640625,-0.5143924951553345,-1.2738473415374756,2.3752641677856445
1761469363214598000,3.047597900390625,-0.8510051369667053,-1.201501727104187,2.3246102333068848
1761469363224554000,3.057553955078125,-1.041595697402954,-0.6089954376220703,2.0062966346740723
1761469363234509000,3.067509033203125,-1.031981110572815,0.005664526019245386,1.5476861000061035
1761469363244463900,3.0774638671875,-0.9262471795082092,0.5995118021965027,1.0474050045013428
1761469363254419200,3.087419189453125,-0.8587357401847839,1.1876568794250488,0.37916120886802673
1761469363264374000,3.0973740234375,-0.7975991368293762,1.7900261878967285,-0.3626246452331543
1761469363274328800,3.107328857421875,-0.7501229643821716,2.5029850006103516,-1.0467771291732788
1761469363284284000,3.117283935546875,-0.7054198980331421,3.305048942565918,-1.4533594846725464
1761469363294239000,3.127239013671875,-0.6211329698562622,3.626235008239746,-1.3841204643249512
1761469363304194000,3.137194091796875,-0.47826042771339417,3.1288442611694336,-0.8263965249061584
1761469363314148900,3.14714892578125,-0.3449689447879791,2.0619421005249023,-0.0410337895154953
1761469363324104200,3.157104248046875,-0.3789503872394562,0.702508807182312,0.7110846042633057
1761469363334059000,3.16705908203125,-0.7159885764122009,-0.5244441032409668,1.1895638704299927
1761469363344013800,3.177013916015625,-1.1610522270202637,-1.2486801147460938,1.440694808959961
1761469363353969000,3.186968994140625,-1.5253862142562866,-1.3796541690826416,1.4878926277160645
1761469363363924000,3.196924072265625,-1.5370843410491943,-0.9911741614341736,1.3649975061416626
1761469363373879000,3.206879150390625,-1.3446937799453735,-0.19762806594371796,1.1025416851043701
1761469363383833900,3.216833740234375,-0.8200376629829407,0.7086936235427856,0.804458737373352
1761469363393790000,3.2267900390625,-0.11635749042034149,1.4878698587417603,0.4526304006576538
1761469363403745000,3.2367451171875,0.447516530752182,1.8346829414367676,0.09064564108848572
1761469363413699800,3.246699951171875,0.6857131719589233,1.6292695999145508,0.013982551172375679
1761469363423655000,3.256655029296875,0.6827116012573242,0.859892725944519,0.17655271291732788
1761469363433610000,3.26660986328125,0.5986800789833069,0.007185566239058971,0.5547599196434021
1761469363443564800,3.276564697265625,0.4510100781917572,-0.6864752173423767,0.9081110954284668
1761469363453520100,3.28652001953125,0.2771280109882355,-1.1914947032928467,1.0276174545288086
1761469363463475000,3.296474853515625,0.10438793897628784,-1.0028188228607178,1.0004322528839111
1761469363473430000,3.306429931640625,0.07249259203672409,-0.21102696657180786,0.8578251004219055
1761469363483385000,3.316385009765625,0.2845684289932251,0.9104483127593994,0.6360464096069336
1761469363493340000,3.32633984375,0.5897485613822937,1.9807305335998535,0.24807634949684143
1761469363503295000,3.336294921875,0.7870322465896606,2.490283966064453,-0.3739645779132843
1761469363513249800,3.346249755859375,0.8089569807052612,2.3060476779937744,-1.0038021802902222
1761469363523205000,3.356205078125,0.6946598291397095,1.3528538942337036,-1.4594982862472534
1761469363533160000,3.366159912109375,0.5451339483261108,0.10081935673952103,-1.6732065677642822
1761469363543115000,3.376114990234375,0.35911983251571655,-1.288517951965332,-1.7045875787734985
1761469363553070000,3.386070068359375,0.23469294607639313,-2.486085891723633,-1.660007357597351
1761469363563026000,3.39602587890625,0.27895376086235046,-3.034613609313965,-1.617419958114624
1761469363572981000,3.40598095703125,0.4526917338371277,-2.5984389781951904,-1.3137586116790771
1761469363582936000,3.41593603515625,0.5422968864440918,-1.607293963432312,-0.821739673614502
1761469363592891000,3.425890869140625,0.5635939240455627,-0.5661978721618652,-0.38638317584991455
1761469363602846000,3.435845947265625,0.5099582076072693,0.16295309364795685,-0.11552190780639648
1761469363612801000,3.445801025390625,0.3704988360404968,0.13472172617912292,-0.012219754979014397
1761469363622756000,3.455756103515625,0.19880078732967377,-0.4595225155353546,-0.05742018297314644
1761469363632711000,3.4657109375,0.03935519605875015,-1.1942108869552612,-0.0966581329703331
1761469363642666000,3.475666015625,0.022721268236637115,-1.6974642276763916,-0.0781816840171814
1761469363652621000,3.48562109375,0.11662832647562027,-1.962250828742981,-0.09936153143644333
1761469363662575900,3.495575927734375,0.3768934905529022,-1.5552185773849487,0.03674592077732086
1761469363672531000,3.505531005859375,0.6227954626083374,-0.8131429553031921,0.10187113285064697
1761469363682486000,3.515486083984375,0.8203187584877014,0.11336816102266312,0.2751105725765228
1761469363692441000,3.525441162109375,0.9040150046348572,0.5267304182052612,0.6349552869796753
1761469363702396000,3.53539599609375,0.7967749238014221,0.3481956720352173,1.1120045185089111
1761469363712351000,3.54535107421875,0.6804741621017456,-0.33022651076316833,1.486286997795105
1761469363722306000,3.55530615234375,0.5941300988197327,-1.060402750968933,1.648972988128662
1761469363732262000,3.565261962890625,0.5804880857467651,-1.5274404287338257,1.637203335762024
1761469363742217000,3.575217041015625,0.5102391839027405,-1.7491421699523926,1.3739017248153687
1761469363752172000,3.585172119140625,0.4085056185722351,-1.8045319318771362,0.9196586012840271
1761469363762126800,3.595126953125,0.2951121926307678,-1.8084841966629028,0.4612424969673157
1761469363772082200,3.605082275390625,0.2508549988269806,-1.6248914003372192,0.1925433874130249
1761469363782037000,3.615037109375,0.4898725152015686,-1.381790280342102,0.19077520072460175
1761469363791992000,3.624991943359375,0.8130173087120056,-1.0466556549072266,0.15427657961845398
1761469363801947000,3.63494677734375,1.0017387866973877,-0.6425418257713318,-0.06207580864429474
1761469363811902000,3.64490185546875,1.0030666589736938,-0.3846935033798218,-0.3218299150466919
1761469363821857000,3.65485693359375,0.7955073714256287,-0.3107165992259979,-0.47043487429618835
1761469363831811800,3.664811767578125,0.5706971883773804,-0.2804715931415558,-0.505841076374054
1761469363841767200,3.67476708984375,0.3983904719352722,-0.28361043334007263,-0.5415242910385132
1761469363851722000,3.684721923828125,0.2958957850933075,-0.30591440200805664,-0.5938367247581482
1761469363861677000,3.694677001953125,0.2567559778690338,-0.1964816302061081,-0.6689988374710083
1761469363871632000,3.7046318359375,0.20745153725147247,0.09535395354032516,-0.7239654064178467
1761469363881587000,3.7145869140625,0.10815870761871338,0.5205531120300293,-0.6645214557647705
1761469363891542000,3.7245419921875,-0.02162858285009861,1.088519811630249,-0.35625094175338745
1761469363901496800,3.734496826171875,-0.10052669793367386,1.6877167224884033,0.21488049626350403
1761469363911453000,3.744452880859375,-0.1478113830089569,2.1851367950439453,0.924063503742218
1761469363921408000,3.754407958984375,-0.1911698430776596,2.333829164505005,1.619512677192688
1761469363931362800,3.76436279296875,-0.25222811102867126,1.9593760967254639,2.2098076343536377
1761469363941318100,3.774318115234375,-0.4029095470905304,1.1570677757263184,2.6518521308898926
1761469363951273000,3.78427294921875,-0.6166473627090454,0.23103760182857513,2.9269297122955322
1761469363961227800,3.794227783203125,-0.9449068903923035,-0.3639746606349945,2.9665966033935547
1761469363971183000,3.80418310546875,-1.3431553840637207,-0.2935047447681427,2.794952154159546
1761469363981138000,3.814137939453125,-1.551575779914856,-0.3440588712692261,2.564927101135254
1761469363991093000,3.824093017578125,-1.5269509553909302,-0.3924146592617035,2.0693602561950684
1761469364001048000,3.834048095703125,-1.4225190877914429,-0.11429882049560547,1.1932872533798218
1761469364011003100,3.844003173828125,-1.3680853843688965,0.12325967103242874,0.036070317029953
1761469364020958000,3.8539580078125,-1.22783362865448,0.3041999340057373,-0.9844881296157837
1761469364030912800,3.863912841796875,-0.9782123565673828,0.5174440145492554,-1.6834547519683838
1761469364040868000,3.8738681640625,-0.6333393454551697,1.0053703784942627,-1.7629926204681396
1761469364050823000,3.883822998046875,-0.2154691219329834,1.3102117776870728,-1.496180534362793
1761469364060778000,3.893778076171875,0.0733950138092041,1.104663610458374,-1.1377146244049072
1761469364070733000,3.903733154296875,0.1619642823934555,0.6415015459060669,-0.6881291270256042
1761469364080689000,3.91368896484375,0.14083519577980042,0.08128513395786285,-0.20912963151931763
1761469364090645000,3.92364501953125,0.1150723248720169,-0.35726693272590637,0.24139732122421265
1761469364100600000,3.93360009765625,0.04875257983803749,-0.5515809059143066,0.608961284160614
1761469364110555000,3.943554931640625,-0.10390166938304901,-0.5718414187431335,0.8930417895317078
1761469364120510000,3.953510009765625,-0.2985040247440338,-0.5517170429229736,0.9876638650894165
1761469364130465000,3.963465087890625,-0.48526114225387573,-0.45145490765571594,0.836097240447998
1761469364140419800,3.973419921875,-0.6640746593475342,-0.3484968841075897,0.4783996641635895
1761469364150375000,3.983375,-0.7507779002189636,-0.2880242168903351,0.034822769463062286
1761469364160952000,3.9939521484375,-0.7424795031547546,-0.14236442744731903,-0.32922184467315674
1761469364170907100,4.0039072265625,-0.6286080479621887,0.05544665455818176,-0.4592972695827484
1761469364180862000,4.013862060546875,-0.40822508931159973,0.34458979964256287,-0.3467094302177429
1761469364190816800,4.023816650390625,-0.22563689947128296,0.4642198085784912,-0.22225752472877502
1761469364200772000,4.033772216796875,-0.14472068846225739,0.1146007850766182,-0.2932787537574768
1761469364210727000,4.043726806640625,-0.06830928474664688,-0.5569109916687012,-0.5115407705307007
1761469364220682000,4.053681884765625,0.061819903552532196,-1.1217474937438965,-0.7533876895904541
1761469364230637000,4.063636962890625,0.2135670930147171,-1.4119114875793457,-1.0550376176834106
1761469364240592100,4.073592041015625,0.3656957149505615,-1.4476033449172974,-1.4492604732513428
1761469364250547000,4.083546875,0.47160428762435913,-1.306911826133728,-1.906667709350586
1761469364260501800,4.093501708984375,0.5055155158042908,-1.1284717321395874,-2.3929920196533203
1761469364270457900,4.103457763671875,0.48286110162734985,-1.0370539426803589,-2.844679832458496
1761469364280413000,4.113412841796875,0.325115442276001,-0.8905823826789856,-3.0153210163116455
1761469364290368000,4.123367919921875,0.05525864288210869,-0.730417788028717,-2.771223783493042
1761469364300323000,4.133322998046875,-0.16080687940120697,-0.5196634531021118,-2.2213284969329834
1761469364310278000,4.14327783203125,-0.25350886583328247,-0.10320605337619781,-1.4986761808395386
1761469364320233000,4.15323291015625,-0.1863185614347458,0.3753810226917267,-0.7649446725845337
1761469364330188000,4.16318798828125,-0.04841636121273041,0.7946550250053406,-0.17848196625709534
1761469364340142800,4.173142822265625,0.036528196185827255,1.0392875671386719,0.12226926535367966
1761469364350098000,4.183097900390625,0.02390987053513527,1.066267728805542,0.19585879147052765
1761469364360053000,4.193052978515625,-0.04129641503095627,0.7642245292663574,0.12877234816551208
1761469364370008000,4.203008056640625,0.012499438598752022,0.2556973695755005,0.029687047004699707
1761469364379963000,4.212962890625,0.11307531595230103,-0.2833605110645294,-0.05151006951928139
1761469364389918200,4.222918212890625,0.19544155895709991,-0.613008975982666,-0.10853048413991928
1761469364399873000,4.232873046875,0.24405214190483093,-0.7329822182655334,-0.04694365710020065
1761469364409827800,4.242827880859375,0.22556553781032562,-0.6036537885665894,0.272121399641037
1761469364419783000,4.252782958984375,0.13549968600273132,-0.22037965059280396,0.7919080853462219
1761469364429738000,4.262738037109375,0.05176003649830818,0.21111157536506653,1.3735650777816772
1761469364439693000,4.272693115234375,-0.08795753866434097,0.28820890188217163,1.7269138097763062
1761469364449647900,4.28264794921875,-0.2773168087005615,0.016010668128728867,1.8541631698608398
1761469364459604000,4.29260400390625,-0.36982131004333496,-0.260278582572937,1.8448660373687744
1761469364469559000,4.30255908203125,-0.32067427039146423,-0.34341129660606384,1.7467889785766602
1761469364479513900,4.312513916015625,-0.19117853045463562,-0.25741708278656006,1.6006500720977783
1761469364489469000,4.322468994140625,-0.13971932232379913,-0.1437581479549408,1.4282135963439941
1761469364500046000,4.333046142578125,-0.3221786320209503,0.04247213900089264,1.2871184349060059
1761469364510002000,4.343001953125,-0.7138358354568481,0.18946611881256104,1.2560840845108032
1761469364519957000,4.35295703125,-1.1037025451660156,0.3174639642238617,1.2688148021697998
1761469364529912000,4.362912109375,-1.2397613525390625,0.395633339881897,1.232951283454895
1761469364539867000,4.372866943359375,-1.1091952323913574,0.45801103115081787,1.0677341222763062
1761469364549822200,4.382822265625,-0.7805443406105042,0.6783385872840881,0.8887987732887268
1761469364559777000,4.392777099609375,-0.3049848675727844,0.9337594509124756,0.8086413741111755
1761469364569731800,4.40273193359375,0.04824935644865036,0.8803569674491882,0.7475252747535706
1761469364579687000,4.41268701171875,0.1951928734779358,0.6295847296714783,0.7577106356620789
1761469364589642000,4.42264208984375,0.13260911405086517,0.24686528742313385,0.7796213030815125
1761469364599597000,4.43259716796875,-0.07309741526842117,-0.12212056666612625,0.7893272042274475
1761469364609552000,4.4425517578125,-0.2542046308517456,-0.4190358519554138,0.7545668482780457
1761469364619507200,4.452507080078125,-0.2905527353286743,-0.5062454342842102,0.6439698934555054
1761469364629462000,4.4624619140625,-0.13241688907146454,-0.33255699276924133,0.5634831190109253
1761469364639416800,4.472416748046875,0.1595766842365265,-0.009475024417042732,0.5907868146896362
1761469364649372000,4.482371826171875,0.46888232231140137,0.37766045331954956,0.6926655173301697
1761469364659327000,4.492326904296875,0.6386582851409912,0.6478186249732971,0.8085713386535645
1761469364669282000,4.502281982421875,0.6380348205566406,1.01762056350708,0.9929683804512024
1761469364679238100,4.512238037109375,0.45876944065093994,1.3119770288467407,1.201962947845459
1761469364689193000,4.52219287109375,-0.018792588263750076,1.294236660003662,1.4174468517303467
1761469364699148000,4.53214794921875,-0.6679398417472839,1.1024917364120483,1.5609935522079468
1761469364709102800,4.542102783203125,-1.3721061944961548,0.8715114593505859,1.500525712966919
1761469364719058000,4.552057861328125,-1.9523078203201294,0.6304497718811035,1.2645424604415894
1761469364729013000,4.562012939453125,-2.221566677093506,0.5718980431556702,0.945385217666626
1761469364738967800,4.5719677734375,-2.2238242626190186,0.6821357607841492,0.5023400187492371
1761469364748923100,4.581923095703125,-2.0819215774536133,0.8178930878639221,-0.02601091004908085
1761469364758878000,4.5918779296875,-1.8397365808486938,0.7936154007911682,-0.5711901783943176
1761469364768833000,4.6018330078125,-1.5481960773468018,0.6146240830421448,-1.0446292161941528
1761469364778788000,4.6117880859375,-1.2112873792648315,0.47220903635025024,-1.3338910341262817
1761469364788743000,4.621742919921875,-0.9299577474594116,0.3476971983909607,-1.45992910861969
1761469364798698000,4.631697998046875,-0.7524763941764832,0.07796591520309448,-1.448201298713684
1761469364808652800,4.64165283203125,-0.6232811212539673,-0.2988671064376831,-1.3069339990615845
1761469364818608000,4.651608154296875,-0.5385300517082214,-0.6046562194824219,-1.0792992115020752
1761469364828563000,4.66156298828125,-0.4444655776023865,-0.7795276641845703,-0.8192183375358582
1761469364838518000,4.67151806640625,-0.38413581252098083,-0.7914112210273743,-0.6113261580467224
1761469364848474000,4.68147412109375,-0.35756757855415344,-0.673902690410614,-0.5026401877403259
1761469364858429000,4.691428955078125,-0.33165162801742554,-0.5460756421089172,-0.5130636096000671
1761469364868384000,4.701384033203125,-0.26069942116737366,-0.4483165442943573,-0.6043999195098877
1761469364878339000,4.711339111328125,-0.13633552193641663,-0.3751838505268097,-0.7389460802078247
1761469364888294000,4.7212939453125,0.020333189517259598,-0.3396548926830292,-0.8660094738006592
1761469364898249000,4.7312490234375,0.21645551919937134,-0.36581867933273315,-0.9201691150665283
1761469364908204000,4.7412041015625,0.45164111256599426,-0.48608890175819397,-0.883357048034668
1761469364918159000,4.7511591796875,0.7454484105110168,-0.7062365412712097,-0.7120648622512817
1761469364928114000,4.761114013671875,1.0911953449249268,-1.0290724039077759,-0.4790492355823517
1761469364938069000,4.771069091796875,1.3836597204208374,-1.4450942277908325,-0.3848877549171448
1761469364948024000,4.781024169921875,1.448393702507019,-2.027195453643799,-0.657747745513916
1761469364957979000,4.790978759765625,1.369428277015686,-2.6563594341278076,-1.2537237405776978
1761469364967934000,4.800933837890625,1.2955740690231323,-2.887692451477051,-1.9751005172729492
1761469364977889000,4.810888916015625,1.2634609937667847,-2.4784202575683594,-2.6631767749786377
1761469364987844000,4.820843994140625,1.1225430965423584,-1.7703168392181396,-3.298133134841919
1761469364997799000,4.830798828125,0.790255069732666,-1.2821687459945679,-3.9052865505218506
1761469365007754000,4.84075390625,0.5368257761001587,-1.1015774011611938,-4.578952789306641
1761469365017709000,4.850708984375,0.2967904508113861,-0.9620257019996643,-5.200056076049805
1761469365027665000,4.860664794921875,0.0823732316493988,-0.8827282190322876,-5.4965009689331055
1761469365037620000,4.870619873046875,0.0065918127074837685,-0.8034732937812805,-5.157660484313965
1761469365047575000,4.880574951171875,0.1908271610736847,-0.46365848183631897,-4.090184211730957
1761469365057529900,4.89052978515625,0.4068121314048767,0.11250732839107513,-2.5010721683502197
1761469365067485000,4.90048486328125,0.41173285245895386,0.5060093998908997,-0.7889403104782104
1761469365077440000,4.91043994140625,0.3015698194503784,0.5316697955131531,0.614603579044342
1761469365087393000,4.92039306640625,0.2159329503774643,0.3033756911754608,1.5006755590438843
1761469365097348000,4.93034814453125,0.17514529824256897,0.03566514700651169,1.9582383632659912
1761469365107303200,4.94030322265625,0.24734173715114594,-0.14798696339130402,2.12864351272583
1761469365117258000,4.950258056640625,0.3999974727630615,-0.1881922036409378,2.0922272205352783
1761469365127213000,4.960213134765625,0.5625600218772888,-0.13269539177417755,1.8757367134094238
1761469365137168100,4.970168212890625,0.5441612005233765,0.0692858174443245,1.5533961057662964
1761469365147123200,4.980123291015625,0.38710179924964905,0.4012605547904968,1.252671480178833
1761469365157078000,4.990078125,0.18040403723716736,0.6096876859664917,1.1332587003707886
1761469365167032800,5.00003271484375,-0.04838787019252777,0.505653440952301,1.2634018659591675
1761469365176988200,5.00998828125,-0.2696654200553894,0.2101658582687378,1.704506754875183
1761469365186943000,5.01994287109375,-0.3551374673843384,-0.17542392015457153,2.340623140335083
1761469365196899000,5.029899169921875,-0.264415442943573,-0.5278365015983582,2.9715816974639893
1761469365206854100,5.039854248046875,-0.10918697714805603,-0.7527881264686584,3.4624273777008057
1761469365216809000,5.04980908203125,0.018764913082122803,-0.8863074779510498,3.7659976482391357
1761469365226764000,5.059763916015625,0.08529307693243027,-0.9750544428825378,3.8684940338134766
1761469365236719000,5.069718994140625,0.03382391482591629,-1.0331926345825195,3.808504104614258
1761469365246674200,5.079674072265625,-0.14855921268463135,-1.0967074632644653,3.6107699871063232
1761469365256629000,5.08962890625,-0.44614937901496887,-0.9511045813560486,3.288590908050537
1761469365266584000,5.099583984375,-0.7395562529563904,-0.5992797017097473,2.827662706375122
1761469365276539100,5.1095390625,-0.9550499320030212,-0.1498069018125534,2.2503576278686523
1761469365286494000,5.119493896484375,-1.080203890800476,0.22239302098751068,1.6256630420684814
1761469365296449000,5.129448974609375,-1.0790131092071533,0.44045233726501465,1.0626641511917114
1761469365306404000,5.139404052734375,-0.9703933596611023,0.5017836093902588,0.6104651093482971
1761469365316359200,5.149359130859375,-0.8232024908065796,0.4862425625324249,0.2857282757759094
1761469365326314000,5.15931396484375,-0.696294367313385,0.45353227853775024,0.09606380015611649
1761469365336269000,5.16926904296875,-0.6296521425247192,0.46890899538993835,-0.015212202444672585
1761469365346224000,5.17922412109375,-0.5928517580032349,0.5637454390525818,-0.08678731322288513
1761469365356179000,5.189178955078125,-0.5624924898147583,0.7903067469596863,-0.1484057903289795
1761469365366134300,5.19913427734375,-0.5203858017921448,1.1478850841522217,-0.19211439788341522
1761469365376089000,5.209089111328125,-0.4779997766017914,1.5986039638519287,-0.20869360864162445
1761469365386045000,5.219044921875,-0.4192677438259125,2.066577911376953,-0.19737756252288818
1761469365396000300,5.229000244140625,-0.28851181268692017,2.450526714324951,-0.16243943572044373
1761469365405955000,5.238955078125,-0.08961387723684311,2.5851452350616455,-0.04567819833755493
1761469365415910000,5.248909912109375,0.07210403680801392,2.3300533294677734,0.1299852728843689
1761469365425865200,5.258865234375,0.12663066387176514,1.6838366985321045,0.33643245697021484
1761469365435820000,5.268820068359375,0.0798250064253807,0.9721681475639343,0.5371435284614563
1761469365445775000,5.278775146484375,-0.04519708454608917,0.3985278308391571,0.69542396068573
1761469365455730000,5.28872998046875,-0.2092703878879547,0.047822922468185425,0.7992034554481506
1761469365465685200,5.298685302734375,-0.34662771224975586,-0.09351210296154022,0.8694875240325928
1761469365475640000,5.30864013671875,-0.4085876941680908,-0.07150830328464508,0.9189100861549377
1761469365485595000,5.318594970703125,-0.42906075716018677,-0.008202300406992435,0.8975680470466614
1761469365495550200,5.32855029296875,-0.4512249231338501,0.03919650614261627,0.7442435622215271
1761469365505505000,5.338505126953125,-0.46095263957977295,0.16838857531547546,0.4976747930049896
1761469365515460000,5.348460205078125,-0.4602457284927368,0.2802933156490326,0.19924691319465637
1761469365525415000,5.358414794921875,-0.43050888180732727,0.3095843493938446,-0.09137746691703796
1761469365535370000,5.368369873046875,-0.3766733407974243,0.30322036147117615,-0.35755404829978943
1761469365545325000,5.378324951171875,-0.31512877345085144,0.2940055727958679,-0.6110755801200867
1761469365555280000,5.38827978515625,-0.2441539764404297,0.28942814469337463,-0.8021287322044373
1761469365565236000,5.398236083984375,-0.17147284746170044,0.2811717987060547,-0.9113122224807739
1761469365575191000,5.40819091796875,-0.1179291233420372,0.22187156975269318,-0.9618666768074036
1761469365585145900,5.418145751953125,-0.10483941435813904,0.09825695306062698,-0.951455295085907
1761469365595101200,5.42810107421875,-0.20706720650196075,-0.03510970249772072,-0.9373179078102112
1761469365605056000,5.438055908203125,-0.2679649293422699,-0.25811243057250977,-0.9637202620506287
1761469365615011000,5.448010986328125,-0.22840382158756256,-0.38892677426338196,-0.9408582448959351
1761469365624966100,5.457966064453125,-0.1344752013683319,-0.41616958379745483,-0.9363524317741394
1761469365634921000,5.4679208984375,-0.010690446943044662,-0.4028913080692291,-0.9271602630615234
1761469365644876000,5.4778759765625,0.10823700577020645,-0.24578292667865753,-0.8599159717559814
1761469365654831000,5.4878310546875,0.2364366203546524,-0.07853242754936218,-0.9219980239868164
1761469365664786200,5.4977861328125,0.4167267978191376,-0.194469153881073,-1.197810173034668
1761469365674741000,5.507740966796875,0.4623848497867584,-0.4479171931743622,-1.5825859308242798
1761469365684696000,5.517696044921875,0.3536112308502197,-0.7636855244636536,-2.0649843215942383
1761469365694651100,5.527651123046875,0.17048166692256927,-0.921065092086792,-2.455122470855713
1761469365704606000,5.53760595703125,0.06075304374098778,-0.7697216868400574,-2.5350162982940674
1761469365714561000,5.54756103515625,-0.05204407125711441,-0.6808488368988037,-2.368818998336792
1761469365724516000,5.55751611328125,-0.2309855967760086,-0.7894160747528076,-2.0591413974761963
1761469365734471200,5.56747119140625,-0.3360212743282318,-0.5543190836906433,-1.6951401233673096
1761469365744426000,5.577426025390625,-0.38771510124206543,-0.5366016030311584,-1.579836130142212
1761469365754382000,5.587382080078125,-0.5050778985023499,-0.6191975474357605,-1.384763240814209
1761469365764337200,5.597337158203125,-0.5047263503074646,-0.4265356957912445,-1.243682622909546
1761469365774292000,5.6072919921875,-0.3140074610710144,0.10905522108078003,-1.163356065750122
1761469365784247000,5.6172470703125,-0.01773238182067871,0.46635901927948,-1.0814303159713745
1761469365794202000,5.6272021484375,0.2425004094839096,0.5465960502624512,-0.9358862042427063
1761469365804157000,5.637156982421875,0.4804344177246094,0.3830057978630066,-0.7193880081176758
1761469365814112000,5.647112060546875,0.7144043445587158,0.23248156905174255,-0.4833204746246338
1761469365824067000,5.657067138671875,0.8124477863311768,0.1718216836452484,-0.28208401799201965
1761469365834022100,5.667022216796875,0.9102460741996765,0.1644752323627472,-0.10740018635988235
1761469365843977000,5.67697705078125,0.895563542842865,0.25072091817855835,0.06996500492095947
1761469365853932000,5.68693212890625,0.790457546710968,0.4646899402141571,0.3567749857902527
1761469365863887000,5.69688720703125,0.6213555932044983,0.6349367499351501,0.6677906513214111
1761469365873842000,5.706842041015625,0.467032790184021,0.6760891079902649,0.8983515501022339
1761469365883797200,5.71679736328125,0.3964134752750397,0.5089707374572754,1.0724613666534424
1761469365893752000,5.726751953125,0.3357272446155548,0.17995189130306244,1.1241092681884766
1761469365903707100,5.73670703125,0.20441928505897522,-0.09694229811429977,1.0993634462356567
1761469365913662000,5.746661865234375,0.05736912041902542,-0.4661526381969452,1.007853627204895
1761469365923617000,5.756616943359375,-0.07154172658920288,-0.8741756081581116,0.9134726524353027
1761469365933572000,5.766572021484375,-0.1228003203868866,-1.1535934209823608,0.8613465428352356
1761469365943527000,5.77652685546875,-0.03155003488063812,-1.269641637802124,0.7874430418014526
1761469365953483000,5.78648291015625,0.22539813816547394,-1.2531676292419434,0.6063025593757629
1761469365963438000,5.79643798828125,0.5215831995010376,-0.8568117618560791,0.32149532437324524
1761469365973393000,5.806392822265625,0.7028307318687439,-0.1780838966369629,0.011467032134532928
1761469365983348200,5.81634814453125,0.6959741711616516,0.34267035126686096,-0.24215032160282135
1761469365993303000,5.826302978515625,0.5853197574615479,0.6005133986473083,-0.3798518478870392
1761469366003258000,5.836258056640625,0.510607123374939,0.7411110401153564,-0.36577144265174866
1761469366013213200,5.846213134765625,0.5115506649017334,0.5743408203125,-0.2906418442726135
1761469366023168000,5.85616796875,0.586517870426178,0.21534296870231628,-0.12371090799570084
1761469366033123000,5.866123046875,0.6357930302619934,-0.013979529961943626,0.07470519840717316
1761469366043078000,5.876077880859375,0.5951382517814636,-0.1670641452074051,0.11342330276966095
1761469366053033200,5.886033203125,0.5075108408927917,-0.060187797993421555,-0.03756655380129814
1761469366062988000,5.895988037109375,0.37679922580718994,0.3828684687614441,-0.2525976300239563
1761469366072942800,5.90594287109375,0.16796518862247467,0.9670913219451904,-0.38633492588996887
1761469366082899200,5.915899169921875,-0.12422671914100647,1.6132572889328003,-0.4039442837238312
1761469366092854000,5.92585400390625,-0.3952789306640625,2.0653014183044434,-0.23477591574192047
1761469366102809000,5.93580908203125,-0.49847909808158875,2.264909505844116,0.0798771008849144
1761469366112764200,5.94576416015625,-0.40516605973243713,2.200618028640747,0.4288155436515808
1761469366122719000,5.955718994140625,-0.2605747878551483,1.95664644241333,0.7704229354858398
1761469366132674300,5.96567431640625,-0.07116472721099854,1.4828177690505981,1.091098666191101
1761469366142629000,5.975629150390625,0.08324215561151505,0.9547252058982849,1.4118660688400269
1761469366152585000,5.9855849609375,0.15302981436252594,0.42359453439712524,1.5724486112594604
1761469366162540300,5.995540283203125,0.16613070666790009,-0.13079066574573517,1.5550434589385986
1761469366172495000,6.0054951171875,0.09236130118370056,-0.4144543409347534,1.3841724395751953
1761469366182450200,6.0154501953125,-0.04225270450115204,-0.5631731748580933,1.1827170848846436
1761469366192405000,6.025405029296875,-0.237229585647583,-0.7189051508903503,0.9367409944534302
1761469366202360000,6.035360107421875,-0.4637327790260315,-0.7878943681716919,0.6426611542701721
1761469366212315100,6.045315185546875,-0.6751333475112915,-0.8431078791618347,0.33661651611328125
1761469366222270000,6.05527001953125,-0.8453122973442078,-0.8795902729034424,0.06747613102197647
1761469366232225300,6.065225341796875,-0.9166492223739624,-0.7881300449371338,-0.004206629935652018
1761469366242180000,6.07518017578125,-0.9399101138114929,-0.5335776805877686,0.028450915589928627
1761469366252135000,6.085135009765625,-0.9112160205841064,-0.19579848647117615,0.1332833617925644
1761469366262090200,6.09509033203125,-0.8505971431732178,0.08759114891290665,0.24354515969753265
1761469366272045000,6.105045166015625,-0.7917079925537109,0.23676538467407227,0.3346940279006958
1761469366282000100,6.115000244140625,-0.7576131820678711,0.27456575632095337,0.40430933237075806
1761469366291955000,6.124954833984375,-0.7459867000579834,0.2793941795825958,0.4593854248523712
1761469366301910300,6.13491015625,-0.7257538437843323,0.359781950712204,0.5183035731315613
1761469366311865000,6.144864990234375,-0.6750072836875916,0.41337451338768005,0.5731438994407654
1761469366321820000,6.15481982421875,-0.6132094264030457,0.31848183274269104,0.560693085193634
1761469366331775200,6.164775146484375,-0.5698267817497253,0.19128964841365814,0.43997612595558167
1761469366341730000,6.17472998046875,-0.5199599266052246,0.11121105402708054,0.2496466487646103
1761469366351685000,6.18468505859375,-0.4754685163497925,0.010781249962747097,0.01670539379119873
1761469366361641200,6.19464111328125,-0.36756762862205505,-0.17446157336235046,-0.2106766402721405
1761469366371596000,6.204595947265625,-0.08880215138196945,-0.2465999275445938,-0.29383859038352966
1761469366381551000,6.214551025390625,0.31803086400032043,-0.1260623335838318,-0.17664138972759247
1761469366391506200,6.224506103515625,0.6216939687728882,0.19475644826889038,-0.06445223093032837
1761469366401461200,6.234461181640625,0.7290470600128174,0.45071735978126526,0.005775055382400751
1761469366411416000,6.244416015625,0.5784433484077454,0.493478387594223,0.042371075600385666
1761469366421371000,6.254370849609375,0.2493096888065338,0.20043188333511353,-0.12080106884241104
1761469366431326200,6.264326171875,-0.17039336264133453,-0.3816060721874237,-0.5338088870048523
1761469366441281000,6.274281005859375,-0.49948790669441223,-0.7485151290893555,-0.8873283267021179
1761469366451236000,6.284236083984375,-0.6447710394859314,-0.8522980809211731,-1.045883059501648
1761469366461191200,6.294191162109375,-0.5994176864624023,-0.5777091383934021,-0.9407644271850586
1761469366471146000,6.30414599609375,-0.3456093966960907,-0.214712992310524,-0.6560824513435364
1761469366481101000,6.31410107421875,0.0019419200252741575,-0.09200864285230637,-0.45021528005599976
1761469366491056000,6.32405615234375,0.27013063430786133,-0.17723312973976135,-0.40378034114837646
1761469366501011200,6.33401123046875,0.40047693252563477,-0.10895662009716034,-0.3132493793964386
1761469366510966000,6.343966064453125,0.3865206241607666,0.11221621930599213,-0.15788117051124573
1761469366520921000,6.353921142578125,0.297954797744751,0.4938168525695801,0.0015484323957934976
1761469366530876200,6.363876220703125,0.17468605935573578,0.8387042880058289,0.0896664559841156
1761469366540831000,6.3738310546875,0.07231121510267258,1.0216819047927856,0.09412884712219238
1761469366550786000,6.3837861328125,-0.007516083773225546,1.1198842525482178,0.0979563444852829
1761469366560741000,6.3937412109375,-0.053136300295591354,1.11066472530365,0.09607242047786713
1761469366570697000,6.403697021484375,-0.04289969056844711,0.99088454246521,0.1532062441110611
1761469366580652000,6.413652099609375,0.010100413113832474,0.6426048874855042,0.28366464376449585
1761469366590607000,6.423607177734375,0.1468450427055359,0.2180798202753067,0.40458035469055176
1761469366600562200,6.433562255859375,0.2845160961151123,-0.15970554947853088,0.4994373619556427
1761469366610517000,6.44351708984375,0.35287612676620483,-0.45889872312545776,0.5533427596092224
1761469366620472300,6.453472412109375,0.3276378810405731,-0.5453880429267883,0.5382255911827087
1761469366630427100,6.46342724609375,0.24385729432106018,-0.41372066736221313,0.4790744483470917
