time,seconds_elapsed,z,y,x
1761507091169131800,0.0721318359375,0.09028349751532078,-0.16749796236008405,0.03171988406144082
1761507091179103500,0.082103515625,0.14763035559058188,-0.15952420700192452,0.05170857819365337
1761507091189075700,0.09207568359375,0.2289543015807867,-0.15445844804495573,0.12175583655647933
1761507091199046700,0.102046630859375,0.2492348730653524,-0.1520968334801495,0.18591834772964938
1761507091209018600,0.1120185546875,0.21815584419071674,-0.11894289802759885,0.2197760840700008
1761507091218989600,0.121989501953125,0.14076689956188201,-0.10961261349394917,0.239280501816608
1761507091228962600,0.131962646484375,0.05604980400204658,-0.09423106609731913,0.2081006611823104
1761507091238933800,0.141933837890625,0.002807458636164665,-0.08350275133401155,0.1834452538806945
1761507091248905700,0.15190576171875,-0.030233810222148893,-0.08362155540809035,0.17472489967262372
1761507091258877700,0.161877685546875,-0.005306289714574814,-0.07869009035527706,0.16037055816557258
1761507091268848600,0.1718486328125,0.02882569698989391,-0.08969196136295796,0.13322375417333096
1761507091278820900,0.18182080078125,0.0641314036488533,-0.12456219921410083,0.09392386331167071
1761507091288791600,0.19179150390625,0.12161445532441138,-0.15697817578092216,0.06103119087750092
1761507091298763800,0.201763671875,0.12182079155147076,-0.17322832270562646,0.05489566553086042
1761507091308735500,0.211735595703125,0.04403144942820072,-0.14270868127942085,0.07771136324992403
1761507091318706700,0.221706787109375,-0.016314590463042258,-0.1128268993653357,0.13773295695977283
1761507091328678700,0.2316787109375,-0.03620177871584892,-0.10982421041801571,0.20992888125646858
1761507091338649900,0.24164990234375,-0.033847909066081046,-0.12384352955073118,0.2592547655646689
1761507091348621600,0.25162158203125,-0.06874912657737732,-0.1356868198186159,0.2798375348662026
1761507091358592800,0.2615927734375,-0.13398703016340732,-0.15624430854842067,0.267975923490338
1761507091368564500,0.271564453125,-0.18446341794729232,-0.1618963429607451,0.2626563176364638
1761507091378536700,0.28153662109375,-0.17729659505784512,-0.1804889613583684,0.26360826633274553
1761507091388507600,0.291507568359375,-0.10577274307012557,-0.20064342224523424,0.28369368057139216
1761507091398479600,0.301479736328125,-0.004469838890433312,-0.22313699360415337,0.3261407103523612
1761507091408450600,0.311450439453125,0.13244389237463475,-0.259775702432543,0.33956681283228096
1761507091418422800,0.3214228515625,0.28015140485465523,-0.32066023311465974,0.35578963335864244
1761507091428394800,0.331394775390625,0.3504015836447477,-0.36384251836761833,0.36434761834554374
1761507091438365700,0.34136572265625,0.33400048394203186,-0.37953137814775106,0.35572296133060005
1761507091448338000,0.351337890625,0.260912451377511,-0.3627437633454799,0.35354861296620216
1761507091458308600,0.36130859375,0.17017887200713155,-0.34531989646628497,0.3668048387719318
1761507091468280800,0.37128076171875,0.11172492947280406,-0.3121333739183843,0.3762807057887316
1761507091478252500,0.38125244140625,0.11408815147280692,-0.3104024584725499,0.37478250312022865
1761507091488223700,0.3912236328125,0.14122633376717567,-0.3554699729502201,0.334814978662692
1761507091498195700,0.40119580078125,0.1717547430217266,-0.3932290641106665,0.31295857269614935
1761507091508167000,0.4111669921875,0.1452636264592409,-0.386966350454092,0.3322957258507609
1761507091518138600,0.421138671875,0.11506781015992164,-0.31424956235475837,0.3736469597516581
1761507091528110800,0.43111083984375,0.08617606219649314,-0.30469767095968125,0.28490959569979457
1761507091538081500,0.44108154296875,0.04030921403467655,-0.3628332682598382,0.24063651953544465
1761507091548053800,0.4510537109375,0.026637831556797026,-0.28757454059273,0.25633626603577286
1761507091558024700,0.461024658203125,0.015508534777164459,-0.28315102506205436,0.27748848752202465
1761507091567996700,0.47099658203125,0.0569072976142168,-0.31440299935080107,0.25962043880559504
1761507091577968600,0.48096875,0.111723175907135,-0.3355372650552541,0.24219134776201098
1761507091587939800,0.49093994140625,0.1364016900897026,-0.34093298661895094,0.2693870323972776
1761507091597911600,0.50091162109375,0.11447101331055164,-0.3073893211964518,0.2890501113043166
1761507091607882800,0.5108828125,0.037058103284239766,-0.25894473150111735,0.28929155537737533
1761507091617854700,0.520854736328125,-0.031550738039612766,-0.19510515040569007,0.2751571219650097
1761507091627825700,0.53082568359375,-0.07145663197040557,-0.16733013151250778,0.25941594747575
1761507091637797600,0.540797607421875,-0.05602525408267975,-0.15782792447805405,0.2308024319318123
1761507091647769600,0.55076953125,-0.01890168434679508,-0.13176438567787407,0.20506706564007326
1761507091657740500,0.560740478515625,0.05609831931889057,-0.10062595476619898,0.1830624285755679
1761507091667712800,0.570712646484375,0.17546996415257454,-0.0920186507448554,0.1713217036330141
1761507091677683700,0.58068359375,0.264815888556838,-0.07249956515207887,0.16914324534907937
1761507091687655700,0.59065576171875,0.31112638883292676,-0.019176482700183985,0.14539766463506967
1761507091697628000,0.6006279296875,0.342789939597249,0.029969679393246768,0.08748630454484373
1761507091707598600,0.6105986328125,0.3461673070758581,0.09027611792646348,0.04250480611650273
1761507091717570800,0.62057080078125,0.28515315866470337,0.15501096736118197,-0.0009419204926118254
1761507091727541800,0.630541748046875,0.2810293567329645,0.1968121735192835,-0.027670170279219745
1761507091737513700,0.640513671875,0.3613771511673927,0.1862428487099707,-0.08712408363632858
1761507091747485700,0.650485595703125,0.48887481931149956,0.13500519423000515,-0.16650955411093307
1761507091757457000,0.660456787109375,0.5685375540912151,0.05635784703791141,-0.18121091895736752
1761507091767428600,0.6704287109375,0.5837310315698385,0.001235898470506072,-0.14811620287876576
1761507091777399800,0.68039990234375,0.5692793123692274,-0.05317885167561471,-0.08766688527613878
1761507091787371500,0.69037158203125,0.4814274259150028,-0.07611125284321606,-0.05783252270035445
1761507091797343700,0.70034375,0.26521511700749395,-0.06168247612677514,-0.06623016602639109
1761507091807314700,0.710314697265625,-0.04030219977200031,-0.023862083233147858,-0.12468377976715564
1761507091817286700,0.72028662109375,-0.3742325410872698,0.003784048583358526,-0.22653186020683497
1761507091827257600,0.730257568359375,-0.7254062781482935,0.08030629338026046,-0.21773750918079166
1761507091837229800,0.740229736328125,-1.056952939197421,0.12068586923740804,-0.19163162907622752
1761507091847200500,0.750200439453125,-1.1135288129001855,0.1259108373440802,-0.1414424607358873
1761507091857172700,0.7601728515625,-0.8498322837620973,0.017741481461003423,-0.04272811174467206
1761507091867144700,0.770144775390625,-0.39803836408853527,-0.19328429165408015,0.0828921816876158
1761507091877115600,0.78011572265625,0.05601765529811382,-0.4118470361452549,0.17115478610089047
1761507091887087900,0.790087890625,0.3907008608072996,-0.6053662325337529,0.22491474386639893
1761507091897058800,0.800058837890625,0.5788964510202408,-0.7637462379366159,0.23573616200694814
1761507091907030800,0.81003076171875,0.5922539452433586,-0.8615816121362149,0.22817769118510187
1761507091917002800,0.820002685546875,0.4716548044413328,-0.9266152253217994,0.20230989415273068
1761507091926973700,0.8299736328125,0.2787415380567312,-0.9490850504789501,0.1909328879560344
1761507091936945700,0.839945556640625,0.06353460679948329,-0.9547023789040744,0.1842637854556553
1761507091946916900,0.849916748046875,-0.1044821187376976,-0.9546458264112472,0.1986901692856103
1761507091956888600,0.859888671875,-0.2081406461328268,-0.9892267259269952,0.19185093438271433
1761507091966861000,0.869861083984375,-0.2990110036253929,-1.0346838973093777,0.14056783332582562
1761507091976832000,0.87983203125,-0.36089901226162907,-1.0512257937222718,0.045471565233916045
1761507091986804000,0.889803955078125,-0.3706628659069538,-1.0993551799885928,-0.050047933238744735
1761507091996775000,0.89977490234375,-0.3300561302304268,-1.1655010652650146,-0.14810860409419982
1761507092006747000,0.909746826171875,-0.28942659820020195,-1.1965558364812283,-0.23741847080439327
1761507092016718800,0.91971875,-0.28122809417545797,-1.189813157287985,-0.26694548446405675
1761507092026690000,0.92968994140625,-0.2747913391262293,-1.1670057707395405,-0.28873836020771415
1761507092036661800,0.939661865234375,-0.1779500905305147,-1.1378623130373655,-0.2716864684460685
1761507092046633000,0.949633056640625,-0.04166296673119068,-1.1052503024417906,-0.21270455651488154
1761507092056605000,0.95960498046875,0.09966039766967295,-1.0696967585016042,-0.127907710249722
1761507092066576100,0.969576171875,0.2850976290851831,-1.056444185957685,-0.06629943187031895
1761507092076547800,0.9795478515625,0.4192167611956596,-1.0442379075963049,-0.023519991797208786
1761507092086520000,0.98952001953125,0.4427706552624702,-1.0161321223787962,-0.018037578330747782
1761507092096490800,0.99949072265625,0.41844402325749397,-0.971212930330634,-0.03319971082303673
1761507092106463000,1.009462890625,0.34183833796083923,-0.9338364087469875,-0.042630898447893556
1761507092116434000,1.019433837890625,0.24977672485709188,-0.8763909126028419,-0.04623367218021303
1761507092126406000,1.029406005859375,0.25471593482494354,-0.8304020454965532,0.0013967515880241989
1761507092136378000,1.039378173828125,0.3263391555339098,-0.8161977251857518,0.06458280067816376
1761507092146349000,1.04934912109375,0.44776247220039367,-0.8426356502562761,0.10124076219629495
1761507092156321000,1.059321044921875,0.5380179126650094,-0.8860418073929845,0.11317761249914765
1761507092166292000,1.0692919921875,0.565315084913373,-0.9248308261230588,0.09924060135502367
1761507092176264000,1.079263916015625,0.5301794741243123,-0.9614727498218416,0.06391246366854757
1761507092186236000,1.08923583984375,0.4243851037442684,-0.9636145110908895,0.03246219032872468
1761507092196207000,1.09920703125,0.31030279749035833,-0.956167921411991,0.015924750895239412
1761507092206178800,1.1091787109375,0.16293313866257667,-0.9414827587816864,0.011839965799637139
1761507092216150000,1.11914990234375,0.06802256586849689,-0.9214262783765792,0.019504947469569742
1761507092226122000,1.1291220703125,0.04932487966120243,-0.9227585498936474,0.04186111965179443
1761507092236093000,1.139093017578125,0.05887947447001934,-0.9383151615962385,0.06909381182920188
1761507092246065000,1.14906494140625,0.04642915821969509,-0.9759184776730835,0.07102284366302192
1761507092256037000,1.159037109375,0.028491934990882872,-0.9668311350498348,0.048063919814676045
1761507092266007800,1.1690078125,-0.06815525233745574,-0.9413434964414685,0.030887963281944392
1761507092275980000,1.17897998046875,-0.1915308721154928,-0.9091267687737942,0.013931385120935738
1761507092285951000,1.188950927734375,-0.28275720343887806,-0.8671669379878789,-0.008099610227532684
1761507092295923000,1.1989228515625,-0.29023908362686635,-0.8522691555202007,-0.03211100227087736
1761507092305895000,1.20889501953125,-0.11398235301077365,-0.9034770724490284,-0.03256740426886826
1761507092315866000,1.2188662109375,0.09721475808322429,-0.9664509766258299,-0.05307944642174989
1761507092325837800,1.228837890625,0.12810673995316027,-0.9491445255812258,-0.08613898158911615
1761507092335809000,1.23880908203125,-0.0674339523255825,-0.8551800745308399,-0.16005553739964962
1761507092345780700,1.24878076171875,-0.3878033858001232,-0.710735436304286,-0.22093509964570401
1761507092355753000,1.2587529296875,-0.899887815785408,-0.49928062412217256,-0.2927440156525001
1761507092365724000,1.268723876953125,-1.4678028540641068,-0.24202991012260316,-0.37553803419526666
1761507092375696000,1.27869580078125,-1.8369716820210218,-0.007593523868918419,-0.40417522287573665
1761507092385666800,1.288666748046875,-1.908787210431695,0.17138298709988592,-0.3681266254276037
1761507092395639000,1.29863916015625,-1.6477601927638053,0.2497187110595405,-0.2060998610202223
1761507092405609700,1.308609619140625,-1.197050561195612,0.27732801799699663,-0.056911937256716186
1761507092415582000,1.31858203125,-0.6636281596273184,0.25627880022749305,0.010002813500352203
1761507092425554000,1.328553955078125,-0.13702595946788787,0.17789105381965636,-0.01776449701040983
1761507092435524900,1.33852490234375,0.24697394239604473,0.09794336461871862,-0.05519640204310417
1761507092445497000,1.3484970703125,0.42668402833640573,0.0317683263130486,-0.11298917725495994
1761507092455468000,1.358468017578125,0.5151666139096022,-0.004422784878313541,-0.16670560640599577
1761507092465440000,1.36843994140625,0.590828296354413,-0.03895896846950054,-0.17757102808505296
1761507092475412000,1.378411865234375,0.6760013189882039,-0.09992299412861466,-0.1891903734039515
1761507092485383000,1.3883828125,0.755463562759757,-0.16748831774890421,-0.20551051682494578
1761507092495355000,1.39835498046875,0.7478016498297453,-0.2432728959210217,-0.2129910818386823
1761507092505326000,1.408326171875,0.7017635367542505,-0.27133243084400893,-0.2316938826125115
1761507092515297800,1.4182978515625,0.6793775174230336,-0.32270036064013835,-0.2682741027193144
1761507092525270000,1.42827001953125,0.5860036526769399,-0.3591534837685525,-0.2841044898619875
1761507092535241000,1.438240966796875,0.3845663035750389,-0.2936237576290965,-0.2666393045917153
1761507092545213000,1.448212890625,0.22564532316327093,-0.20378215866237878,-0.21451920472141353
1761507092555183900,1.458183837890625,0.05751753846704959,-0.10971724291220307,-0.13843535134177654
1761507092565156000,1.468156005859375,-0.10025602547526359,-0.013231529755890368,-0.05784289796389639
1761507092575126800,1.478126708984375,-0.1934258920818567,0.05262238683663308,0.04461341403461992
1761507092585099000,1.48809912109375,-0.15813713655769823,0.07011113564558327,0.134422206710279
1761507092595071000,1.498071044921875,-0.0693511841237545,0.03615896248742938,0.1697154192138463
1761507092605042000,1.5080419921875,0.05342354715168476,0.018456059471145272,0.1907315018987283
1761507092615014100,1.51801416015625,0.1491413446754217,0.006918839477747679,0.21434969337340443
1761507092624985000,1.527985107421875,0.14004092337489127,0.022821415073797105,0.20765750225838273
1761507092634957000,1.53795703125,0.005497428372502326,0.10630670381635426,0.1824636224322021
1761507092644929000,1.547928955078125,-0.14292144724726677,0.20448395025618374,0.15132855252139268
1761507092654900000,1.55789990234375,-0.2423082886725664,0.2774192034117877,0.09352942063398659
1761507092664872000,1.567871826171875,-0.3336094387978315,0.340514688141644,0.027949937068670987
1761507092674843100,1.577843017578125,-0.36708909907341003,0.38358182258233425,-0.03582991319615394
1761507092684814800,1.58781494140625,-0.3159510325103998,0.42193697993978857,-0.0935261326983571
1761507092694787000,1.597787109375,-0.20520517720282078,0.4458111920021474,-0.11940149198267608
1761507092704758000,1.607758056640625,-0.06523673454225062,0.49904827667102214,-0.10676851264182477
1761507092714730000,1.61772998046875,0.07006605439484119,0.5556983846537769,-0.052551842351071534
1761507092724701000,1.627700927734375,0.17362053689360618,0.6017566637344658,-0.000994454397447407
1761507092734673000,1.6376728515625,0.27830080855190753,0.6207794902428985,0.020737010015174744
1761507092744643800,1.647643798828125,0.41242344779372214,0.6350204893022775,0.07288772421944886
1761507092754616000,1.657615966796875,0.5739975730627774,0.6193168703444302,0.1137335658814758
1761507092764587800,1.667587890625,0.7419792272865772,0.5687012202203273,0.16018961210809646
1761507092774559000,1.67755908203125,0.8308890983611344,0.5427637920178473,0.20628541018757968
1761507092784531000,1.687531005859375,0.7770476180583238,0.5161708225160837,0.21697993227913975
1761507092794502100,1.697502197265625,0.5760428151547908,0.5281289713352918,0.21832320011425763
1761507092804473900,1.707473876953125,0.29833704988658427,0.5675822991929949,0.1857918170068413
1761507092814446000,1.717446044921875,0.04955518128573894,0.5965590950913727,0.1786468406230211
1761507092824416800,1.727416748046875,-0.14057634542584418,0.6361547540292144,0.15167079008780418
1761507092834389000,1.737388916015625,-0.1997013190895319,0.619253741980344,0.013746347410231828
1761507092844360000,1.74735986328125,-0.20845628795325755,0.537188768364489,0.09627232613395899
1761507092854332000,1.757331787109375,-0.140981419095397,0.6219931038163602,0.22834837157689034
1761507092864302800,1.767302734375,-0.08150222516655921,0.5547413761898875,0.3011454218382016
1761507092874275000,1.777275146484375,-0.07249532736837863,0.4546951940730214,0.24472287553362546
1761507092884247000,1.7872470703125,-0.0776426271289587,0.35348230626434085,0.21217311651930212
1761507092894218000,1.797218017578125,-0.062763037905097,0.3317698022805154,0.30261710182595997
1761507092904190000,1.80718994140625,-0.024185177707672117,0.2932230678737163,0.3749114267295226
1761507092914161000,1.817160888671875,0.0675385817438364,0.2401858896911144,0.431985970669426
1761507092924133000,1.827133056640625,0.26597499546408654,0.16599238010272382,0.484868944671005
1761507092934104800,1.837104736328125,0.47485506178736686,0.05628375888839364,0.49672129502817985
1761507092944076000,1.847075927734375,0.6636223144084215,-0.04778393382951617,0.46952805807832626
1761507092954048000,1.857048095703125,0.7572077760785818,-0.12011880993917584,0.4181752527860924
1761507092964018400,1.867018310546875,0.804444159027934,-0.17768252563551068,0.38304022651892156
1761507092973990400,1.876990478515625,0.8359282615721225,-0.22153408845216035,0.3780429296882823
1761507092983962600,1.886962646484375,0.7969459122270345,-0.22320004890300332,0.3733564158398658
1761507092993933300,1.896933349609375,0.7422247264802455,-0.23773221292868255,0.3880852349488064
1761507093003905500,1.906905517578125,0.6895102043807506,-0.2599086811624467,0.39759748845323917
1761507093013876500,1.91687646484375,0.6233060861110686,-0.29205402409434317,0.3698313835188746
1761507093023848400,1.926848388671875,0.5371574964433908,-0.3233114782758057,0.355944056735374
1761507093033819400,1.9368193359375,0.42321489092111586,-0.32864151419214904,0.35775841268096115
1761507093043791600,1.94679150390625,0.27748013981878755,-0.3058076049629599,0.38060536405481393
1761507093053763300,1.956763427734375,0.13145371229350566,-0.27006014588586985,0.3905423092447221
1761507093063734500,1.966734619140625,-0.007102525481581688,-0.25298041626922785,0.3918237273573875
1761507093073706500,1.97670654296875,-0.07991115658283234,-0.2673386119674891,0.35710952031817284
1761507093083677400,1.986677490234375,-0.09814473240971565,-0.34766046824306246,0.33522458237688985
1761507093093649400,1.9966494140625,-0.10249825144410132,-0.40487734326310454,0.30720223765913396
1761507093103621400,2.006621337890625,-0.06773205848932266,-0.48195042687579986,0.268993101176247
1761507093113592300,2.01659228515625,0.05503215139210224,-0.5753215882081538,0.2257132007677108
1761507093123564500,2.026564453125,0.12043605919480323,-0.6465564671866595,0.18955595531333236
1761507093133535500,2.036535400390625,0.059579731693863866,-0.6838499135967344,0.1602093762544915
1761507093143507500,2.046507568359375,-0.11735153718292712,-0.6802873257443308,0.10173924977034329
1761507093153479700,2.056479736328125,-0.3842401403605938,-0.654914545687288,0.002647482301481068
1761507093163450400,2.066450439453125,-0.6204974584311247,-0.6316480902597308,-0.07139744912907481
1761507093173422600,2.076422607421875,-0.8149094389408826,-0.5979017418719828,-0.11574885122664272
1761507093183393500,2.0863935546875,-0.8713035263359546,-0.5455967504214495,-0.12146700967773795
1761507093193365500,2.096365478515625,-0.7597276499450206,-0.5542024470075965,-0.08962565466109662
1761507093203336400,2.10633642578125,-0.5605278506368399,-0.5752320102285593,-0.04573098335508257
1761507093213308700,2.11630859375,-0.35275428425073624,-0.604311316653341,0.007590126335434615
1761507093223280400,2.1262802734375,-0.23303075723946093,-0.6193360134363174,0.051881213080510497
1761507093233251600,2.13625146484375,-0.17210311806797982,-0.6230309954967349,0.09190236742142588
1761507093243223600,2.1462236328125,-0.12014788990318774,-0.6079050302963703,0.11276651094760745
1761507093253194500,2.156194580078125,-0.03999298769235611,-0.5904732723716646,0.12582454730011522
1761507093263166500,2.16616650390625,0.08846621896028518,-0.6076666184306144,0.1461911165677011
1761507093273138400,2.176138427734375,0.27127894709110256,-0.6501954082109034,0.1596497696103528
1761507093283109400,2.186109375,0.3986392525911331,-0.626916750888899,0.12185878547430037
1761507093293081600,2.19608154296875,0.3685767072826624,-0.5733696504227817,0.0758746676083654
1761507093303052500,2.206052490234375,0.15736965931653976,-0.4969722010493278,-0.024720965084806083
1761507093313024500,2.2160244140625,-0.21430442945957182,-0.3835376911796629,-0.14782807011976837
1761507093322995500,2.225995361328125,-0.6635849050074816,-0.2450531304012984,-0.2504391342885792
1761507093332967400,2.235967529296875,-1.1060691445440054,-0.09294446035288274,-0.2799510234443471
1761507093342939400,2.245939453125,-1.4255664713591336,0.04301854605861008,-0.24728107211645692
1761507093352910600,2.25591064453125,-1.5614286477446555,0.10451485196352005,-0.16046477578766644
1761507093362882300,2.26588232421875,-1.4694517903149127,0.11892492397949099,-0.04137476090695709
1761507093372853500,2.275853515625,-1.2541384760737417,0.10674805437568574,0.13054240613486617
1761507093382825500,2.285825439453125,-0.949677974870801,0.05616437029242515,0.30721860427204517
1761507093392797400,2.29579736328125,-0.5985521686047315,0.027264658218249676,0.4687308798186481
1761507093402768400,2.305768310546875,-0.21622633743286132,-0.001030292895808816,0.5530762925218791
1761507093412740400,2.315740234375,0.19353870480656624,-0.026204883499629794,0.5635744517911225
1761507093422711300,2.325711181640625,0.5018757551819085,-0.024743323047086596,0.48300358919054265
1761507093432683500,2.33568359375,0.6353343775570393,-0.03382511271238327,0.3214031239038333
1761507093442654500,2.345654541015625,0.6138660575926304,-0.04076156091205776,0.1347801898350939
1761507093452626400,2.35562646484375,0.6297708982110023,-0.06939158919937909,-0.014947868687100707
1761507093462598700,2.3655986328125,0.7248480597436427,-0.09491934062242507,-0.07114738335814326
1761507093472569300,2.3755693359375,0.7908131085604428,-0.10484130743891,-0.0964020534608513
1761507093482541600,2.38554150390625,0.841656576091051,-0.11073628376163541,-0.1088817419361323
1761507093492512500,2.395512451171875,0.8812614412486552,-0.10590367597341536,-0.14043430660665035
1761507093502484500,2.405484375,0.7452028655081987,-0.04511778336018324,-0.18482889025881885
1761507093512456400,2.41545654296875,0.37996202464997764,0.08835508673600852,-0.23360676702912894
1761507093522427600,2.425427734375,0.01263151803612709,0.2530645874213427,-0.2517067796042189
1761507093532399400,2.4353994140625,-0.29771453407406806,0.4027122011184692,-0.21726269474327564
1761507093542370600,2.44537060546875,-0.5686223097652197,0.5182482133120299,-0.156535546579957
1761507093552342500,2.455342529296875,-0.7575701796501875,0.612741291346401,-0.10397457107435912
1761507093562314500,2.465314453125,-0.904291019180417,0.6932625426515936,-0.08264299269951879
1761507093572285400,2.475285400390625,-0.9580898293852805,0.7430567933902144,-0.06888765826523303
1761507093582257400,2.48525732421875,-0.8522031045466661,0.7644102548032998,-0.039865561920404434
1761507093592228400,2.495228271484375,-0.6151619426220655,0.750948788749054,-0.009398198670707642
1761507093602200600,2.50520068359375,-0.35152445019483564,0.699139837187156,-0.009108896867930889
1761507093612171500,2.515171630859375,-0.07794014877080917,0.6354363766267895,-0.0387548607321456
1761507093622143500,2.5251435546875,0.07185001520216465,0.5818923449005932,-0.09622994829695672
1761507093632115500,2.535115478515625,0.1608440574288368,0.5388615238822996,-0.12647652666913345
1761507093642086400,2.54508642578125,0.2273509580373764,0.5024271785195916,-0.154822440785449
1761507093652058400,2.555058349609375,0.30482582738399505,0.4639968370340764,-0.1900495475165546
1761507093662029600,2.565029541015625,0.41796413078606126,0.42279206239916384,-0.22898150011496618
1761507093672001300,2.575001220703125,0.5472948595762253,0.33930078230723737,-0.275254609256424
1761507093681973500,2.584973388671875,0.6660428195536137,0.24339469566978514,-0.35165691746808586
1761507093691944400,2.5949443359375,0.6978700364470481,0.1669237426687032,-0.4074256395064294
1761507093701916400,2.60491650390625,0.5755570774644613,0.1268782941367477,-0.4291408469039947
1761507093711887400,2.614887451171875,0.4322147744566202,0.1001669589523226,-0.4297597825199365
1761507093721859300,2.624859375,0.3055272536516189,0.10088708992041646,-0.3706379506614059
1761507093731830300,2.634830322265625,0.19834230569601058,0.07974734432324766,-0.26280827506147325
1761507093741802500,2.644802490234375,0.09911328518092631,0.038603944486752154,-0.14596866945605724
1761507093751774500,2.6547744140625,-0.08358663022518158,0.021692045717686414,-0.07067507140496745
1761507093761745400,2.664745361328125,-0.2176911492884159,0.008267769868671894,-0.059242864422313864
1761507093771717600,2.674717529296875,-0.30079905608594415,-0.03513020396158099,-0.029926095979847012
1761507093781688600,2.6846884765625,-0.4032102137684822,-0.05607815331369638,0.041639987714402374
1761507093791660500,2.69466064453125,-0.369191039788723,-0.09639014382734894,0.10333088460965081
1761507093801631500,2.704631591796875,-0.2099228533744812,-0.1857257660333067,0.13716551406905053
1761507093811603500,2.714603515625,-0.02350362518429756,-0.2640005535859615,0.16838219784870742
1761507093821575400,2.724575439453125,0.177684717592597,-0.35397586193494496,0.15431414420343934
1761507093831546600,2.734546630859375,0.3180471280068159,-0.455363594853878,0.0984785674739629
1761507093841518300,2.744518310546875,0.37439796078205106,-0.5433440761238336,0.02593070620074868
1761507093851489500,2.754489501953125,0.32750352313816544,-0.599265577571094,-0.02300060756560415
1761507093861461500,2.76446142578125,0.24299042571783064,-0.6126780168518424,-0.05549962277337908
1761507093871433500,2.77443359375,0.2004325559735298,-0.5871649515412748,-0.04990428698435426
1761507093881404400,2.784404296875,0.16252514238357543,-0.5835190693195909,-0.0304897212119773
1761507093891376400,2.79437646484375,0.08339139991402626,-0.5584940797869116,-0.007066102461330592
1761507093901347300,2.804347412109375,0.018317746978998184,-0.547136381078884,-0.019691446484997866
1761507093911319600,2.814319580078125,0.037509938704967494,-0.572321748805046,-0.012447247510403395
1761507093921291300,2.824291259765625,0.12825988468825816,-0.6236904092535376,-0.00445416639726609
1761507093931262500,2.834262451171875,0.24758652133643624,-0.6956511913537978,0.0032166239589452744
1761507093941234400,2.844234375,0.30123569393754,-0.7695897763330489,0.0018413900829851626
1761507093951205400,2.854205322265625,0.3034334962427616,-0.807129379523918,-0.025322839968092738
1761507093961177000,2.864177001953125,0.2815998500972986,-0.8059689574424177,0.03727043086066842
1761507093971148300,2.874148193359375,0.17096856108009814,-0.8214325570993125,0.07226027650348842
1761507093981120000,2.8841201171875,0.0946609819471836,-0.7911178636606783,0.10733294159155338
1761507093991092200,2.89409228515625,0.004036708170175552,-0.7830984425298869,0.15664284287933258
1761507094001063200,2.904063232421875,-0.02141103681921959,-0.7901147510327399,0.18087277304418384
1761507094011035100,2.91403515625,0.01828092209994793,-0.7906668319575488,0.2276514753539115
1761507094021006000,2.924006103515625,0.06472878502011299,-0.826577957163751,0.27720453774780035
1761507094030978300,2.933978271484375,0.13622457995712756,-0.8699573724240064,0.2508029991649091
1761507094040950300,2.9439501953125,0.19757658202052114,-0.962746496084705,0.17137093133591114
1761507094050921200,2.953921142578125,0.20107202292084692,-1.0495763460148124,0.08434033466931432
1761507094060893200,2.96389306640625,0.10921148534715175,-1.099866782772541,-0.031656646099500356
1761507094070864100,2.973864013671875,0.03360065630674362,-1.1242107312384992,-0.11802702529169619
1761507094080836400,2.98383642578125,-0.016279519149661064,-1.1481789051946252,-0.1924788387564011
1761507094090807300,2.993807373046875,-0.20256430730521677,-1.125166132267192,-0.2775225359220989
1761507094100779300,3.003779296875,-0.48375148494839665,-1.0832987290050833,-0.3249708628553897
1761507094110751200,3.013751220703125,-0.7722779194384812,-1.0240596274424343,-0.34249979754425586
1761507094120722200,3.02372216796875,-0.9510831654936075,-0.947536871188879,-0.32234530012477186
1761507094130694100,3.033694091796875,-0.9151531894564628,-0.9178850986383855,-0.24768002657247706
1761507094140665300,3.043665283203125,-0.6522258911252021,-0.921874314405024,-0.08118537776973098
1761507094150637000,3.053636962890625,-0.2528086398988962,-0.9901924291539936,0.08610445826500654
1761507094160609300,3.063609375,0.10891162561774254,-1.0665686165437103,0.22286502652866766
1761507094170580200,3.073580322265625,0.22242460755109786,-1.0372703336060047,0.23995100322300567
1761507094180552200,3.08355224609375,-0.10214578474462031,-0.8522539579510688,0.1353316862380132
1761507094190523100,3.093523193359375,-0.6702133832365273,-0.6039804041985422,-0.007772661561798304
1761507094200495400,3.103495361328125,-1.1357447363615036,-0.33548370823711154,-0.06569242415418848
1761507094210466000,3.113466064453125,-1.4140040438592434,-0.06599763591215015,-0.05154969783751294
1761507094220438300,3.123438232421875,-1.4940981557935475,0.14528569216057657,-0.016495152928028254
1761507094230410000,3.133409912109375,-1.315666419225931,0.24772344558909534,0.03784817594969645
1761507094240381200,3.143381103515625,-0.9221119225531816,0.27665099551826716,0.08700067645236849
1761507094250353200,3.153353271484375,-0.4412988291442394,0.2628803173843771,0.1038280022105202
1761507094260324400,3.163324462890625,0.014648118555545805,0.20416597034819423,0.0831716562161222
1761507094270296000,3.173296142578125,0.3786398361355066,0.15635083766281604,0.0354216063898988
1761507094280268300,3.183268310546875,0.6346405500739812,0.14361249825134872,0.01060300788320601
1761507094290239000,3.193239013671875,0.8526292210042477,0.14463073538318275,0.01407702240301296
1761507094300211200,3.203211181640625,1.013968368473649,0.12092289286367594,0.0034677674421109256
1761507094310182100,3.21318212890625,1.0950316177010535,0.12195778886936605,-0.06208921203045174
1761507094320154000,3.223154052734375,1.1025760417312382,0.14930961391441522,-0.1263657049721107
1761507094330126300,3.233126220703125,0.9815256500303745,0.2009738232433796,-0.18930243720998988
1761507094340097300,3.24309716796875,0.7646995931386947,0.3029395752459764,-0.25325104990415276
1761507094350069200,3.2530693359375,0.4785223521232605,0.4079587965350598,-0.3162864019446075
1761507094360040200,3.263040283203125,0.25451836642622944,0.5076631064116954,-0.3254877994015813
1761507094370012200,3.27301220703125,0.08461538875102996,0.5903473079044371,-0.319049802243337
1761507094379983000,3.282983154296875,-0.014344167172908782,0.6660647391244768,-0.28060968828247856
1761507094389955300,3.292955322265625,-0.017163316246867177,0.6909835648689419,-0.21744038939774035
1761507094399927000,3.302927001953125,0.01478606572151184,0.6571059913169592,-0.20511656733760608
1761507094409898200,3.312898193359375,0.04865209496617317,0.6050380965579301,-0.23941198270916939
1761507094419870200,3.3228701171875,-0.010620762735605239,0.5526196347955614,-0.2769146148905158
1761507094429841200,3.332841064453125,-0.0871709184527397,0.5476644966062159,-0.2762688278002664
1761507094439813000,3.342813232421875,-0.09598375498354435,0.5641617501597851,-0.2242627279647626
1761507094449785300,3.352785400390625,0.032878187251091,0.5497817079558969,-0.12269340966753661
1761507094459756000,3.362756103515625,0.2560843005686998,0.4985792709197849,-0.006999138172343373
1761507094469728300,3.372728271484375,0.5707938085854053,0.38813649021200836,0.07062650128919631
1761507094479699200,3.38269921875,0.8434668403834104,0.25836568950414657,0.08246467699054628
1761507094489671200,3.392671142578125,1.0067056839942932,0.1557604705542326,0.0780584779208526
1761507094499642000,3.40264208984375,0.9983750780224799,0.13643566542454064,0.04931740874079987
1761507094509614300,3.4126142578125,0.7894014881968497,0.18072284317947923,-0.020144925873540342
1761507094519586300,3.42258642578125,0.46380058380961414,0.2600184251472354,-0.09000705519411713
1761507094529557200,3.43255712890625,0.17278174798190593,0.3403074751317501,-0.15527601150553672
1761507094539529200,3.442529296875,-0.003435819667577743,0.39158166222982105,-0.17630656110718845
1761507094549500200,3.452500244140625,-0.15039105247557163,0.4315107909057289,-0.15053316436000166
1761507094559472400,3.462472412109375,-0.20310732814073562,0.47162353252023453,-0.12429101758990437
1761507094569444000,3.472444091796875,-0.2041536223232746,0.49500375052057205,-0.04935878193080425
1761507094579415300,3.482415283203125,-0.1754284630984068,0.5177029274541884,0.04805767273698002
1761507094589387300,3.49238720703125,-0.11964520107805728,0.5486163905035704,0.13981544405594468
1761507094599358200,3.502358154296875,-0.06197217978835105,0.5674862184073776,0.22754794191420077
1761507094609330200,3.512330078125,-0.02349193474650383,0.5903355444014072,0.29395372023582456
1761507094619301400,3.52230126953125,-0.003499532553553581,0.6167576143156737,0.3607048413963988
1761507094629273000,3.532273193359375,0.030364158603549,0.6201545632775872,0.41193420297205446
1761507094639245300,3.542245361328125,0.1324590899437666,0.5915092643558979,0.4772121097749099
1761507094649216300,3.55221630859375,0.26714111663401124,0.5381231996703892,0.542950144902803
1761507094659188200,3.562188232421875,0.36962884668409823,0.46622335397712883,0.5587024253079668
1761507094669159200,3.5721591796875,0.467161584675312,0.3890848769780248,0.5033667609246447
1761507094679131400,3.58213134765625,0.5099684607446193,0.3186333303969353,0.38730157375782726
1761507094689103000,3.59210302734375,0.5165051690369844,0.24292452087476848,0.2437333895722404
1761507094699074300,3.60207421875,0.5095411752432585,0.18770934106595813,0.09531502540912479
1761507094709046000,3.6120458984375,0.37358138370215893,0.1630075190730393,-0.022925058111362157
1761507094719017200,3.622017333984375,0.1012228246808052,0.19492570218555627,-0.08096493995208293
1761507094728989200,3.6319892578125,-0.1688572680145502,0.24812172419168055,-0.0686193627178669
1761507094738960400,3.64196044921875,-0.3576034778475761,0.2720330533940345,-0.01796970072630793
1761507094748932000,3.65193212890625,-0.4024772233188152,0.26479579561688005,0.021128712746500966
1761507094758904300,3.661904296875,-0.3586246375888586,0.21797690742723644,0.06313870281707495
1761507094768875000,3.671875,-0.26695348510742184,0.12971651323735714,0.11217515745833516
1761507094778847200,3.68184716796875,-0.1848737523138523,0.09105492027923465,0.16140169131159782
1761507094788818200,3.691818115234375,-0.07765607113242148,0.07687763410583139,0.23441702396608888
1761507094798790100,3.7017900390625,0.10352993257939815,0.035328503012657164,0.33907647203207014
1761507094808762400,3.711762451171875,0.27182547505795956,-0.043177389882132405,0.45681269768364724
1761507094818733300,3.7217333984375,0.405122184869647,-0.10936448395177721,0.5494454982714727
1761507094828705300,3.731705322265625,0.4964245040386915,-0.18581892420947552,0.6117607924090698
1761507094838676200,3.74167626953125,0.496507506147027,-0.25379728561006487,0.6436725823134184
1761507094848648200,3.751648193359375,0.4460381326258182,-0.2897702240061015,0.6591018413092941
1761507094858619100,3.761619140625,0.3959188877165317,-0.32553149241283535,0.6551623829685151
1761507094868591400,3.77159130859375,0.34776772800982,-0.3374997242346406,0.6568387917481362
1761507094878563000,3.78156298828125,0.29261165797710414,-0.3505034365840256,0.6382478538509458
1761507094888534300,3.7915341796875,0.2563900055170059,-0.36331659479737277,0.6284370192587375
1761507094898506200,3.80150634765625,0.30269875222742554,-0.40143706661611794,0.6208446644335985
1761507094908477200,3.811477294921875,0.3772112646371126,-0.47873752924390134,0.595071011958085
1761507094918449200,3.82144921875,0.3541261571258306,-0.5574700705014168,0.5380925488037989
1761507094928421400,3.83142138671875,0.23824118536412714,-0.60898274253048,0.4304709264639765
1761507094938392000,3.84139208984375,0.03686404201686382,-0.6068277564536779,0.3152536248307675
1761507094948364300,3.8513642578125,-0.20527707339525222,-0.5846216237340122,0.22251144558433442
1761507094958335200,3.861335205078125,-0.36652561997175215,-0.5479790424481034,0.177287900294736
1761507094968307700,3.8713076171875,-0.44667876861691475,-0.5158210592303425,0.16390779238101094
1761507094978278700,3.881278564453125,-0.4674386480510235,-0.5149633464224637,0.16413937264718115
1761507094988250600,3.891250732421875,-0.4196183277338743,-0.5201300084706395,0.13690912815518677
1761507094998222600,3.90122265625,-0.34803310094773765,-0.5461763038750738,0.09180131819974631
1761507095008193800,3.91119384765625,-0.38535716169178486,-0.5223760338317602,0.07874412209745496
1761507095018165500,3.92116552734375,-0.5158154332071543,-0.4554826181236654,0.061861814749054604
1761507095028136700,3.93113671875,-0.7377274150609969,-0.3543062629330903,0.03459226115997881
1761507095038108700,3.941108642578125,-1.0079758500605822,-0.23837241052836178,0.0017724165000021456
1761507095048080600,3.95108056640625,-1.1674252382606267,-0.15783194306604564,-0.07622936279755085
1761507095058051600,3.961051513671875,-1.1445102266192435,-0.17731230408363044,-0.15116948950216172
1761507095068023800,3.97102392578125,-0.9041355363577603,-0.26671704600304363,-0.2049818898409605
1761507095077994500,3.980994384765625,-0.38388650461733337,-0.4224133652798831,-0.21612590926568953
1761507095087966700,3.990966796875,0.11282149253785609,-0.539958525338769,-0.1773727655665949
1761507095097937700,4.000937744140625,0.3395657168537378,-0.6166111915823071,-0.1673052162669599
1761507095107908600,4.01090869140625,0.259414906296134,-0.6358400620568543,-0.21186215087398885
1761507095117880600,4.020880615234375,-0.08826865056157111,-0.5691822817355394,-0.2927518336327746
1761507095127851800,4.030851806640625,-0.5478443101525307,-0.4059951683118939,-0.36780415200758726
1761507095137823500,4.040823486328125,-0.9068786975860595,-0.26008009220659734,-0.30957305844370275
1761507095147795700,4.050795654296875,-1.1408569648087024,-0.1500776756774634,-0.19198610506970434
1761507095157766700,4.0607666015625,-1.1687146935492754,-0.08846344248130918,-0.05830795819237828
1761507095167738600,4.070738525390625,-1.0384271024256944,-0.05753302829712629,0.10454433378633111
1761507095177709600,4.08070947265625,-0.7699065141320228,-0.034479338837414976,0.2862457396743819
1761507095187681800,4.090681884765625,-0.44913960577249523,-0.05028481073454022,0.4571593191642314
1761507095197652500,4.100652587890625,-0.1583563322663307,-0.08360489653423428,0.562308961899951
1761507095207624700,4.110624755859375,0.09723229373991489,-0.1158243276156485,0.6176989137537777
1761507095217596400,4.120596435546875,0.3061912705183029,-0.13084281385354696,0.6479729098558425
1761507095227567600,4.130567626953125,0.39927755049467084,-0.10892528881691396,0.663886226041615
1761507095237539600,4.14053955078125,0.39551381404697894,-0.055529871781170366,0.6345753758832812
1761507095247510800,4.1505107421875,0.3799468270808458,-0.01845145636126399,0.5764721464827657
1761507095257482500,4.160482421875,0.34566052659749985,0.03458265308141708,0.46598837617747485
1761507095267454700,4.170454833984375,0.32603871128261086,0.07233692193627357,0.36567386198062446
1761507095277425400,4.18042529296875,0.3206009041428566,0.10017484999783337,0.28478710183128714
1761507095287397600,4.190397705078125,0.2927098576545715,0.12239194250293076,0.21897468629293143
1761507095297368600,4.20036865234375,0.241807353413105,0.14244367366768418,0.1785198532424867
1761507095307340500,4.210340576171875,0.16480185514390466,0.16350531252734363,0.14964856354519723
1761507095317311500,4.2203115234375,0.10712532672286033,0.22771906069740652,0.14050127089563758
1761507095327283700,4.23028369140625,0.09469488421678543,0.27105339470691975,0.15089618898611515
1761507095337255700,4.240255615234375,0.14445581720769404,0.30340185899548233,0.14436273209676145
1761507095347226600,4.2502265625,0.19961948602497576,0.3301036956992,0.12559665682837368
1761507095357198600,4.260198486328125,0.203382637950778,0.34738223582357164,0.09031528089307247
1761507095367169500,4.27016943359375,0.09551321486234664,0.3977082553513348,0.06619177024476229
1761507095377141800,4.280141845703125,-0.10152443797588348,0.4730963084865361,0.05224182655382901
1761507095387113500,4.290113525390625,-0.26794015805721283,0.5354447011761367,0.011209668539464474
1761507095397084700,4.300084716796875,-0.3618435996353626,0.5662978123404085,-0.04133271186351776
1761507095407056600,4.310056640625,-0.35680385190248487,0.5932120496857911,-0.07719733104687183
1761507095417027600,4.320027587890625,-0.237405903583765,0.593466755099222,-0.10038692184593528
1761507095426999600,4.32999951171875,-0.027006080347299573,0.5433752749796956,-0.15013484922479836
1761507095436970800,4.339970703125,0.21585516603291033,0.4776791062321514,-0.22295469583980737
1761507095446942500,4.3499423828125,0.42605099112987516,0.4262812196891755,-0.3108191495146602
1761507095456914700,4.359914794921875,0.5651911662727594,0.38203729655407365,-0.4087123913813382
1761507095466886400,4.369886474609375,0.6046650985270738,0.3645283817399293,-0.5136289925461635
1761507095476857600,4.379857666015625,0.5574368988841771,0.3277144624751061,-0.5978749999955296
1761507095486829600,4.38982958984375,0.48159518369734283,0.3082278909124434,-0.6547020719803869
1761507095496800800,4.39980078125,0.4124848225921392,0.27155330705307423,-0.6503577591657638
1761507095506772500,4.4097724609375,0.3421376131683588,0.2474761928297579,-0.5575920163806527
1761507095516744700,4.41974462890625,0.30966099245548245,0.24577158086895942,-0.4354553638130426
1761507095526715400,4.42971533203125,0.2245750635832548,0.2286235352564603,-0.2966601113840006
1761507095536687600,4.4396875,0.10354103849530219,0.2160601140204817,-0.17550477973762899
1761507095546658600,4.449658447265625,0.006335632762312889,0.20857180409170686,-0.14452959482995792
1761507095556630500,4.459630615234375,-0.03399871571362018,0.16509491980634627,-0.13419658126085995
1761507095566601500,4.4696015625,-0.006045125383138656,0.1029564435403794,-0.1714467182521708
1761507095576573700,4.47957373046875,-0.01873918726146221,0.046446913072094316,-0.2175933149371296
1761507095586545700,4.489545654296875,-0.07366378662586212,0.003914835356175899,-0.2674458717342466
1761507095596516600,4.4995166015625,-0.20982932987213135,-0.00962130336947739,-0.3333734380848706
1761507095606488800,4.50948876953125,-0.3139455379068851,-0.03373926105983555,-0.38691147846169766
1761507095616459500,4.51945947265625,-0.2962204961240291,-0.06885477890893817,-0.3642316638156771
1761507095626431700,4.529431640625,-0.17722119173407552,-0.11582008983194828,-0.3054829578521661
1761507095636403500,4.539403564453125,0.014511340433359145,-0.19859321171715855,-0.23734779845466836
1761507095646374700,4.549374755859375,0.2094657572567463,-0.28666034835726023,-0.19074520163051784
1761507095656346600,4.5593466796875,0.40898879716992376,-0.38834107287339864,-0.18782604451449586
1761507095666317800,4.56931787109375,0.6102531277924775,-0.5022245686195791,-0.20810117263896388
1761507095676289500,4.57928955078125,0.7298363695502281,-0.6042839171897619,-0.22180519701112061
1761507095686261800,4.58926171875,0.756420425093174,-0.6493214749205857,-0.21339895025352015
1761507095696232400,4.599232421875,0.7699158664822578,-0.6692704763632268,-0.1757195549994707
1761507095706204700,4.60920458984375,0.7425345230817795,-0.6969044062852859,-0.12908824353748932
1761507095716175600,4.619175537109375,0.6509656619310379,-0.7272172000277787,-0.0850939112492837
1761507095726147600,4.629147705078125,0.5560591807901859,-0.7579252036329358,-0.0577771575176157
1761507095736118500,4.639118408203125,0.48966392386257646,-0.8005350958254188,-0.04085492001762613
1761507095746090800,4.6490908203125,0.4405675922602415,-0.8465471976768225,-0.03392923067398369
1761507095756062700,4.659062744140625,0.402089685305953,-0.8830813501521945,-0.029475776662770656
1761507095766033700,4.66903369140625,0.31360125451385973,-0.899771349798888,-0.009893507906980813
1761507095776005600,4.679005615234375,0.1943453450143337,-0.8669235576860607,0.027528040128480643
1761507095785976600,4.6889765625,0.10336392836272716,-0.8335679621815681,0.06790217262553051
1761507095795948800,4.69894873046875,0.06920037747621535,-0.8268408458836376,0.10661847317926584
1761507095805920500,4.70892041015625,0.04787000467777252,-0.8443276219312101,0.12255582782775162
1761507095815891700,4.7188916015625,0.034356443110108374,-0.8741409417189657,0.12086948217600584
1761507095825863700,4.72886376953125,-0.016195347997546194,-0.8947595129862427,0.11084330606637521
1761507095835834600,4.738834716796875,-0.11240531295239925,-0.8973357932150363,0.08084860182972624
1761507095845806600,4.748806640625,-0.19841770901978015,-0.8703262057363986,0.043308962106239045
1761507095855778800,4.75877880859375,-0.3113765642017126,-0.8323035682689398,0.019725933276489378
1761507095865749500,4.76874951171875,-0.434615405857563,-0.7818056993056088,-0.01002553678881377
1761507095875721700,4.7787216796875,-0.47000119201540946,-0.7671928712591528,-0.027830292744375765
1761507095885692700,4.788692626953125,-0.3721341075032949,-0.7904736474730074,-0.029872849688958376
1761507095895664600,4.79866455078125,-0.1794885521441698,-0.8166689228940754,-0.0054630511788651345
1761507095905635600,4.808635498046875,-0.03258241917490959,-0.8297942157965152,-0.025783899874892085
1761507095915607800,4.81860791015625,-0.120820674598217,-0.7683440871208905,-0.11242533282712101
1761507095925579500,4.82857958984375,-0.4333212743937969,-0.6470986843045801,-0.24785028683915733
1761507095935550700,4.83855078125,-0.8226771503329277,-0.5041261644572019,-0.35164807657450436
1761507095945522400,4.8485224609375,-1.2877227657675743,-0.31994463219121094,-0.46202038586195554
1761507095955493600,4.85849365234375,-1.690018202778697,-0.1458691911369562,-0.5819676020938903
1761507095965465900,4.8684658203125,-1.8691846833616494,-0.029529899736493823,-0.6256663855016231
1761507095975437800,4.878437744140625,-1.82677352861166,0.07209156887307763,-0.5722136487880721
1761507095985408800,4.88840869140625,-1.5500801552563905,0.09556779459379613,-0.4297829441998154
1761507095995381000,4.898381103515625,-1.0530109235733747,0.09742598968110978,-0.2544582154705189
1761507096005351700,4.9083515625,-0.5809042837113142,0.06227255097441375,-0.08654758065631613
1761507096015324000,4.918323974609375,-0.1674362953007221,0.04271722502447665,0.032115093924105165
1761507096025294800,4.928294921875,0.2114513781160116,-0.0024872137058526275,0.10885163905881344
1761507096035266800,4.938266845703125,0.4969336226046085,-0.021799670810624956,0.20268380549903958
1761507096045238800,4.94823876953125,0.6997726551979779,-0.008122150852903723,0.29053777431249617
1761507096055210000,4.9582099609375,0.7884446258634329,0.029749533836543558,0.35622097398061303
1761507096065181700,4.968181640625,0.7732143235057592,0.05608187964074313,0.3881215118385851
1761507096075153000,4.97815283203125,0.5855845504820346,0.17941366027705372,0.3335708238204941
1761507096085124600,4.98812451171875,0.3126478993117809,0.26071305634789166,0.313942724895291
1761507096095096800,4.998096923828125,0.07918518039584159,0.3731532214179635,0.2943014376949519
1761507096105067800,5.00806787109375,-0.05473229166269302,0.44400246207974847,0.2782891546467319
1761507096115039700,5.018039794921875,-0.08258008353114128,0.4762631019543856,0.27630061117801813
1761507096125010700,5.0280107421875,-0.09735445881485938,0.49560756163261827,0.29542598474547266
1761507096134983000,5.03798291015625,-0.14966741437613965,0.5058560569897294,0.30390630138628183
1761507096144955000,5.047954833984375,-0.22953531633913515,0.5519290952481329,0.32224114563055334
1761507096154925800,5.05792578125,-0.32182781558930873,0.6081937110446393,0.3323981267793104
1761507096164897800,5.067897705078125,-0.3238549375027418,0.633699177570641,0.3433670088328421
1761507096174868700,5.07786865234375,-0.24230478154122828,0.6283993906620889,0.3654289473088458
1761507096184841000,5.087841064453125,-0.14734803151786327,0.6205865249540656,0.3682693218339234
1761507096194812000,5.09781201171875,-0.06282616626918315,0.6036765258811414,0.37100214433129874
1761507096204783900,5.107783935546875,0.03091536274552345,0.5695961232334376,0.3427338620284572
1761507096214755800,5.117755859375,0.11208148782551287,0.5485637104682624,0.319930786328949
1761507096224727000,5.12772705078125,0.17167583256661892,0.5460855568516999,0.2888085028344765
1761507096234698800,5.13769873046875,0.2518500239998102,0.538330704941228,0.2656232959495857
1761507096244670000,5.147669921875,0.37186230482459065,0.5125106925733387,0.23126334570813922
1761507096254641700,5.1576416015625,0.47498073399364943,0.4776457884844392,0.16170118571482597
1761507096264614000,5.16761376953125,0.44481706639826296,0.45030762663856144,0.07133117895983158
1761507096274584800,5.177584716796875,0.28245208301246166,0.45043731743283566,0.009846490427479147
1761507096284556800,5.187556884765625,0.09309387876093388,0.4772948561549186,-0.014922113191336392
1761507096294527700,5.19752783203125,0.01483048938512802,0.5125647608481347,-0.025264351246505973
1761507096304500000,5.2075,0.1263935062944889,0.48899084690660233,-0.005686448138579726
1761507096314470700,5.217470703125,0.3550993860721588,0.4069077531121671,-0.02870517588276416
1761507096324443000,5.22744287109375,0.5726467429757118,0.3220172737468034,-0.08340867984239012
1761507096334414800,5.237414794921875,0.7050631628215313,0.24817133548706768,-0.13468750658296047
1761507096344385800,5.2473857421875,0.7104653141260147,0.2199715883757919,-0.18912202087547628
1761507096354357800,5.257357666015625,0.6518138031929731,0.22830124449953434,-0.2381355330325663
1761507096364329000,5.267328857421875,0.6256476808011532,0.26014782368056477,-0.2553829838989302
1761507096374300700,5.27730078125,0.6100917997509241,0.27892690456099806,-0.2767121511209756
1761507096384273000,5.28727294921875,0.5890291379779576,0.28318215085268017,-0.3174153329093009
1761507096394243800,5.297243896484375,0.5691460413783789,0.26103885423615575,-0.3381577862845734
1761507096404215800,5.3072158203125,0.4567448200792074,0.2734115021403879,-0.3480816162645817
1761507096414187000,5.31718701171875,0.2893991256713867,0.29770817739851774,-0.34657395164798943
1761507096424158700,5.32715869140625,0.12552023059129713,0.3130774498354643,-0.28301804633215066
1761507096434130000,5.3371298828125,-0.07857610858678818,0.3453517529092729,-0.21809918210003523
1761507096444102000,5.347101806640625,-0.2576104872226715,0.38767895570285615,-0.1519382453849539
1761507096454073900,5.357073974609375,-0.3525824348151684,0.3956620634112507,-0.06518752510566264
1761507096464044800,5.367044921875,-0.39944238566756246,0.3925554756980389,-0.02946297198012471
1761507096474017000,5.37701708984375,-0.417114235958457,0.39890338342003523,0.016408735019899905
1761507096483987700,5.38698779296875,-0.3503068910986185,0.36197080621160566,0.05817640423458069
1761507096493960000,5.3969599609375,-0.2703507263302803,0.3078346538111567,0.10455470904987305
1761507096503931600,5.406931640625,-0.2273193938553333,0.2591922765213996,0.16145882832631467
1761507096513902800,5.41690283203125,-0.1896668318092823,0.21421711650229988,0.22640173102114347
1761507096523874800,5.426874755859375,-0.0822042359560728,0.17792276413217187,0.3112903106903657
1761507096533846000,5.436845947265625,0.022578911554813383,0.14119184697568415,0.40893772456981237
1761507096543817700,5.446817626953125,0.12507657847702502,0.0926836174596101,0.4614630442401394
1761507096553789000,5.456788818359375,0.25175007075667377,0.05256225414723158,0.43406884135808793
1761507096563760600,5.4667607421875,0.3857031986504793,0.004489201178029179,0.45150381415318697
1761507096573732900,5.47673291015625,0.3781348092228174,-0.07777312164083122,0.39757224441412836
1761507096583703800,5.486703857421875,0.3557598958075046,-0.0794477768547833,0.32138182538747784
1761507096593675800,5.49667578125,0.2986269727438688,-0.12401727868244052,0.29777652992699294
1761507096603646700,5.506646728515625,0.2805231607764959,-0.1468641935236752,0.25461886765863745
1761507096613619000,5.516618896484375,0.2892255226701498,-0.16167539368644357,0.2587986010286957
1761507096623591000,5.5265908203125,0.34562837789356704,-0.19501118851192295,0.2830821245443076
1761507096633561900,5.536561767578125,0.460725414147973,-0.25754874709807335,0.31157858957983553
1761507096643533800,5.546533935546875,0.5997369944751262,-0.33052805859111245,0.3024508053483441
1761507096653504800,5.5565048828125,0.6335474941402673,-0.3834038356669247,0.30393947300352153
1761507096663477000,5.56647705078125,0.586033463293314,-0.4070587058901787,0.28239859925955535
1761507096673448000,5.576447998046875,0.5378858107179403,-0.417972350625135,0.253721443894878
1761507096683420000,5.586419921875,0.41526188609004017,-0.4233365080067888,0.24350601055715232
1761507096693392000,5.596391845703125,0.20640812325179575,-0.41523189281057565,0.2218875049997121
1761507096703362800,5.60636279296875,0.021053309422731398,-0.3808858249640092,0.19976780845448375
1761507096713334800,5.616334716796875,-0.10734393790960312,-0.3934349619463086,0.20564945037160068
1761507096723306000,5.626305908203125,-0.17600421715974807,-0.4131835819786414,0.2230156687794253
1761507096733277700,5.636277587890625,-0.21473113043904304,-0.44087782725319263,0.2430745968699455
1761507096743250000,5.64625,-0.19191373395323752,-0.4576563454335555,0.21971220678724349
1761507096753220900,5.656220947265625,-0.1740419771760702,-0.5025117880631238,0.14038115164730697
1761507096763192800,5.66619287109375,-0.14513912329673767,-0.5384579845827072,0.03515153901055455
1761507096773163800,5.676163818359375,-0.1187035363137722,-0.538429160347022,-0.09876366802565753
1761507096783136000,5.686135986328125,-0.12054302670061588,-0.5385120893901214,-0.23160156468655912
1761507096793106700,5.696106689453125,-0.17560206609964368,-0.5573987953634932,-0.3283861146589741
1761507096803079000,5.706078857421875,-0.26577801158726216,-0.5591126866092905,-0.3682231446046382
1761507096813050600,5.716050537109375,-0.3501356261849403,-0.5573771315209567,-0.36736554139461364
1761507096823021800,5.726021728515625,-0.45497839492857456,-0.5353554519901051,-0.3233843973815441
1761507096832993800,5.735993896484375,-0.5834416932344436,-0.49489930376540864,-0.26992000676281747
1761507096842965000,5.745965087890625,-0.6378969215214252,-0.46682267157714813,-0.20399262307528404
1761507096852936700,5.755936767578125,-0.5314350271433591,-0.46947344181425865,-0.12783636204656212
1761507096862909000,5.765908935546875,-0.28558336677551266,-0.5379191284656525,-0.05318458729665726
1761507096872879600,5.775879638671875,0.08381517828404902,-0.626026085659489,0.023931385609693823
1761507096882851800,5.785851806640625,0.4574900854885578,-0.68011861811392,0.06068013068381697
1761507096892822800,5.79582275390625,0.5624468360006809,-0.7049596293818206,-0.01323700964860618
1761507096902794800,5.805794677734375,0.3398912955462932,-0.7023521502971649,-0.12717570618074386
1761507096912765700,5.815765625,-0.0899859758734703,-0.5656480431947857,-0.22908961839824912
1761507096922738000,5.825738037109375,-0.49278760884106154,-0.38893797932062296,-0.2486033702287823
1761507096932710000,5.8357099609375,-0.7513602190941572,-0.24603505411073565,-0.15710571115072816
1761507096942680800,5.845680908203125,-0.9310176980644463,-0.1266190952112898,-0.0010370879627764225
1761507096952653000,5.855653076171875,-0.9322674058645963,-0.05334328498970717,0.19774927170630544
1761507096962623700,5.865623779296875,-0.83151278321743,-0.0326918708987534,0.3721670964574441
1761507096972596200,5.87559619140625,-0.7472358326405286,0.01996628137100488,0.43925720378141847
1761507096982568000,5.88556787109375,-0.5799579427719116,0.0066735960124060505,0.4818715894859284
1761507096992539100,5.8955390625,-0.3034603842496872,-0.019772366234101352,0.4906952396716922
1761507097002511000,5.905510986328125,-0.1516086115717888,-0.035353052932024,0.4682644678832963
1761507097012482000,5.91548193359375,-0.09767536133229732,0.002928527732565999,0.46974122590497136
1761507097022454000,5.9254541015625,-0.08795943848192692,0.06652819912489503,0.4881602778339758
1761507097032425200,5.93542529296875,-0.10807459027171135,0.12425974566880613,0.4795615224452689
1761507097042397000,5.94539697265625,-0.17163433151245117,0.16847210462186485,0.44487303436920045
1761507097052369200,5.955369140625,-0.2505775198459625,0.2037411690648645,0.4264036770250648
1761507097062340000,5.965340087890625,-0.2654775673359632,0.22186076312325895,0.4069443222628906
1761507097072312000,5.97531201171875,-0.19459785847067831,0.20937643500547856,0.3937026364391669
1761507097082283000,5.985282958984375,-0.0438186834603548,0.18168387023136018,0.3737129376599565
1761507097092255200,5.995255126953125,0.14811550875902174,0.17284385343268513,0.30264665671400726
1761507097102226000,6.005225830078125,0.2862321860730648,0.13559720530640332,0.24769604612551627
1761507097112198100,6.0151982421875,0.2910071453899145,0.10135529195405542,0.19328114984892308
1761507097122169900,6.025169921875,0.13218728726506232,0.14083689605817198,0.12345763550568371
1761507097132141000,6.03514111328125,-0.08451251289844512,0.20192527874931693,0.08122370048612355
1761507097142113000,6.045113037109375,-0.2511737321734428,0.26237700750473886,0.06566851355563849
1761507097152084200,6.055084228515625,-0.2944534864515066,0.3078864935962483,0.1029510732455179
1761507097162056000,6.065055908203125,-0.17809154482781886,0.30995445897672325,0.14045191532857715
1761507097172028200,6.075028076171875,-0.002039396873116493,0.282125737134926,0.17008900176659225
1761507097181998800,6.084998779296875,0.11157587639093398,0.28079540184661744,0.17000143308099358
1761507097191971000,6.09497119140625,0.18840075739622114,0.27035116472169757,0.14572506995853035
1761507097201942000,6.10494189453125,0.2225438500165939,0.2789091497085988,0.08682805983182042
1761507097211914000,6.1149140625,0.1923947954684496,0.290915813844651,0.02513349140845239
1761507097221885200,6.12488525390625,0.14261632682085038,0.32422296709753573,-0.046883331727981564
1761507097231857200,6.134857177734375,0.10851999595165251,0.32222550967000424,-0.11830069113392382
1761507097241829000,6.1448291015625,0.09921031581461429,0.32731691452488304,-0.175483298558183
1761507097251800000,6.154800048828125,0.06865735664069653,0.3622713235281408,-0.21934706326927988
1761507097261772000,6.16477197265625,0.056636663979291915,0.395694065984711,-0.2435889396002516
1761507097271743000,6.174742919921875,0.11281447827517986,0.4271525956962257,-0.2370931843727827
1761507097281715200,6.184715087890625,0.17946575579047203,0.4339675364080816,-0.2515259431445971
1761507097291687000,6.19468701171875,0.2577846747457981,0.4024523080732673,-0.28715394056048243
1761507097301658000,6.204658203125,0.31282968561947344,0.37219007547423244,-0.3116250956026837
1761507097311630000,6.214630126953125,0.3487719366163015,0.3477159247573465,-0.3338129985459149
1761507097321601300,6.224601318359375,0.38803953264355656,0.2934100418131798,-0.3777351789133623
1761507097331573000,6.234572998046875,0.3744266023546457,0.21967830451764164,-0.4273952453456819
1761507097341544200,6.244544189453125,0.3300777575403452,0.17198416786342857,-0.4739759408652782
1761507097351516000,6.254515869140625,0.2717915727883577,0.14423727908618747,-0.45449214578159153
1761507097361488100,6.264488037109375,0.22608955979943274,0.11888678392618894,-0.38065745956823227
1761507097371459000,6.274458984375,0.17514204737246036,0.09697415426038206,-0.2764252604709938
1761507097381431000,6.28443115234375,0.0626806203186512,0.07460413621589541,-0.1881945307670161
1761507097391402000,6.294402099609375,-0.052823827692866324,0.05520188193581998,-0.1537961116787046
1761507097401374200,6.304374267578125,-0.13358137197196482,0.00513641304038465,-0.12815974878203124
1761507097411345000,6.314344970703125,-0.2501046416372061,-0.025707272708415982,-0.15112444478403775
1761507097421317000,6.324317138671875,-0.31268472419083115,-0.056795653933286665,-0.17937270721215753
1761507097431289000,6.3342890625,-0.27973639431297775,-0.11592676507681607,-0.18230748202241956
1761507097441260000,6.344260009765625,-0.20428981592357157,-0.1664816979896277,-0.20254125522319227
1761507097451232300,6.354232177734375,-0.12770692698061464,-0.20849588931128382,-0.20789335684087126
1761507097461203200,6.364203125,-0.06014730244874954,-0.25607173334807154,-0.20147402785047888
1761507097471175200,6.374175048828125,0.014677344650030136,-0.2943848051294684,-0.19248733259011058
1761507097481147100,6.384147216796875,0.03593815934360027,-0.31421449104137716,-0.19399583745691923
1761507097491118000,6.3941181640625,0.01447451555430889,-0.30655287037231027,-0.18717625710256397
1761507097501090000,6.404090087890625,0.030192893689870832,-0.32031594972163435,-0.18180647369772196
1761507097511061200,6.414061279296875,0.0521188942939043,-0.34168767744377254,-0.1728773903761059
1761507097521033000,6.424032958984375,0.08511223235726356,-0.36484811521358784,-0.17653456117678432
1761507097531005200,6.434005126953125,0.17847616023123264,-0.39448914717435835,-0.17119564783424138
1761507097540976000,6.44397607421875,0.2956570170223713,-0.42913076390139754,-0.14292411412838846
1761507097550948000,6.453947998046875,0.42395372658967967,-0.4873188951063901,-0.1235243805989623
1761507097560919000,6.4639189453125,0.4868903674960136,-0.5461180708818137,-0.10182985066324472
1761507097570891300,6.473891357421875,0.4626876541316509,-0.5778897581957281,-0.10771817804947495
1761507097580862000,6.483862060546875,0.3762275142967701,-0.6007202333588153,-0.10856102208178489
1761507097590834200,6.493834228515625,0.2773094594269991,-0.5972522649873048,-0.08402933249138295
1761507097600806000,6.503805908203125,0.214544667956233,-0.5865774339769035,-0.05726045843344182
1761507097610777000,6.513777099609375,0.20760756216943263,-0.5930587588202207,-0.012122618665918707
1761507097620749000,6.5237490234375,0.276720261362195,-0.6282010916110128,0.04997874046005309
1761507097630720300,6.53372021484375,0.37779286391735073,-0.6995420613124966,0.11900792608782648
1761507097640692000,6.54369189453125,0.46291152601540086,-0.7636569522179663,0.1713093373417854
1761507097650663200,6.5536630859375,0.5049550164967775,-0.8131960591517389,0.20562851718142627
1761507097660635000,6.563634765625,0.460567008715868,-0.8410324528433382,0.22166257367003708
1761507097670607000,6.573607177734375,0.33306700248420235,-0.858197011199221,0.18417601584065704
1761507097680578000,6.583578125,0.29164076711833475,-0.8836663104332984,0.03702990010306239
1761507097690550000,6.593550048828125,0.37466391824185846,-0.8810459718670696,0.05398249620869756
1761507097700521000,6.60352099609375,0.30848610345721245,-0.9476631279170512,0.03174560302458703
1761507097710493200,6.6134931640625,0.3600269056022167,-0.9192692464731633,0.014889270367659628
1761507097720465200,6.623465087890625,0.3294914820849895,-0.9141927469264716,0.0686704535842873
1761507097730436000,6.63343603515625,0.26475509828031063,-0.8986278788521885,0.12426970080723986
1761507097740408000,6.643407958984375,0.2643465174794197,-0.8059354935642331,0.13530505395941436
1761507097750379000,6.65337890625,0.276973943862319,-0.7832026335567236,0.18294603565428405
1761507097760351200,6.663351318359375,0.33344694171249867,-0.7694028023935854,0.16787627588687465
1761507097770322200,6.673322265625,0.4084516215533018,-0.7977073981188237,0.08807053417358547
1761507097780294100,6.683294189453125,0.5041606512486935,-0.8893803041659295,0.012383479825500398
1761507097790266000,6.69326611328125,0.4687175819456577,-0.918690715932846,-0.01987568047810346
1761507097800237000,6.703237060546875,0.0993102690577507,-0.8254760603364557,-0.08986753712557256
1761507097810209000,6.713208984375,-0.5204202966541052,-0.6573010024324059,-0.16210684390626848
1761507097820180200,6.72318017578125,-1.1520669256091116,-0.46585700488276777,-0.18707637692466378
1761507097830152000,6.73315185546875,-1.7443378219872712,-0.24591716335210947,-0.1727538735942915
1761507097840124200,6.743124267578125,-2.1255869638383387,-0.02134001740962267,-0.10522245224360376
1761507097850095000,6.75309521484375,-2.2146213380753994,0.14308478458281607,-0.04025324606373906
1761507097860067000,6.763067138671875,-2.0097633668750525,0.2069409880194813,0.057142677272669966
1761507097870038000,6.7730380859375,-1.603716468375921,0.2120736382002011,0.09945976053103804
1761507097880010200,6.78301025390625,-1.0726035127937794,0.146942446391657,0.053255606706254184
1761507097889981000,6.79298095703125,-0.5308084196776152,0.06014339345861226,-0.02994991524685174
1761507097899953200,6.802953125,-0.08243862923383713,-0.002192249347269535,-0.055183140702731906
1761507097909924900,6.8129248046875,0.22953940799236297,-0.030249738443642853,-0.01790565904676914
1761507097919896000,6.82289599609375,0.4101654397338629,-0.00963993500471115,0.0024676687551662326
1761507097929868000,6.832867919921875,0.4989034613728523,0.014676394801959395,-0.031206564244441685
1761507097939839200,6.842839111328125,0.5113356574445963,0.03239624895304441,-0.12190014039799571
1761507097949811000,6.85281103515625,0.4326689479649067,0.0607242255538702,-0.20140837873574344
1761507097959782100,6.8627822265625,0.26231238130331036,0.10859605686254799,-0.2536182392487302
1761507097969753000,6.872753173828125,0.09631050271987915,0.1668442476917058,-0.32906916501969097
1761507097979725000,6.88272509765625,-0.047400049078464505,0.23623196443356573,-0.36521424511224027
1761507097989696000,6.892696044921875,-0.18150398361980913,0.3168069186873734,-0.3238590291559696
1761507097999668200,6.902668212890625,-0.27345044591128825,0.39499505086988207,-0.22208207772374153
1761507098009639000,6.912638916015625,-0.29371406626105306,0.4517881475199014,-0.10315719027686863
1761507098019611100,6.922611083984375,-0.2623468680948019,0.4692951626379043,-0.011428243193589151
1761507098029583000,6.9325830078125,-0.17233984943330288,0.4716243362378329,0.023943368308432397
1761507098039554000,6.942553955078125,-0.06620353374779224,0.4612699693534523,0.03561042522657663
1761507098049526300,6.9525263671875,0.06209492938518524,0.4578763083271682,0.044575968101061875
1761507098059497200,6.962497314453125,0.18470541000962257,0.4582025446068495,0.02972863717898726
1761507098069469200,6.97246923828125,0.2456932549357414,0.48726986833289265,0.06460022673700004
1761507098079440100,6.982440185546875,0.3483107488453388,0.4839796676810831,0.11664784589298069
1761507098089412000,6.992412109375,0.544333671683073,0.4876140055954456,0.16006445135846734
1761507098099384000,7.002384033203125,0.6940349883288145,0.4529352717284113,0.15129907069858162
1761507098109355300,7.012355224609375,0.721783411476016,0.42460093845203517,0.1109325735187158
1761507098119327000,7.022326904296875,0.6211492003381252,0.42772513488717373,0.005115772111155092
1761507098129298200,7.032298095703125,0.4085480676651001,0.4564681950949132,-0.10780033990759402
1761507098139270100,7.042270263671875,0.2090852335065603,0.5118821854114532,-0.22036475241184234
1761507098149242000,7.0522421875,0.15069500385820864,0.5172464889235794,-0.29678021236602214
1761507098159213000,7.062213134765625,0.18234043444395065,0.5017957487482577,-0.34367194659616795
1761507098169185300,7.072185302734375,0.2249935812562704,0.4740891189161688,-0.33833442149311305
1761507098179156000,7.082156005859375,0.25401392403542994,0.4669913426749408,-0.25591625052541495
1761507098189128200,7.092128173828125,0.2719137378633022,0.47967071844078596,-0.13704455457050352
1761507098199099100,7.10209912109375,0.27411738538742064,0.48593423581495876,-0.02874784598071128
1761507098209071000,7.112071044921875,0.19189912090599537,0.5193579281195998,0.06562525893580168
1761507098219043000,7.12204296875,0.16182722324728965,0.5557769297827034,0.15956315077282487
1761507098229014300,7.13201416015625,0.1300795013308525,0.5672968333151192,0.2222913000276312
1761507098238986000,7.141986083984375,0.08193535588681697,0.5857744470309466,0.250526045387052
1761507098248957200,7.151957275390625,0.04462883079946041,0.5868133616246283,0.23051614407002924
1761507098258929000,7.161928955078125,0.03431669562160969,0.5407021102476864,0.1641315911995247
1761507098268900000,7.171900146484375,0.03997954368889332,0.4734450488589704,0.10184782471135258
1761507098278872000,7.1818720703125,0.07540858446657657,0.4081867600720376,0.06272179257925599
1761507098288844000,7.191843994140625,0.10537351461946963,0.35729857661686837,0.04039312945846468
1761507098298815000,7.20181494140625,0.10983809281289576,0.3094250648077577,0.02606094498429447
1761507098308787200,7.211787109375,0.0368213719189167,0.31334428407810627,0.029482115072011945
1761507098318758000,7.2217578125,-0.10164192687571048,0.33085422180555757,0.05012622263934463
1761507098328730000,7.231730224609375,-0.3013853315412998,0.3594016863759607,0.06977532781995832
1761507098338702000,7.2417021484375,-0.4299614425718784,0.3635029111497104,0.0919430647579953
1761507098348673000,7.251673095703125,-0.45538288407623767,0.3527936664130539,0.13526581792756914
1761507098358645200,7.261645263671875,-0.39664544842541216,0.30315833256319163,0.147557619147934
1761507098368616200,7.2716162109375,-0.30123978559076786,0.21659334411434827,0.18230203866232186
1761507098378588200,7.281588134765625,-0.19693243889808654,0.21562522973455486,0.280309700688906
1761507098388559000,7.29155908203125,-0.08401625381410122,0.19758403467461466,0.23906707826163617
1761507098398531000,7.301531005859375,-0.0029378070175647736,0.04442132552862167,0.27173735838308927
1761507098408503000,7.3115029296875,0.10863339319825172,0.1209192396018654,0.4675092290692031
1761507098418474200,7.32147412109375,0.17585399503409863,0.13946020087748764,0.547900570384413
1761507098428446000,7.331446044921875,0.20131810663640498,0.054264162694290276,0.47974824065640564
1761507098438417200,7.341417236328125,0.2887503063738346,-0.01240779228284955,0.44857057371288533
1761507098448389000,7.35138916015625,0.4007248266935348,-0.05128521994873881,0.510581770337373
1761507098458361000,7.361361083984375,0.45572249129414555,-0.06846044582910836,0.5191833752702921
1761507098468332000,7.37133203125,0.40034371842145916,-0.09715396780669688,0.4670487719506025
1761507098478304300,7.38130419921875,0.38081133495569225,-0.13124525717459617,0.43265459064599127
1761507098488275000,7.39127490234375,0.4170476004630327,-0.17464454617910086,0.4264034943619743
1761507098498247200,7.4012470703125,0.47089492598474025,-0.2174813059300184,0.4277355832159519
1761507098508218000,7.411218017578125,0.5262070633620023,-0.2580309776570648,0.42018319507502017
1761507098518190000,7.421190185546875,0.5449702160209418,-0.29794337439388036,0.4103033503672108
1761507098528162300,7.431162353515625,0.4897919341564178,-0.31454839917086064,0.37809900725707407
1761507098538133200,7.44113330078125,0.36991350884437557,-0.3159617731001228,0.35970585695430635
1761507098548105200,7.451105224609375,0.2479278821200132,-0.31464024217277764,0.3231398480359465
1761507098558076200,7.461076171875,0.14717793564796447,-0.30159093711599705,0.2955980351104401
1761507098568048000,7.471048095703125,0.07529343365430831,-0.32500754160396755,0.2760653776500374
1761507098578019000,7.48101904296875,0.020026888984441757,-0.3515891494615003,0.26748247741758824
1761507098587991300,7.4909912109375,-0.03712123164832592,-0.3655140317764133,0.2215764662891626
1761507098597963000,7.500962890625,-0.033245266997814174,-0.36210579423550515,0.1871541914012283
1761507098607934200,7.510934326171875,-0.10053718050420284,-0.39413543836586173,0.17275679620373993
1761507098617906200,7.52090625,-0.18064064478874206,-0.3807494487006217,0.12769383003702386
1761507098627877000,7.530877197265625,-0.22763035950064658,-0.37727198184840377,0.12945303999558092
1761507098637849000,7.54084912109375,-0.27449966270327564,-0.392121248999238,0.13064332749238236
1761507098647821300,7.5508212890625,-0.2576186705291271,-0.3925494478160515,0.14584995671352372
1761507098657792000,7.5607919921875,-0.3419102341532707,-0.403069782384485,0.16710755653670056
1761507098667764200,7.57076416015625,-0.41801206158101556,-0.38198289948571473,0.1573662069841288
1761507098677735200,7.580735107421875,-0.4285293639421463,-0.3732101757695898,0.15093940707333386
1761507098687707100,7.59070703125,-0.36766251504719255,-0.40284032101016487,0.18397022760286927
1761507098697678000,7.600677978515625,-0.2507125444024801,-0.4152509993698448,0.20317730637071654
1761507098707650300,7.610650390625,-0.15547405482828616,-0.4462025294072926,0.23257095770798622
1761507098717622000,7.6206220703125,-0.09779226571023464,-0.47186925090961157,0.2242800992246717
1761507098727593200,7.63059326171875,-0.006029343292117118,-0.5188447179004549,0.24007711382070554
1761507098737565000,7.64056494140625,0.21933833197355268,-0.5878541028492152,0.25906852227756755
1761507098747536100,7.6505361328125,0.3677338267177343,-0.6198262081060558,0.2321704871483147
1761507098757508000,7.660508056640625,0.24378771357536314,-0.5852928009938448,0.15742909788619727
1761507098767480000,7.67047998046875,-0.08424597091674804,-0.49963966669291254,0.020797508030757306
1761507098777451000,7.680450927734375,-0.4134668193668127,-0.3959261942401528,-0.12908351256344466
1761507098787423200,7.69042333984375,-0.6678980920314789,-0.2877726569807157,-0.18520492049697784
1761507098797394000,7.700393798828125,-0.8206962056487799,-0.15760240862648933,-0.16025029278676955
1761507098807366100,7.7103662109375,-0.8866513175934553,-0.10481873028092085,-0.07122892416175454
1761507098817337000,7.720337158203125,-0.9131295746743678,-0.05339307894818485,0.017606603034958243
1761507098827309000,7.73030908203125,-0.8839040647119283,-0.017107604004256427,0.07527074689846486
1761507098837281300,7.74028125,-0.8514449796557426,0.003887034033797681,0.14057126739192755
1761507098847252200,7.750252197265625,-0.8459434596300125,0.04931782886590808,0.20689696621466427
1761507098857224200,7.76022412109375,-0.797743200084567,0.08624609522540122,0.2815594815542921
1761507098867195100,7.770195068359375,-0.626848873284459,0.09694500123113393,0.362635992122069
1761507098877167000,7.7801669921875,-0.34478491280674933,0.0894951966818422,0.4330296710360795
1761507098887138000,7.790137939453125,-0.08152209891080855,0.05396349924728274,0.4743351295664906
1761507098897110300,7.8001103515625,0.17037877849340438,0.03692943540327251,0.45651912156455215
1761507098907082000,7.81008203125,0.38053134897053237,0.04024243240877986,0.4058209807887673
1761507098917053200,7.82005322265625,0.4818851065546274,0.05763583108447492,0.30755466782599683
1761507098927025200,7.830025146484375,0.450717814874649,0.07844305679164826,0.18089801708329467
1761507098936996000,7.83999609375,0.3743921155631542,0.13940993199497462,0.05524462509900331
1761507098946968000,7.849968017578125,0.3219417973577976,0.18233122822418807,-0.018185645031929015
1761507098956940300,7.859940185546875,0.3108914110332727,0.2176608272153884,-0.042026977737993
1761507098966911700,7.869911865234375,0.26609949862658977,0.2310004935208708,-0.025675270134955644
1761507098976884000,7.879884033203125,0.19468378318846224,0.23674656289219856,0.0013187909809872507
1761507098986855000,7.88985498046875,0.07299860071539878,0.2817128089524805,0.012376666492223739
1761507098996827000,7.899826904296875,-0.06713876877129077,0.3438172368183732,0.005101232129149138
1761507099006797800,7.9097978515625,-0.17520049956142902,0.41366789489686484,-0.0194722507763654
1761507099016769800,7.919769775390625,-0.2356634438306093,0.46855808053500947,-0.012638349635712802
1761507099026741800,7.92974169921875,-0.25665830106437204,0.47579073520228266,0.01860186115000397
1761507099036713000,7.939712890625,-0.2569838797569275,0.49844892253838474,0.0543655772421509
1761507099046684700,7.9496845703125,-0.19340309572815895,0.4986626383543014,0.10095295823086052
1761507099056656000,7.95965576171875,-0.09734393742084503,0.4735222788136452,0.12275514979213475
1761507099066627800,7.9696279296875,-0.02300210540294647,0.4613583782892674,0.12746785752773285
1761507099076599800,7.979599853515625,0.0372831442117691,0.42832112801894545,0.08114676279239356
1761507099086570800,7.98957080078125,0.17177286320030688,0.386024028102681,-0.08210614587645977
1761507099096542700,7.999542724609375,0.3168342450857162,0.35319523295126853,-0.13838756667729465
1761507099106513700,8.009513671875,0.3098375180661678,0.3034477439638227,-0.12935279449149967
1761507099116484900,8.01948486328125,0.34358079771399497,0.3235866419553757,-0.12975965825933963
1761507099126456800,8.029456787109375,0.3399918333113193,0.34377580882944164,-0.1447107052842155
1761507099136428800,8.0394287109375,0.3508066573143005,0.33858488912284374,-0.1421516501848586
1761507099146399700,8.049399658203125,0.3377279800325632,0.34920338683612645,-0.14105744347367435
1761507099156371700,8.059371826171875,0.271632582834363,0.3465209428191185,-0.18376681398525832
1761507099166342700,8.0693427734375,0.18736732269525527,0.3478604477945715,-0.2973529342200607
1761507099176315000,8.07931494140625,0.09461129758656024,0.3690327804870903,-0.42663631673716007
1761507099186285800,8.089285888671874,0.08179799324274063,0.3649246145159006,-0.5377246288068592
1761507099196257800,8.0992578125,0.1805687485963106,0.336811595840007,-0.5999135200858116
1761507099206230000,8.10922998046875,0.31981004602611063,0.28706016132980583,-0.6010231983607635
1761507099216200700,8.11920068359375,0.43260932673215863,0.23846381513886153,-0.5920678115541115
1761507099226173000,8.1291728515625,0.44070437038242816,0.20061390388980507,-0.5708258842241019
1761507099236143900,8.139143798828124,0.35410336077213284,0.17701142144091425,-0.5192433252966031
1761507099246115800,8.14911572265625,0.18752105195224283,0.1842500674575567,-0.4446591724228114
1761507099256087800,8.159087890625,-0.06334463718533516,0.217482548039034,-0.36092264886554326
1761507099266059000,8.16905908203125,-0.3454167809695005,0.25276246266961094,-0.2799977121302858
1761507099276030700,8.17903076171875,-0.4715402381509542,0.24787410610616206,-0.20716617507748306
1761507099286002000,8.189001953125,-0.44589492476284504,0.187225137745589,-0.17128475088980047
1761507099295974000,8.198973876953126,-0.37019466387331484,0.1155685262236744,-0.16347188518177716
1761507099305944800,8.20894482421875,-0.24023265144228934,0.04127265223935246,-0.15389485934544353
1761507099315916800,8.218916748046874,-0.06925766062140465,-0.04732230766713619,-0.13084412902779877
1761507099325888800,8.228888671875,0.08181435985565184,-0.1384288850683719,-0.09259601224139333
1761507099335859700,8.238859619140625,0.21889701794683933,-0.19533815544396638,-0.019044892209768294
1761507099345832000,8.24883203125,0.2886252186894417,-0.22161117227636276,0.06686638157069683
1761507099355803000,8.258802978515625,0.2834124524772167,-0.23628632496930657,0.1555032809227705
1761507099365774800,8.26877490234375,0.2825105352014303,-0.2556066731195897,0.2127427331008017
1761507099375746800,8.278746826171876,0.25089433071017264,-0.2818650769047439,0.235751706635952
1761507099385717800,8.2887177734375,0.21196984903216362,-0.29284079055786133,0.2103151406276971
1761507099395689700,8.298689697265624,0.18579378976821898,-0.33998810698427256,0.16525321564059703
1761507099405661000,8.308660888671875,0.13174480419456958,-0.3787592247314751,0.11517470460049807
1761507099415632600,8.318632568359375,0.025029227316379545,-0.36574462566189464,0.09579816928356885
1761507099425603800,8.328603759765626,-0.07172960369288921,-0.3490052339155227,0.10963131819441914
1761507099435575800,8.338575927734375,-0.09814064075648785,-0.3418044356912374,0.15317889309581367
1761507099445547800,8.3485478515625,-0.02362169860601425,-0.37766448829732835,0.19720004032570868
1761507099455518700,8.358518798828126,0.053362756875157354,-0.42525984075218437,0.25094310175534335
1761507099465491000,8.368490966796875,0.125936410176754,-0.4912080114994198,0.2838133614283055
1761507099475461600,8.378461669921874,0.14158756829500196,-0.5376636193346231,0.28061971648614853
1761507099485433900,8.388433837890625,0.06472001719176769,-0.5616311357036232,0.234303736317344
1761507099495405800,8.39840576171875,-0.03827800046801567,-0.5717053704723716,0.2022356598727405
1761507099505377800,8.408377685546874,-0.09095043699145317,-0.5783967578697949,0.2008456302864477
1761507099515349000,8.418348876953125,-0.04837912324368954,-0.597502221160382,0.22239026689007876
1761507099525320700,8.42832080078125,0.032603461962938306,-0.639592254197225,0.262994299152866
1761507099535292000,8.4382919921875,0.09249708191156386,-0.6770877259854227,0.26893483165036886
1761507099545263900,8.448263916015625,0.06530746169090271,-0.6857547243047505,0.27571864657159895
1761507099555234800,8.45823486328125,0.029544658914208412,-0.6847583336785436,0.25888763101901857
1761507099565206800,8.468206787109375,0.012758943808078765,-0.7066901795014738,0.1890161128155887
1761507099575178800,8.4781787109375,0.035765140864253045,-0.6961033921007067,0.2089875270194374
1761507099585149700,8.488149658203126,-0.04412029675543308,-0.7170407469935715,0.2214092747624032
1761507099595122000,8.498121826171875,-0.052096097940206525,-0.6878287540998309,0.21712458318052813
1761507099605092900,8.5080927734375,-0.08660042508840561,-0.6719275667432695,0.21718199418988077
1761507099615064800,8.51806494140625,-0.18380232369005678,-0.6319700887557119,0.22298067053128032
1761507099625035800,8.528035888671875,-0.2610083129674196,-0.5731069808986038,0.19908271226715296
1761507099635007700,8.5380078125,-0.2682534617900848,-0.5362789600431919,0.2141695692998357
1761507099644980000,8.54797998046875,-0.27366788805425163,-0.49868243903331455,0.21938492932794615
1761507099654951000,8.557950927734375,-0.22375673293769358,-0.46125594082809984,0.21563938612407071
1761507099664923000,8.5679228515625,-0.09213876999318599,-0.47339843323826786,0.19922360030887648
1761507099674893800,8.577893798828125,0.06442483363747596,-0.520286806467548,0.17410267612105235
1761507099684866000,8.587865966796874,0.09788286660313605,-0.4724297343365848,0.0864987730785273
1761507099694837800,8.597837646484376,-0.09265373377799987,-0.3943133522160351,-0.03506386072710156
1761507099704809000,8.60780908203125,-0.4009358390957117,-0.27923480146639046,-0.19622571540083736
1761507099714781000,8.617781005859374,-0.6818430307537316,-0.14263305875994264,-0.34516061425134537
1761507099724752000,8.627751953125,-0.8318968140989541,-0.02311937510706484,-0.42973830134049057
1761507099734723800,8.637723876953125,-0.7868295918822288,0.0464379991132766,-0.43071854454949493
1761507099744695800,8.64769580078125,-0.5277642296761273,0.03717639590166509,-0.3713445645608008
1761507099754666800,8.657666748046875,-0.2585124044984579,-0.0009718407068401574,-0.28115910232616587
1761507099764639000,8.667638916015624,-0.11394260552227496,0.004030716820806264,-0.1986335071949288
1761507099774610000,8.67760986328125,-0.04265022420287132,0.02744403337314725,-0.15655649803644045
1761507099784582000,8.687581787109375,0.021428572475910186,0.018949030619859693,-0.1675053602152504
1761507099794552800,8.697552734375,0.14666881708204746,0.0022179683104157446,-0.18733700062222777
1761507099804524800,8.70752490234375,0.2784533687651157,-0.008489230599626899,-0.17581678656255825
1761507099814496800,8.717496826171875,0.17053309227228164,-0.12878164354003965,-0.6429288512740284
1761507099824468000,8.727468017578126,-0.24456921934187412,-0.7326964351564645,-1.5922516560316085
1761507099834439700,8.737439697265625,0.03137596599459648,-0.18871391499862072,-0.2843088167950511
1761507099844411000,8.747410888671874,0.6725555624485016,0.2396060439765453,-0.5338816531104966
1761507099854382800,8.7573828125,0.36703064688444137,-0.2124098478846252,-0.4239510231759399
1761507099864354800,8.767354736328125,0.321924261701107,-0.07383285958245396,-0.762102854643762
1761507099874325800,8.77732568359375,0.2594897250980139,-0.03720218793004751,-0.7273035631369799
1761507099884297700,8.787297607421875,0.13781038784384728,0.04905117728635668,-0.43500882562194015
1761507099894268700,8.7972685546875,-0.02019230867922306,0.2792785675428808,-0.21859900311464442
1761507099904241000,8.807240966796876,-0.22809271631538866,0.4220749271057546,0.02546049487311393
1761507099914211800,8.8172119140625,-0.26938451164662836,0.5743965092524885,0.11063296951763331
1761507099924183800,8.827183837890624,-0.16858663437962532,0.6282296601183712,0.12312127969078719
1761507099934156000,8.837156005859375,-0.011978607085347174,0.6051316931255162,0.17717673153784125
1761507099944126700,8.847126708984375,0.1453372762173414,0.5852357370443642,0.12092371484758331
1761507099954099000,8.857098876953126,0.272093186083436,0.5856637531980872,0.03522151724053547
1761507099964070000,8.86706982421875,0.16958850489854813,0.6088361006014049,0.006640022536367178
1761507099974041000,8.877041015625,-0.025330256089568137,0.6764895408965647,-0.08751611516121774
1761507099984013000,8.887012939453125,-0.13405600374639035,0.7092118069335818,-0.18738467568885533
1761507099993984000,8.89698388671875,-0.16866846744418143,0.6819120043367147,-0.3084679102133959
1761507100003956000,8.9069560546875,-0.08384381985664367,0.5653437264859676,-0.4256551236800849
1761507100013927000,8.916927001953125,0.14478139590024947,0.4650856551840901,-0.383191142764315
1761507100023899100,8.926899169921874,0.3759440211802721,0.40841333536952734,-0.21677313939435405
1761507100033870000,8.9368701171875,0.46019291470646856,0.45487522681504483,-0.0007854512892663478
1761507100043842000,8.946842041015625,0.448311922776699,0.6228666717804968,0.08994063889440149
1761507100053814000,8.95681396484375,0.4429021726876497,0.6688853495031595,0.15371679936479776
1761507100063785000,8.966784912109375,0.20051672712564467,0.5758297569260001,0.07876914694085717
1761507100073757000,8.9767568359375,0.14696575420200825,0.6232347744405269,-0.007168576455116271
1761507100083728100,8.98672802734375,-0.1233522389024496,0.6273273044511676,0.05506409916663542
1761507100093699800,8.996699951171875,-0.4319342039495706,0.6778818720377981,0.05305475037191063
1761507100103672000,9.006672119140624,-0.6152437756866216,0.655940381603688,0.01689268261194229
1761507100113643000,9.01664306640625,-0.5976894142955541,0.6256696003720164,-0.010212127135787159
1761507100123615000,9.026614990234375,-0.4978267720520496,0.6400419707261026,0.019687373098079115
