time,seconds_elapsed,z,y,x
1761507091169131800,0.0721318359375,0.011445056647062302,0.01356469001621008,0.014224497601389885
1761507091179103500,0.082103515625,0.008050858043134212,0.038729697465896606,-0.013530701398849487
1761507091189075700,0.09207568359375,0.011982260271906853,0.04084893316030502,-0.03085414320230484
1761507091199046700,0.102046630859375,0.013203052803874016,0.02471284195780754,-0.03462944179773331
1761507091209018600,0.1120185546875,0.02228483557701111,-0.0058265915140509605,-0.03271990641951561
1761507091218989600,0.121989501953125,0.022863540798425674,-0.04011346027255058,-0.012520893476903439
1761507091228962600,0.131962646484375,0.02153502032160759,-0.06553716212511063,0.0029799859039485455
1761507091238933800,0.141933837890625,0.026512466371059418,-0.0784420445561409,0.014767137356102467
1761507091248905700,0.15190576171875,0.030851205810904503,-0.0708066076040268,0.022623518481850624
1761507091258877700,0.161877685546875,0.034298136830329895,-0.05951613560318947,0.010172974318265915
1761507091268848600,0.1718486328125,0.03397127240896225,-0.04354909807443619,-0.004523840732872486
1761507091278820900,0.18182080078125,0.02254151925444603,-0.02941596694290638,-0.02569517120718956
1761507091288791600,0.19179150390625,0.008839909918606281,-0.025124652311205864,-0.047175511717796326
1761507091298763800,0.201763671875,-0.0028806617483496666,-0.016644347459077835,-0.05436897277832031
1761507091308735500,0.211735595703125,-0.0045149060897529125,-0.005406349431723356,-0.058670613914728165
1761507091318706700,0.221706787109375,0.001116081140935421,0.001509347464889288,-0.0640944093465805
1761507091328678700,0.2316787109375,0.007706070318818092,0.0026400783099234104,-0.07292728871107101
1761507091338649900,0.24164990234375,0.014227885752916336,0.0031830966472625732,-0.07422052323818207
1761507091348621600,0.25162158203125,0.02083110436797142,0.005582818761467934,-0.07061117142438889
1761507091358592800,0.2615927734375,0.014051495119929314,0.01866985857486725,-0.058708179742097855
1761507091368564500,0.271564453125,0.009083637967705727,0.026429558172822,-0.03918936103582382
1761507091378536700,0.28153662109375,0.0030241478234529495,0.035729847848415375,-0.0192103274166584
1761507091388507600,0.291507568359375,-0.0014438373036682606,0.04292943701148033,-0.014786550775170326
1761507091398479600,0.301479736328125,-0.002466668840497732,0.04668029025197029,-0.018839575350284576
1761507091408450600,0.311450439453125,-0.003540635574609041,0.03949747979640961,-0.038879796862602234
1761507091418422800,0.3214228515625,-0.012941062450408936,0.032439570873975754,-0.0665401890873909
1761507091428394800,0.331394775390625,-0.01872074231505394,0.03320160508155823,-0.09404736757278442
1761507091438365700,0.34136572265625,-0.029923593625426292,0.040172696113586426,-0.1107560396194458
1761507091448338000,0.351337890625,-0.030425120145082474,0.04474114254117012,-0.11989986896514893
1761507091458308600,0.36130859375,-0.030060533434152603,0.05244620144367218,-0.11624228209257126
1761507091468280800,0.37128076171875,-0.03343914449214935,0.04521890729665756,-0.1151462197303772
1761507091478252500,0.38125244140625,-0.0402991808950901,0.02955259568989277,-0.10943453758955002
1761507091488223700,0.3912236328125,-0.06123051792383194,0.005573761649429798,-0.11120763421058655
1761507091498195700,0.40119580078125,-0.07049991190433502,-0.00620886217802763,-0.10596653074026108
1761507091508167000,0.4111669921875,-0.058032549917697906,-0.009861917234957218,-0.11179296672344208
1761507091518138600,0.421138671875,-0.04801294207572937,-0.009672566317021847,-0.11475839465856552
1761507091528110800,0.43111083984375,-0.05578608065843582,-0.0009640873176977038,-0.10929902642965317
1761507091538081500,0.44108154296875,-0.043708913028240204,0.0021392942871898413,-0.1032525822520256
1761507091548053800,0.4510537109375,-0.03262120485305786,0.00826968252658844,-0.09037555754184723
1761507091558024700,0.461024658203125,-0.030430486425757408,0.00005090073682367802,-0.07725948840379715
1761507091567996700,0.47099658203125,-0.03872494027018547,-0.018796026706695557,-0.07306397706270218
1761507091577968600,0.48096875,-0.04263712465763092,-0.04528222605586052,-0.07291723787784576
1761507091587939800,0.49093994140625,-0.04492407664656639,-0.0673866719007492,-0.06944809854030609
1761507091597911600,0.50091162109375,-0.0400848463177681,-0.0747993141412735,-0.06103011593222618
1761507091607882800,0.5108828125,-0.03209034353494644,-0.07339871674776077,-0.050911758095026016
1761507091617854700,0.520854736328125,-0.027787471190094948,-0.06907054781913757,-0.032982029020786285
1761507091627825700,0.53082568359375,-0.030779847875237465,-0.06849444657564163,-0.01978752203285694
1761507091637797600,0.540797607421875,-0.03549311310052872,-0.06613568216562271,-0.007996110245585442
1761507091647769600,0.55076953125,-0.03593812137842178,-0.06673111766576767,0.006159364245831966
1761507091657740500,0.560740478515625,-0.03591761738061905,-0.07467027008533478,0.014110231772065163
1761507091667712800,0.570712646484375,-0.03401917964220047,-0.08817824721336365,0.016150526702404022
1761507091677683700,0.58068359375,-0.028158627450466156,-0.09634482860565186,0.023394856601953506
1761507091687655700,0.59065576171875,-0.023422909900546074,-0.11181091517210007,0.030093595385551453
1761507091697628000,0.6006279296875,-0.017308292910456657,-0.1220928505063057,0.03832169994711876
1761507091707598600,0.6105986328125,-0.004442740697413683,-0.11391012370586395,0.0527476966381073
1761507091717570800,0.62057080078125,0.006520694587379694,-0.0979231670498848,0.06990910321474075
1761507091727541800,0.630541748046875,0.018589479848742485,-0.09133505076169968,0.07679301500320435
1761507091737513700,0.640513671875,0.014733223244547844,-0.09495987743139267,0.05497373268008232
1761507091747485700,0.650485595703125,0.0024256007745862007,-0.10446449369192123,0.016588222235441208
1761507091757457000,0.660456787109375,-0.018165161833167076,-0.1157006323337555,-0.03543476387858391
1761507091767428600,0.6704287109375,-0.03146205469965935,-0.13418926298618317,-0.09684491902589798
1761507091777399800,0.68039990234375,-0.04395228251814842,-0.14769281446933746,-0.1669590324163437
1761507091787371500,0.69037158203125,-0.05880877003073692,-0.1564449667930603,-0.22751037776470184
1761507091797343700,0.70034375,-0.06896926462650299,-0.15242838859558105,-0.26484763622283936
1761507091807314700,0.710314697265625,-0.08668052405118942,-0.09541250765323639,-0.2825765013694763
1761507091817286700,0.72028662109375,-0.1000455990433693,-0.03103937767446041,-0.2622499167919159
1761507091827257600,0.730257568359375,-0.09780379384756088,0.040891315788030624,-0.19103437662124634
1761507091837229800,0.740229736328125,-0.09526927024126053,0.11079796403646469,-0.08598865568637848
1761507091847200500,0.750200439453125,-0.08738608658313751,0.14416994154453278,-0.0012124991044402122
1761507091857172700,0.7601728515625,-0.0818733423948288,0.13632000982761383,0.045557670295238495
1761507091867144700,0.770144775390625,-0.07211441546678543,0.10415536910295486,0.041910260915756226
1761507091877115600,0.78011572265625,-0.066607266664505,0.07643398642539978,-0.0006079056183807552
1761507091887087900,0.790087890625,-0.06310032308101654,0.05430816859006882,-0.06653352081775665
1761507091897058800,0.800058837890625,-0.058964699506759644,0.03812014311552048,-0.13319164514541626
1761507091907030800,0.81003076171875,-0.057912617921829224,0.029434673488140106,-0.17910484969615936
1761507091917002800,0.820002685546875,-0.0490589402616024,0.008362678810954094,-0.19673150777816772
1761507091926973700,0.8299736328125,-0.03881562501192093,-0.01989021711051464,-0.1915077418088913
1761507091936945700,0.839945556640625,-0.017707673832774162,-0.05123588815331459,-0.16695447266101837
1761507091946916900,0.849916748046875,0.01126103475689888,-0.08631754666566849,-0.13406550884246826
1761507091956888600,0.859888671875,0.040960341691970825,-0.11942862719297409,-0.1029222384095192
1761507091966861000,0.869861083984375,0.06691741943359375,-0.1333671361207962,-0.07119108736515045
1761507091976832000,0.87983203125,0.08685251325368881,-0.13880637288093567,-0.039558589458465576
1761507091986804000,0.889803955078125,0.09613797813653946,-0.13606667518615723,-0.02575947716832161
1761507091996775000,0.89977490234375,0.09480879455804825,-0.11498241871595383,-0.020555926486849785
1761507092006747000,0.909746826171875,0.08984426409006119,-0.07993858307600021,-0.010771423578262329
1761507092016718800,0.91971875,0.08369661867618561,-0.03237079828977585,0.0020226689521223307
1761507092026690000,0.92968994140625,0.06972283869981766,0.007872124202549458,0.016567176207900047
1761507092036661800,0.939661865234375,0.06105584651231766,0.0365959107875824,0.02856524847447872
1761507092046633000,0.949633056640625,0.0552588552236557,0.048255182802677155,0.04225065931677818
1761507092056605000,0.95960498046875,0.05272965133190155,0.03329300880432129,0.04318436607718468
1761507092066576100,0.969576171875,0.04126926511526108,0.008074472658336163,0.031131431460380554
1761507092076547800,0.9795478515625,0.029809685423970222,-0.002691089641302824,0.02526555210351944
1761507092086520000,0.98952001953125,0.018630847334861755,-0.00750880828127265,0.019725240767002106
1761507092096490800,0.99949072265625,-0.0022802921012043953,-0.007641699630767107,0.02186695486307144
1761507092106463000,1.009462890625,-0.018142925575375557,0.017248952761292458,0.04004301875829697
1761507092116434000,1.019433837890625,-0.026249052956700325,0.0391494557261467,0.049780335277318954
1761507092126406000,1.029406005859375,-0.027936434373259544,0.05738263204693794,0.04981962963938713
1761507092136378000,1.039378173828125,-0.025362225249409676,0.07246970385313034,0.04126742109656334
1761507092146349000,1.04934912109375,-0.02203207090497017,0.0632624626159668,0.02430339902639389
1761507092156321000,1.059321044921875,-0.024361537769436836,0.03777680918574333,0.005562203004956245
1761507092166292000,1.0692919921875,-0.03428194671869278,0.01575310342013836,-0.0028176521882414818
1761507092176264000,1.079263916015625,-0.036536842584609985,-0.005446191411465406,-0.006061382591724396
1761507092186236000,1.08923583984375,-0.03835827112197876,-0.013757703825831413,-0.004974053706973791
1761507092196207000,1.09920703125,-0.033565912395715714,-0.0017108945176005363,0.0054112090729177
1761507092206178800,1.1091787109375,-0.01875075325369835,0.02026302181184292,0.020392071455717087
1761507092216150000,1.11914990234375,-0.005687415134161711,0.03713307902216911,0.034885529428720474
1761507092226122000,1.1291220703125,0.015095004811882973,0.027162153273820877,0.04877227172255516
1761507092236093000,1.139093017578125,0.023708466440439224,0.009309121407568455,0.057772159576416016
1761507092246065000,1.14906494140625,0.035857412964105606,-0.018392447382211685,0.06682802736759186
1761507092256037000,1.159037109375,0.048733264207839966,-0.043070629239082336,0.08382298797369003
1761507092266007800,1.1690078125,0.055742569267749786,-0.058995477855205536,0.11761058121919632
1761507092275980000,1.17897998046875,0.06265613436698914,-0.06342963874340057,0.15038557350635529
1761507092285951000,1.188950927734375,0.07009865343570709,-0.04959553852677345,0.17557482421398163
1761507092295923000,1.1989228515625,0.0693281963467598,-0.04199966788291931,0.1594075709581375
1761507092305895000,1.20889501953125,0.055821094661951065,-0.05047593265771866,0.08713407814502716
1761507092315866000,1.2188662109375,0.04056544229388237,-0.0782681480050087,-0.007664865348488092
1761507092325837800,1.228837890625,0.024789484217762947,-0.10017209500074387,-0.0955425277352333
1761507092335809000,1.23880908203125,0.0034855275880545378,-0.10949715226888657,-0.1619545817375183
1761507092345780700,1.24878076171875,-0.012837348505854607,-0.1052115336060524,-0.17980457842350006
1761507092355753000,1.2587529296875,-0.028583819046616554,-0.07742464542388916,-0.11761550605297089
1761507092365724000,1.268723876953125,-0.0352703332901001,-0.035719241946935654,-0.0092550590634346
1761507092375696000,1.27869580078125,-0.03900035843253136,0.009671674109995365,0.12217114120721817
1761507092385666800,1.288666748046875,-0.01830475777387619,0.029951859265565872,0.2450064867734909
1761507092395639000,1.29863916015625,0.011335959658026695,0.02132747881114483,0.33895400166511536
1761507092405609700,1.308609619140625,0.044648103415966034,0.004515852779150009,0.3887139856815338
1761507092415582000,1.31858203125,0.0651368722319603,-0.025130722671747208,0.38910335302352905
1761507092425554000,1.328553955078125,0.07569906115531921,-0.0520503856241703,0.36148929595947266
1761507092435524900,1.33852490234375,0.08241422474384308,-0.06280556321144104,0.3280099034309387
1761507092445497000,1.3484970703125,0.07985544949769974,-0.05496382340788841,0.2960936725139618
1761507092455468000,1.358468017578125,0.08034174889326096,-0.04783773794770241,0.2621208131313324
1761507092465440000,1.36843994140625,0.08189091086387634,-0.027585051953792572,0.21810001134872437
1761507092475412000,1.378411865234375,0.08810512721538544,-0.007507214788347483,0.15853308141231537
1761507092485383000,1.3883828125,0.09206995368003845,0.012317206710577011,0.09270960837602615
1761507092495355000,1.39835498046875,0.09528864920139313,0.029188331216573715,0.03866768628358841
1761507092505326000,1.408326171875,0.08919394761323929,0.031877387315034866,-0.030172230675816536
1761507092515297800,1.4182978515625,0.07368449866771698,0.032226528972387314,-0.09925436228513718
1761507092525270000,1.42827001953125,0.060771554708480835,0.05088718235492706,-0.1480921506881714
1761507092535241000,1.438240966796875,0.056142449378967285,0.08218305557966232,-0.17833101749420166
1761507092545213000,1.448212890625,0.056256651878356934,0.105976901948452,-0.18129314482212067
1761507092555183900,1.458183837890625,0.06244876980781555,0.12371035665273666,-0.15824374556541443
1761507092565156000,1.468156005859375,0.0768842101097107,0.12909485399723053,-0.11376611143350601
1761507092575126800,1.478126708984375,0.10053547471761703,0.11504428088665009,-0.06279906630516052
1761507092585099000,1.48809912109375,0.11021019518375397,0.0799802616238594,-0.022204749286174774
1761507092595071000,1.498071044921875,0.11695464700460434,0.048218339681625366,-0.0010877447202801704
1761507092605042000,1.5080419921875,0.12156379967927933,0.019683033227920532,0.006205954123288393
1761507092615014100,1.51801416015625,0.12956872582435608,-0.005151210352778435,0.004858394619077444
1761507092624985000,1.527985107421875,0.13550841808319092,-0.011990268714725971,0.013256268575787544
1761507092634957000,1.53795703125,0.14338019490242004,-0.004464441444724798,0.032397471368312836
1761507092644929000,1.547928955078125,0.1538686454296112,-0.003021643031388521,0.059773921966552734
1761507092654900000,1.55789990234375,0.15529531240463257,0.0025909687392413616,0.0940898135304451
1761507092664872000,1.567871826171875,0.15015199780464172,0.0116252601146698,0.13507534563541412
1761507092674843100,1.577843017578125,0.13881650567054749,0.008781003765761852,0.17842787504196167
1761507092684814800,1.58781494140625,0.12004606425762177,0.007493744604289532,0.2092924863100052
1761507092694787000,1.597787109375,0.10162710398435593,0.00516534224152565,0.23243536055088043
1761507092704758000,1.607758056640625,0.09310351312160492,0.0030821175314486027,0.24252896010875702
1761507092714730000,1.61772998046875,0.08601339161396027,-0.00740381283685565,0.2462398111820221
1761507092724701000,1.627700927734375,0.07729522138834,-0.020988866686820984,0.25098153948783875
1761507092734673000,1.6376728515625,0.06876351684331894,-0.03733694925904274,0.23897308111190796
1761507092744643800,1.647643798828125,0.05952803045511246,-0.06323959678411484,0.2118067443370819
1761507092754616000,1.657615966796875,0.05015210434794426,-0.07380808889865875,0.14942699670791626
1761507092764587800,1.667587890625,0.04640308767557144,-0.07298848032951355,0.06508366763591766
1761507092774559000,1.67755908203125,0.04000218212604523,-0.06535027176141739,-0.025878731161355972
1761507092784531000,1.687531005859375,0.02931332029402256,-0.05558978393673897,-0.099039226770401
1761507092794502100,1.697502197265625,0.021909199655056,-0.05447631701827049,-0.13916854560375214
1761507092804473900,1.707473876953125,0.01075658667832613,-0.06167734041810036,-0.15590253472328186
1761507092814446000,1.717446044921875,-0.00026650307700037956,-0.07549567520618439,-0.15365615487098694
1761507092824416800,1.727416748046875,-0.019565850496292114,-0.08683174848556519,-0.14866897463798523
1761507092834389000,1.737388916015625,-0.045727409422397614,-0.06044941395521164,-0.15006394684314728
1761507092844360000,1.74735986328125,-0.035906121134757996,-0.014373259618878365,-0.17897328734397888
1761507092854332000,1.757331787109375,-0.005746621172875166,0.042182162404060364,-0.2171608954668045
1761507092864302800,1.767302734375,0.010952640324831009,0.09880916774272919,-0.2466631680727005
1761507092874275000,1.777275146484375,0.008225297555327415,0.142534539103508,-0.2534116208553314
1761507092884247000,1.7872470703125,0.020645882934331894,0.15527665615081787,-0.2469697743654251
1761507092894218000,1.797218017578125,0.038580406457185745,0.14953194558620453,-0.21624168753623962
1761507092904190000,1.80718994140625,0.056081853806972504,0.13036619126796722,-0.17938993871212006
1761507092914161000,1.817160888671875,0.07427843660116196,0.10211697965860367,-0.14808021485805511
1761507092924133000,1.827133056640625,0.09806730598211288,0.06963051110506058,-0.13176293671131134
1761507092934104800,1.837104736328125,0.11115434020757675,0.0468924418091774,-0.13820885121822357
1761507092944076000,1.847075927734375,0.11271394044160843,0.04321764409542084,-0.15509358048439026
1761507092954048000,1.857048095703125,0.11084333807229996,0.0389547236263752,-0.1685020625591278
1761507092964018400,1.867018310546875,0.10673846304416656,0.04386821389198303,-0.19635489583015442
1761507092973990400,1.876990478515625,0.1043352261185646,0.044009361416101456,-0.22067300975322723
1761507092983962600,1.886962646484375,0.10272109508514404,0.046258341521024704,-0.23673948645591736
1761507092993933300,1.896933349609375,0.09760089963674545,0.04143615439534187,-0.2502068281173706
1761507093003905500,1.906905517578125,0.09347166121006012,0.029672501608729362,-0.26252859830856323
1761507093013876500,1.91687646484375,0.07641971111297607,0.011698028072714806,-0.2716935873031616
1761507093023848400,1.926848388671875,0.06288765370845795,-0.0031581497751176357,-0.2751200199127197
1761507093033819400,1.9368193359375,0.057270776480436325,-0.013596676290035248,-0.27089038491249084
1761507093043791600,1.94679150390625,0.050645992159843445,-0.022707408294081688,-0.25679221749305725
1761507093053763300,1.956763427734375,0.04893597215414047,-0.023530591279268265,-0.22514668107032776
1761507093063734500,1.966734619140625,0.050836361944675446,-0.022647378966212273,-0.19852030277252197
1761507093073706500,1.97670654296875,0.04383118450641632,-0.02009633742272854,-0.17741768062114716
1761507093083677400,1.986677490234375,0.03684433177113533,-0.021926511079072952,-0.1601148545742035
1761507093093649400,1.9966494140625,0.02757599763572216,-0.02991626039147377,-0.1474379450082779
1761507093103621400,2.006621337890625,0.007355107925832272,-0.04809659719467163,-0.15758541226387024
1761507093113592300,2.01659228515625,-0.012830587103962898,-0.0769660621881485,-0.17833516001701355
1761507093123564500,2.026564453125,-0.03352184221148491,-0.09882987290620804,-0.2101256251335144
1761507093133535500,2.036535400390625,-0.055209558457136154,-0.1142282709479332,-0.2199966311454773
1761507093143507500,2.046507568359375,-0.08169770985841751,-0.11884501576423645,-0.20940516889095306
1761507093153479700,2.056479736328125,-0.10862386971712112,-0.1031414195895195,-0.1800994724035263
1761507093163450400,2.066450439453125,-0.13445386290550232,-0.06854254007339478,-0.1345190852880478
1761507093173422600,2.076422607421875,-0.15183445811271667,-0.017155785113573074,-0.08344870805740356
1761507093183393500,2.0863935546875,-0.16635628044605255,0.03731423616409302,-0.039948660880327225
1761507093193365500,2.096365478515625,-0.17548266053199768,0.07370392978191376,-0.009186755865812302
1761507093203336400,2.10633642578125,-0.18876220285892487,0.08743033558130264,0.0048913778737187386
1761507093213308700,2.11630859375,-0.19893653690814972,0.07900143414735794,0.02519931085407734
1761507093223280400,2.1262802734375,-0.2125588357448578,0.05737150460481644,0.04895341023802757
1761507093233251600,2.13625146484375,-0.22247111797332764,0.02942109853029251,0.07255833595991135
1761507093243223600,2.1462236328125,-0.22868026793003082,-0.0018162467749789357,0.09573965519666672
1761507093253194500,2.156194580078125,-0.24072548747062683,-0.02677086554467678,0.10083428025245667
1761507093263166500,2.16616650390625,-0.2601664364337921,-0.07048484683036804,0.06468898057937622
1761507093273138400,2.176138427734375,-0.28428855538368225,-0.12737822532653809,-0.004116176627576351
1761507093283109400,2.186109375,-0.3039444386959076,-0.17744708061218262,-0.08749131113290787
1761507093293081600,2.19608154296875,-0.3255930244922638,-0.21054591238498688,-0.18117225170135498
1761507093303052500,2.206052490234375,-0.3527827262878418,-0.20586568117141724,-0.26671743392944336
1761507093313024500,2.2160244140625,-0.3774886131286621,-0.15568719804286957,-0.326593816280365
1761507093322995500,2.225995361328125,-0.3931921124458313,-0.06360824406147003,-0.3476642370223999
1761507093332967400,2.235967529296875,-0.39537379145622253,0.04635021463036537,-0.3266623020172119
1761507093342939400,2.245939453125,-0.38255447149276733,0.1451435387134552,-0.26379892230033875
1761507093352910600,2.25591064453125,-0.3681771457195282,0.21415136754512787,-0.18639042973518372
1761507093362882300,2.26588232421875,-0.35099318623542786,0.2408355325460434,-0.09118872135877609
1761507093372853500,2.275853515625,-0.3232496976852417,0.2305845022201538,0.0024967589415609837
1761507093382825500,2.285825439453125,-0.28555798530578613,0.1989838033914566,0.08681311458349228
1761507093392797400,2.29579736328125,-0.24599245190620422,0.1438441276550293,0.14945386350154877
1761507093402768400,2.305768310546875,-0.2030225396156311,0.08220446854829788,0.18048827350139618
1761507093412740400,2.315740234375,-0.16175340116024017,0.005206089001148939,0.18943676352500916
1761507093422711300,2.325711181640625,-0.14562013745307922,-0.058669839054346085,0.18960334360599518
1761507093432683500,2.33568359375,-0.1460169553756714,-0.09597992897033691,0.2035985291004181
1761507093442654500,2.345654541015625,-0.1650453358888626,-0.11491163820028305,0.20733653008937836
1761507093452626400,2.35562646484375,-0.1963028460741043,-0.1258828043937683,0.1834074854850769
1761507093462598700,2.3655986328125,-0.22931241989135742,-0.12598612904548645,0.13996604084968567
1761507093472569300,2.3755693359375,-0.2569997310638428,-0.11426129192113876,0.07379793375730515
1761507093482541600,2.38554150390625,-0.2913816571235657,-0.09945176541805267,-0.016209429129958153
1761507093492512500,2.395512451171875,-0.3261910378932953,-0.08851362764835358,-0.1116134524345398
1761507093502484500,2.405484375,-0.35771888494491577,-0.058987539261579514,-0.16857141256332397
1761507093512456400,2.41545654296875,-0.3834354281425476,-0.034750111401081085,-0.19279739260673523
1761507093522427600,2.425427734375,-0.39827999472618103,-0.00798752997070551,-0.19132579863071442
1761507093532399400,2.4353994140625,-0.40144917368888855,0.01654018461704254,-0.1638912409543991
1761507093542370600,2.44537060546875,-0.3942194879055023,0.029717177152633667,-0.11329056322574615
1761507093552342500,2.455342529296875,-0.3768138587474823,0.04574381187558174,-0.040779341012239456
1761507093562314500,2.465314453125,-0.3612479269504547,0.07084987312555313,0.04233160242438316
1761507093572285400,2.475285400390625,-0.33949950337409973,0.09131626784801483,0.11848948895931244
1761507093582257400,2.48525732421875,-0.3112531900405884,0.0990256816148758,0.18079756200313568
1761507093592228400,2.495228271484375,-0.2819560170173645,0.0999617800116539,0.2278905063867569
1761507093602200600,2.50520068359375,-0.25804051756858826,0.08614743500947952,0.24951326847076416
1761507093612171500,2.515171630859375,-0.23736587166786194,0.07392991334199905,0.2644656002521515
1761507093622143500,2.5251435546875,-0.21953991055488586,0.05500001460313797,0.2672341763973236
1761507093632115500,2.535115478515625,-0.20175932347774506,0.02389722503721714,0.27470913529396057
1761507093642086400,2.54508642578125,-0.19466088712215424,-0.0026428797282278538,0.27643659710884094
1761507093652058400,2.555058349609375,-0.18160180747509003,-0.027916278690099716,0.2623063921928406
1761507093662029600,2.565029541015625,-0.17898418009281158,-0.04804861545562744,0.22727832198143005
1761507093672001300,2.575001220703125,-0.18288330733776093,-0.06198280677199364,0.1611294001340866
1761507093681973500,2.584973388671875,-0.19357311725616455,-0.05822295323014259,0.07631579786539078
1761507093691944400,2.5949443359375,-0.2076399326324463,-0.03779624029994011,-0.0005973571678623557
1761507093701916400,2.60491650390625,-0.2189849466085434,-0.004742099903523922,-0.06885203719139099
1761507093711887400,2.614887451171875,-0.22899550199508667,0.027083473280072212,-0.12497575581073761
1761507093721859300,2.624859375,-0.221196711063385,0.04042171314358711,-0.16961495578289032
1761507093731830300,2.634830322265625,-0.20423290133476257,0.03907282277941704,-0.20664487779140472
1761507093741802500,2.644802490234375,-0.18426230549812317,0.034202687442302704,-0.2170334756374359
1761507093751774500,2.6547744140625,-0.1595257967710495,0.01895076408982277,-0.19607067108154297
1761507093761745400,2.664745361328125,-0.14270944893360138,-0.0164406206458807,-0.16451895236968994
1761507093771717600,2.674717529296875,-0.12265637516975403,-0.05228357017040253,-0.10663966834545135
1761507093781688600,2.6846884765625,-0.09866262227296829,-0.0810079500079155,-0.04655866324901581
1761507093791660500,2.69466064453125,-0.07515383511781693,-0.1051444485783577,-0.005735065788030624
1761507093801631500,2.704631591796875,-0.05254150927066803,-0.11281440407037735,0.013611728325486183
1761507093811603500,2.714603515625,-0.03429965674877167,-0.1121230497956276,0.011588524095714092
1761507093821575400,2.724575439453125,-0.024319510906934738,-0.1148727536201477,-0.016235753893852234
1761507093831546600,2.734546630859375,-0.03143627941608429,-0.11082421243190765,-0.047469574958086014
1761507093841518300,2.744518310546875,-0.045691199600696564,-0.106585793197155,-0.07312413305044174
1761507093851489500,2.754489501953125,-0.05709777772426605,-0.094657763838768,-0.08399568498134613
1761507093861461500,2.76446142578125,-0.06449022889137268,-0.08449582755565643,-0.09165909141302109
1761507093871433500,2.77443359375,-0.06975849717855453,-0.07488368451595306,-0.09321384131908417
1761507093881404400,2.784404296875,-0.07036525011062622,-0.05466288700699806,-0.0816645547747612
1761507093891376400,2.79437646484375,-0.06550205498933792,-0.03637922182679176,-0.05338418111205101
1761507093901347300,2.804347412109375,-0.06252175569534302,-0.018262697383761406,-0.024315929040312767
1761507093911319600,2.814319580078125,-0.058597322553396225,-0.010476678609848022,-0.003570704022422433
1761507093921291300,2.824291259765625,-0.06208495423197746,-0.0148478327319026,0.005934537388384342
1761507093931262500,2.834262451171875,-0.07029654085636139,-0.013535160571336746,-0.0038299423176795244
1761507093941234400,2.844234375,-0.0804310217499733,0.02639009989798069,-0.021542133763432503
1761507093951205400,2.854205322265625,-0.08368460834026337,0.05429283529520035,-0.04390310123562813
1761507093961177000,2.864177001953125,-0.08230939507484436,0.08945204317569733,-0.04922640323638916
1761507093971148300,2.874148193359375,-0.07151427119970322,0.11597872525453568,-0.039270710200071335
1761507093981120000,2.8841201171875,-0.05807245522737503,0.12244727462530136,-0.008678944781422615
1761507093991092200,2.89409228515625,-0.04326821118593216,0.12434238195419312,0.030868463218212128
1761507094001063200,2.904063232421875,-0.024459807202219963,0.08935344964265823,0.07019765675067902
1761507094011035100,2.91403515625,0.0004122513346374035,0.05543942749500275,0.10235852003097534
1761507094021006000,2.924006103515625,0.017902296036481857,0.02584664709866047,0.11373288184404373
1761507094030978300,2.933978271484375,0.03399258106946945,0.002081396523863077,0.09665189683437347
1761507094040950300,2.9439501953125,0.036944251507520676,0.0007102967938408256,0.05552728846669197
1761507094050921200,2.953921142578125,0.03409493714570999,0.020527943968772888,0.010943305678665638
1761507094060893200,2.96389306640625,0.02711891382932663,0.04290638491511345,-0.035374708473682404
1761507094070864100,2.973864013671875,0.019825581461191177,0.0809861272573471,-0.10611332952976227
1761507094080836400,2.98383642578125,0.0029180487617850304,0.13675124943256378,-0.15034210681915283
1761507094090807300,2.993807373046875,-0.008393194526433945,0.19435808062553406,-0.16121019423007965
1761507094100779300,3.003779296875,-0.02801508642733097,0.22163400053977966,-0.1222577765583992
1761507094110751200,3.013751220703125,-0.04707719385623932,0.22592568397521973,-0.04354805126786232
1761507094120722200,3.02372216796875,-0.05830498784780502,0.2077467292547226,0.05523209273815155
1761507094130694100,3.033694091796875,-0.05623145401477814,0.17377863824367523,0.1308480203151703
1761507094140665300,3.043665283203125,-0.04676355794072151,0.138920858502388,0.1415955126285553
1761507094150637000,3.053636962890625,-0.031139062717556953,0.07155299186706543,0.09488900005817413
1761507094160609300,3.063609375,-0.018975254148244858,-0.030525969341397285,0.021105920895934105
1761507094170580200,3.073580322265625,-0.014737632125616074,-0.13005149364471436,-0.03662901371717453
1761507094180552200,3.08355224609375,-0.024649254977703094,-0.17074640095233917,-0.036291785538196564
1761507094190523100,3.093523193359375,-0.022467058151960373,-0.14539682865142822,0.0003791430499404669
1761507094200495400,3.103495361328125,-0.004742433317005634,-0.05844783037900925,0.06341613829135895
1761507094210466000,3.113466064453125,0.02197493240237236,0.04131392017006874,0.15300540626049042
1761507094220438300,3.123438232421875,0.06127914413809776,0.11576706171035767,0.24903817474842072
1761507094230410000,3.133409912109375,0.09805074334144592,0.1507069319486618,0.3317732512950897
1761507094240381200,3.143381103515625,0.12699508666992188,0.14724087715148926,0.3874184489250183
1761507094250353200,3.153353271484375,0.14747586846351624,0.12160635739564896,0.4204232692718506
1761507094260324400,3.163324462890625,0.15496022999286652,0.07782452553510666,0.4395272433757782
1761507094270296000,3.173296142578125,0.1603155881166458,0.03353562951087952,0.4467015266418457
1761507094280268300,3.183268310546875,0.16455592215061188,-0.01871347241103649,0.4343549609184265
1761507094290239000,3.193239013671875,0.1616746485233307,-0.0733756497502327,0.3932493329048157
1761507094300211200,3.203211181640625,0.15391837060451508,-0.09734393656253815,0.3252042233943939
1761507094310182100,3.21318212890625,0.14518240094184875,-0.11703561991453171,0.24221505224704742
1761507094320154000,3.223154052734375,0.1338920295238495,-0.11854603886604309,0.15874117612838745
1761507094330126300,3.233126220703125,0.1198292225599289,-0.11724454909563065,0.08894664794206619
1761507094340097300,3.24309716796875,0.10824870318174362,-0.10583990067243576,0.05001210421323776
1761507094350069200,3.2530693359375,0.10026668012142181,-0.09079543501138687,0.02690199390053749
1761507094360040200,3.263040283203125,0.09817502647638321,-0.07201828807592392,0.01955220103263855
1761507094370012200,3.27301220703125,0.10417752712965012,-0.05596182495355606,0.01696280762553215
1761507094379983000,3.282983154296875,0.11715804040431976,-0.0441732294857502,0.018242068588733673
1761507094389955300,3.292955322265625,0.1385677307844162,-0.030785519629716873,0.01094554178416729
1761507094399927000,3.302927001953125,0.14394038915634155,-0.006155852228403091,-0.00951630249619484
1761507094409898200,3.312898193359375,0.1455814242362976,0.029385630041360855,-0.018397144973278046
1761507094419870200,3.3228701171875,0.14692814648151398,0.07528041303157806,-0.0038113093469291925
1761507094429841200,3.332841064453125,0.1480589210987091,0.11334177851676941,0.03661893680691719
1761507094439813000,3.342813232421875,0.15921933948993683,0.12903162837028503,0.09003377705812454
1761507094449785300,3.352785400390625,0.17456446588039398,0.10893302410840988,0.1352987140417099
1761507094459756000,3.362756103515625,0.1914539784193039,0.06322332471609116,0.15878407657146454
1761507094469728300,3.372728271484375,0.19268861413002014,-0.008435417897999287,0.1468334048986435
1761507094479699200,3.38269921875,0.183954656124115,-0.07929643988609314,0.09866512566804886
1761507094489671200,3.392671142578125,0.17607168853282928,-0.1337524950504303,0.031059984117746353
1761507094499642000,3.40264208984375,0.1672583520412445,-0.15274876356124878,-0.03111250326037407
1761507094509614300,3.4126142578125,0.15999218821525574,-0.13050684332847595,-0.0701427236199379
1761507094519586300,3.42258642578125,0.1499561071395874,-0.09048576653003693,-0.08585762232542038
1761507094529557200,3.43255712890625,0.14158739149570465,-0.057322483509778976,-0.0789848044514656
1761507094539529200,3.442529296875,0.12875913083553314,-0.03956575319170952,-0.05598059669137001
1761507094549500200,3.452500244140625,0.11725053936243057,-0.019013073295354843,-0.03556134179234505
1761507094559472400,3.462472412109375,0.11192754656076431,-0.011898273602128029,-0.021879935637116432
1761507094569444000,3.472444091796875,0.1142202615737915,0.0007578661316074431,-0.013696840964257717
1761507094579415300,3.482415283203125,0.11977753043174744,0.014620999805629253,-0.014459296129643917
1761507094589387300,3.49238720703125,0.12352991849184036,0.030187973752617836,-0.022226139903068542
1761507094599358200,3.502358154296875,0.13523687422275543,0.044806864112615585,-0.019417336210608482
1761507094609330200,3.512330078125,0.1413022130727768,0.05011853948235512,-0.009742338210344315
1761507094619301400,3.52230126953125,0.1514887511730194,0.03623831272125244,0.016815518960356712
1761507094629273000,3.532273193359375,0.1560523509979248,0.005142978858202696,0.032667987048625946
1761507094639245300,3.542245361328125,0.17052383720874786,-0.04850374907255173,0.04406888037919998
1761507094649216300,3.55221630859375,0.18630866706371307,-0.10457155108451843,0.03528844192624092
1761507094659188200,3.562188232421875,0.19585232436656952,-0.15382729470729828,0.01763300411403179
1761507094669159200,3.5721591796875,0.19058725237846375,-0.1883341372013092,-0.017911940813064575
1761507094679131400,3.58213134765625,0.17251308262348175,-0.20963068306446075,-0.06328851729631424
1761507094689103000,3.59210302734375,0.13556358218193054,-0.2196124792098999,-0.13036474585533142
1761507094699074300,3.60207421875,0.09431478381156921,-0.21493394672870636,-0.1909935027360916
1761507094709046000,3.6120458984375,0.05424432456493378,-0.16742075979709625,-0.24986906349658966
1761507094719017200,3.622017333984375,0.033401891589164734,-0.08744172006845474,-0.27757611870765686
1761507094728989200,3.6319892578125,0.01868446357548237,-0.008913620375096798,-0.2826728820800781
1761507094738960400,3.64196044921875,0.007830575108528137,0.05037904903292656,-0.2729842960834503
1761507094748932000,3.65193212890625,0.0013311300426721573,0.07163906842470169,-0.25176501274108887
1761507094758904300,3.661904296875,-0.007349844556301832,0.05707535892724991,-0.22506967186927795
1761507094768875000,3.671875,-0.020207053050398827,0.04727412760257721,-0.19668331742286682
1761507094778847200,3.68184716796875,-0.027053726837038994,0.05489907041192055,-0.17351166903972626
1761507094788818200,3.691818115234375,-0.018686609342694283,0.062108781188726425,-0.16995608806610107
1761507094798790100,3.7017900390625,-0.009342290461063385,0.074762262403965,-0.17791302502155304
1761507094808762400,3.711762451171875,0.003963395953178406,0.08497682213783264,-0.19242778420448303
1761507094818733300,3.7217333984375,0.024036439135670662,0.08527935296297073,-0.21394532918930054
1761507094828705300,3.731705322265625,0.033257633447647095,0.07806351780891418,-0.22365441918373108
1761507094838676200,3.74167626953125,0.049540821462869644,0.0581541545689106,-0.21498961746692657
1761507094848648200,3.751648193359375,0.05992341786623001,0.027627404779195786,-0.19607612490653992
1761507094858619100,3.761619140625,0.06554713845252991,-0.004606813658028841,-0.16140970587730408
1761507094868591400,3.77159130859375,0.07212886959314346,-0.0317649319767952,-0.1259228140115738
1761507094878563000,3.78156298828125,0.08164998143911362,-0.06049526855349541,-0.08674459904432297
1761507094888534300,3.7915341796875,0.08130882680416107,-0.08424640446901321,-0.0657447800040245
1761507094898506200,3.80150634765625,0.08365000039339066,-0.1104331985116005,-0.06225001439452171
1761507094908477200,3.811477294921875,0.07809384912252426,-0.13702726364135742,-0.07357697188854218
1761507094918449200,3.82144921875,0.06229514628648758,-0.1584014892578125,-0.08499345928430557
1761507094928421400,3.83142138671875,0.03390078991651535,-0.1630883812904358,-0.09213046729564667
1761507094938392000,3.84139208984375,0.0021401564590632915,-0.15328668057918549,-0.07972060889005661
1761507094948364300,3.8513642578125,-0.028399642556905746,-0.1255650371313095,-0.05503949895501137
1761507094958335200,3.861335205078125,-0.05550379678606987,-0.09672687202692032,-0.032843902707099915
1761507094968307700,3.8713076171875,-0.08268001675605774,-0.07224337011575699,-0.014392192475497723
1761507094978278700,3.881278564453125,-0.11018683016300201,-0.06000562012195587,-0.011145064607262611
1761507094988250600,3.891250732421875,-0.14418740570545197,-0.06827899813652039,-0.030108369886875153
1761507094998222600,3.90122265625,-0.17506879568099976,-0.08099634200334549,-0.05184930935502052
1761507095008193800,3.91119384765625,-0.19861353933811188,-0.10632912814617157,-0.07067573070526123
1761507095018165500,3.92116552734375,-0.2168867290019989,-0.12131340056657791,-0.06549368798732758
1761507095028136700,3.93113671875,-0.22573456168174744,-0.10570967197418213,-0.02296699769794941
1761507095038108700,3.941108642578125,-0.22568422555923462,-0.0751962810754776,0.04862412065267563
1761507095048080600,3.95108056640625,-0.2337895631790161,-0.030516691505908966,0.13519816100597382
1761507095058051600,3.961051513671875,-0.25550854206085205,0.004514520987868309,0.20352602005004883
1761507095068023800,3.97102392578125,-0.2918822467327118,-0.007834557443857193,0.20856046676635742
1761507095077994500,3.980994384765625,-0.32316073775291443,-0.050786279141902924,0.14223502576351166
1761507095087966700,3.990966796875,-0.35502251982688904,-0.09442190825939178,0.036561064422130585
1761507095097937700,4.000937744140625,-0.3850659132003784,-0.10221564769744873,-0.08309955149888992
1761507095107908600,4.01090869140625,-0.41981175541877747,-0.07165737450122833,-0.1719723790884018
1761507095117880600,4.020880615234375,-0.4528718590736389,-0.010430177673697472,-0.21424813568592072
1761507095127851800,4.030851806640625,-0.47293078899383545,0.06010284274816513,-0.2075425684452057
1761507095137823500,4.040823486328125,-0.4778873920440674,0.1269008219242096,-0.1552838832139969
1761507095147795700,4.050795654296875,-0.4771425127983093,0.17071782052516937,-0.0814269557595253
1761507095157766700,4.0607666015625,-0.46778619289398193,0.19936588406562805,-0.012212549336254597
1761507095167738600,4.070738525390625,-0.44938695430755615,0.2004670947790146,0.05527834594249725
1761507095177709600,4.08070947265625,-0.4217427670955658,0.1848050355911255,0.10019079595804214
1761507095187681800,4.090681884765625,-0.3938456177711487,0.16323529183864594,0.1273246705532074
1761507095197652500,4.100652587890625,-0.37010684609413147,0.12430687248706818,0.14941349625587463
1761507095207624700,4.110624755859375,-0.35165274143218994,0.07477927207946777,0.15132857859134674
1761507095217596400,4.120596435546875,-0.3317594528198242,0.029182953760027885,0.15286825597286224
1761507095227567600,4.130567626953125,-0.31341853737831116,-0.010000934824347496,0.1536211371421814
1761507095237539600,4.14053955078125,-0.29857975244522095,-0.04206191748380661,0.15172268450260162
1761507095247510800,4.1505107421875,-0.29265955090522766,-0.06334536522626877,0.1509072184562683
1761507095257482500,4.160482421875,-0.2918003499507904,-0.0624428391456604,0.1390826404094696
1761507095267454700,4.170454833984375,-0.29908809065818787,-0.04463561251759529,0.12114198505878448
1761507095277425400,4.18042529296875,-0.30243000388145447,-0.014770605601370335,0.09892699122428894
1761507095287397600,4.190397705078125,-0.31500303745269775,0.006538410671055317,0.08077062666416168
1761507095297368600,4.20036865234375,-0.32691678404808044,0.019245099276304245,0.07037467509508133
1761507095307340500,4.210340576171875,-0.3353653848171234,0.02998243272304535,0.06880953907966614
1761507095317311500,4.2203115234375,-0.3366982042789459,0.030372263863682747,0.06846032291650772
1761507095327283700,4.23028369140625,-0.3419922888278961,0.03287030756473541,0.05864151567220688
1761507095337255700,4.240255615234375,-0.34685051441192627,0.028008831664919853,0.045138757675886154
1761507095347226600,4.2502265625,-0.3561992943286896,0.020565297454595566,0.018056541681289673
1761507095357198600,4.260198486328125,-0.3589121401309967,0.020560331642627716,-0.00584557605907321
1761507095367169500,4.27016943359375,-0.357504665851593,0.040002208203077316,-0.008358534425497055
1761507095377141800,4.280141845703125,-0.35195255279541016,0.06429966539144516,0.011462153866887093
1761507095387113500,4.290113525390625,-0.34155476093292236,0.08037956058979034,0.0472680889070034
1761507095397084700,4.300084716796875,-0.33496376872062683,0.08566898107528687,0.09276937693357468
1761507095407056600,4.310056640625,-0.3187105059623718,0.08474113047122955,0.13227230310440063
1761507095417027600,4.320027587890625,-0.30610182881355286,0.05849796161055565,0.1562088578939438
1761507095426999600,4.32999951171875,-0.3015608787536621,0.024291254580020905,0.16163557767868042
1761507095436970800,4.339970703125,-0.303224116563797,0.0001210598275065422,0.13859525322914124
1761507095446942500,4.3499423828125,-0.30383265018463135,-0.014043495059013367,0.09633461385965347
1761507095456914700,4.359914794921875,-0.31370437145233154,-0.019753482192754745,0.04145992919802666
1761507095466886400,4.369886474609375,-0.32625290751457214,0.004858653526753187,-0.013934355229139328
1761507095476857600,4.379857666015625,-0.3414357900619507,0.055625900626182556,-0.06818784028291702
1761507095486829600,4.38982958984375,-0.36228007078170776,0.1087181493639946,-0.12206412106752396
1761507095496800800,4.39980078125,-0.36894509196281433,0.15020513534545898,-0.16374386847019196
1761507095506772500,4.4097724609375,-0.37239253520965576,0.16130013763904572,-0.195404052734375
1761507095516744700,4.41974462890625,-0.35624510049819946,0.13488270342350006,-0.21339599788188934
1761507095526715400,4.42971533203125,-0.32610368728637695,0.08462779223918915,-0.20797087252140045
1761507095536687600,4.4396875,-0.28812873363494873,0.029203295707702637,-0.1786598265171051
1761507095546658600,4.449658447265625,-0.25210893154144287,-0.019923768937587738,-0.15369375050067902
1761507095556630500,4.459630615234375,-0.2230701446533203,-0.05934366583824158,-0.14199262857437134
1761507095566601500,4.4696015625,-0.19099903106689453,-0.06920348107814789,-0.146501362323761
1761507095576573700,4.47957373046875,-0.16134588420391083,-0.04908681660890579,-0.156515434384346
1761507095586545700,4.489545654296875,-0.13661710917949677,-0.008174272254109383,-0.16035836935043335
1761507095596516600,4.4995166015625,-0.12071724236011505,0.04473927617073059,-0.14292238652706146
1761507095606488800,4.50948876953125,-0.09457644820213318,0.071700319647789,-0.11390378326177597
1761507095616459500,4.51945947265625,-0.06856171041727066,0.08289917558431625,-0.07728592306375504
1761507095626431700,4.529431640625,-0.04342573136091232,0.06863848119974136,-0.04060167446732521
1761507095636403500,4.539403564453125,-0.01697339490056038,0.04272698238492012,-0.018521973863244057
1761507095646374700,4.549374755859375,0.0003896155394613743,0.011930456385016441,-0.00584506057202816
1761507095656346600,4.5593466796875,0.006688653025776148,-0.017754727974534035,-0.014988393522799015
1761507095666317800,4.56931787109375,0.006165608298033476,-0.0371587872505188,-0.03663616627454758
1761507095676289500,4.57928955078125,0.005259012803435326,-0.04622028395533562,-0.06527844816446304
1761507095686261800,4.58926171875,0.008550679311156273,-0.04670204967260361,-0.09445364773273468
1761507095696232400,4.599232421875,0.013892371207475662,-0.0507793128490448,-0.12028932571411133
1761507095706204700,4.60920458984375,0.022469881922006607,-0.0581783726811409,-0.1328360140323639
1761507095716175600,4.619175537109375,0.03495216369628906,-0.06225349009037018,-0.13447676599025726
1761507095726147600,4.629147705078125,0.04451051726937294,-0.06696701794862747,-0.12779197096824646
1761507095736118500,4.639118408203125,0.045508354902267456,-0.07086481899023056,-0.12078842520713806
1761507095746090800,4.6490908203125,0.04527346417307854,-0.06916679441928864,-0.11982915550470352
1761507095756062700,4.659062744140625,0.043823011219501495,-0.05269209295511246,-0.11604718863964081
1761507095766033700,4.66903369140625,0.04968249797821045,-0.023715302348136902,-0.09796619415283203
1761507095776005600,4.679005615234375,0.06835822761058807,-0.0007280668942257762,-0.07696754485368729
1761507095785976600,4.6889765625,0.0906427651643753,0.011319807730615139,-0.048209402710199356
1761507095795948800,4.69894873046875,0.10543417185544968,0.006204781122505665,-0.020123058930039406
1761507095805920500,4.70892041015625,0.12268320471048355,-0.00432162918150425,-0.002841539680957794
1761507095815891700,4.7188916015625,0.12926281988620758,-0.014822913333773613,0.00789494626224041
1761507095825863700,4.72886376953125,0.1408180147409439,-0.010080888867378235,0.014511036686599255
1761507095835834600,4.738834716796875,0.14631739258766174,0.0009039112483151257,0.02057705633342266
1761507095845806600,4.748806640625,0.15319687128067017,0.024488599970936775,0.02321065589785576
1761507095855778800,4.75877880859375,0.16196177899837494,0.047529153525829315,0.041864730417728424
1761507095865749500,4.76874951171875,0.1649237424135208,0.06157386675477028,0.06360917538404465
1761507095875721700,4.7787216796875,0.1607334315776825,0.04827573895454407,0.076955147087574
1761507095885692700,4.788692626953125,0.1542092263698578,-0.0030564232729375362,0.06094369664788246
1761507095895664600,4.79866455078125,0.14430995285511017,-0.0972423106431961,0.009682339616119862
1761507095905635600,4.808635498046875,0.13480672240257263,-0.18522702157497406,-0.055626094341278076
1761507095915607800,4.81860791015625,0.11478035897016525,-0.2257627695798874,-0.11100324243307114
1761507095925579500,4.82857958984375,0.10367017984390259,-0.22500883042812347,-0.1403595358133316
1761507095935550700,4.83855078125,0.09329593926668167,-0.1807955950498581,-0.12667900323867798
1761507095945522400,4.8485224609375,0.07845520973205566,-0.10546167939901352,-0.062155138701200485
1761507095955493600,4.85849365234375,0.060245394706726074,-0.002310520736500621,0.02769305557012558
1761507095965465900,4.8684658203125,0.04276334121823311,0.10701250284910202,0.12674960494041443
1761507095975437800,4.878437744140625,0.04043947532773018,0.19545724987983704,0.2116849571466446
1761507095985408800,4.88840869140625,0.046617474406957626,0.24837131798267365,0.2684187889099121
1761507095995381000,4.898381103515625,0.05327807739377022,0.25540533661842346,0.30242010951042175
1761507096005351700,4.9083515625,0.06360794603824615,0.22342555224895477,0.33161473274230957
1761507096015324000,4.918323974609375,0.0683525875210762,0.1551176756620407,0.3380434811115265
1761507096025294800,4.928294921875,0.06972064822912216,0.06816306710243225,0.3319821357727051
1761507096035266800,4.938266845703125,0.07815693318843842,-0.02874510921537876,0.3077896237373352
1761507096045238800,4.94823876953125,0.09177207946777344,-0.1250162571668625,0.2658296823501587
1761507096055210000,4.9582099609375,0.10883766412734985,-0.1987621784210205,0.21064138412475586
1761507096065181700,4.968181640625,0.11528970301151276,-0.24823065102100372,0.1672888547182083
1761507096075153000,4.97815283203125,0.1287888139486313,-0.27023741602897644,0.14491517841815948
1761507096085124600,4.98812451171875,0.1472754180431366,-0.2813403904438019,0.13748948276042938
1761507096095096800,4.998096923828125,0.16493257880210876,-0.26177892088890076,0.12918029725551605
1761507096105067800,5.00806787109375,0.18597660958766937,-0.22622251510620117,0.10272844135761261
1761507096115039700,5.018039794921875,0.20680545270442963,-0.17594517767429352,0.06372476369142532
1761507096125010700,5.0280107421875,0.23014754056930542,-0.11283091455698013,0.013079959899187088
1761507096134983000,5.03798291015625,0.25387468934059143,-0.029925111681222916,-0.029681619256734848
1761507096144955000,5.047954833984375,0.28544700145721436,0.0617653951048851,-0.05723761022090912
1761507096154925800,5.05792578125,0.32013139128685,0.1427701860666275,-0.06904824078083038
1761507096164897800,5.067897705078125,0.3568449318408966,0.19268740713596344,-0.07653038948774338
1761507096174868700,5.07786865234375,0.3884199261665344,0.2095532864332199,-0.06112007424235344
1761507096184841000,5.087841064453125,0.4182196259498596,0.19284461438655853,-0.0373055562376976
1761507096194812000,5.09781201171875,0.44601133465766907,0.14195899665355682,-0.011040564626455307
1761507096204783900,5.107783935546875,0.4655730426311493,0.08799774944782257,0.018094684928655624
1761507096214755800,5.117755859375,0.48655423521995544,0.04549172520637512,0.04599088430404663
1761507096224727000,5.12772705078125,0.5061809420585632,0.031198006123304367,0.06339304149150848
1761507096234698800,5.13769873046875,0.521899402141571,0.03075442835688591,0.05638318508863449
1761507096244670000,5.147669921875,0.5343288779258728,0.040177490562200546,0.02617468312382698
1761507096254641700,5.1576416015625,0.5364748239517212,0.05902639031410217,0.006713213864713907
1761507096264614000,5.16761376953125,0.5263111591339111,0.08286647498607635,0.005806673783808947
1761507096274584800,5.177584716796875,0.5170443654060364,0.10883262008428574,0.039950400590896606
1761507096284556800,5.187556884765625,0.5144277811050415,0.13003751635551453,0.09325143694877625
1761507096294527700,5.19752783203125,0.5128950476646423,0.12103910744190216,0.14669129252433777
1761507096304500000,5.2075,0.50499427318573,0.08680363744497299,0.17446298897266388
1761507096314470700,5.217470703125,0.4864072799682617,0.04115183651447296,0.1748168021440506
1761507096324443000,5.22744287109375,0.4541899561882019,-0.012585158459842205,0.1536710411310196
1761507096334414800,5.237414794921875,0.41663628816604614,-0.0645977109670639,0.1333402395248413
1761507096344385800,5.2473857421875,0.3746259808540344,-0.10144440829753876,0.11677458137273788
1761507096354357800,5.257357666015625,0.33545392751693726,-0.11567499488592148,0.0833091288805008
1761507096364329000,5.267328857421875,0.2987787127494812,-0.11742282658815384,0.04725845158100128
1761507096374300700,5.27730078125,0.26009416580200195,-0.10597512125968933,-0.00013102462980896235
1761507096384273000,5.28727294921875,0.21997418999671936,-0.0922182947397232,-0.05864999443292618
1761507096394243800,5.297243896484375,0.17546679079532623,-0.06218744069337845,-0.11715494841337204
1761507096404215800,5.3072158203125,0.13895352184772491,-0.03215283900499344,-0.17288264632225037
1761507096414187000,5.31718701171875,0.10431836545467377,-0.00971698947250843,-0.2096124291419983
1761507096424158700,5.32715869140625,0.08005137741565704,0.007933909073472023,-0.2260928601026535
1761507096434130000,5.3371298828125,0.06255307048559189,0.004947973415255547,-0.21857289969921112
1761507096444102000,5.347101806640625,0.05043356120586395,-0.017014317214488983,-0.20036086440086365
1761507096454073900,5.357073974609375,0.038652315735816956,-0.03493510186672211,-0.180930033326149
1761507096464044800,5.367044921875,0.03735135868191719,-0.0261666439473629,-0.1638578325510025
1761507096474017000,5.37701708984375,0.037385180592536926,0.009103729389607906,-0.17149551212787628
1761507096483987700,5.38698779296875,0.04531385749578476,0.053641583770513535,-0.18209441006183624
1761507096493960000,5.3969599609375,0.04625453054904938,0.10479365289211273,-0.1892816126346588
1761507096503931600,5.406931640625,0.052321743220090866,0.1433815360069275,-0.18889279663562775
1761507096513902800,5.41690283203125,0.05815801024436951,0.14578856527805328,-0.17794734239578247
1761507096523874800,5.426874755859375,0.06691848486661911,0.125993549823761,-0.16139738261699677
1761507096533846000,5.436845947265625,0.08509966731071472,0.09674516320228577,-0.14367590844631195
1761507096543817700,5.446817626953125,0.10003387182950974,0.08940468728542328,-0.1457478404045105
1761507096553789000,5.456788818359375,0.10886429250240326,0.04989872872829437,-0.14972102642059326
1761507096563760600,5.4667607421875,0.11986473947763443,0.03739252686500549,-0.16352100670337677
1761507096573732900,5.47673291015625,0.11767882108688354,0.042962945997714996,-0.17180569469928741
1761507096583703800,5.486703857421875,0.116243377327919,0.05550616979598999,-0.1603674292564392
1761507096593675800,5.49667578125,0.11415661126375198,0.08219429105520248,-0.15220771729946136
1761507096603646700,5.506646728515625,0.10815704613924026,0.10467030853033066,-0.13534565269947052
1761507096613619000,5.516618896484375,0.10620082169771194,0.10024605691432953,-0.1117960512638092
1761507096623591000,5.5265908203125,0.10133203119039536,0.07908537238836288,-0.10281214118003845
1761507096633561900,5.536561767578125,0.08777184039354324,0.0432523749768734,-0.11529942601919174
1761507096643533800,5.546533935546875,0.07606884092092514,0.0003656266489997506,-0.1344480812549591
1761507096653504800,5.5565048828125,0.057870157063007355,-0.02733042649924755,-0.15670843422412872
1761507096663477000,5.56647705078125,0.03739337623119354,-0.03732580319046974,-0.1838497668504715
1761507096673448000,5.576447998046875,0.021752910688519478,-0.038781821727752686,-0.20653952658176422
1761507096683420000,5.586419921875,0.005523340776562691,-0.022403912618756294,-0.20443031191825867
1761507096693392000,5.596391845703125,-0.011727102100849152,-0.013796690851449966,-0.1901080310344696
1761507096703362800,5.60636279296875,-0.02658567763864994,-0.005626911297440529,-0.1600302904844284
1761507096713334800,5.616334716796875,-0.03167156130075455,-0.01939432881772518,-0.1257305145263672
1761507096723306000,5.626305908203125,-0.03778192400932312,-0.05013200268149376,-0.09418429434299469
1761507096733277700,5.636277587890625,-0.038797467947006226,-0.08875210583209991,-0.06461555510759354
1761507096743250000,5.64625,-0.05375431478023529,-0.12342939525842667,-0.052274998277425766
1761507096753220900,5.656220947265625,-0.06895608454942703,-0.14486438035964966,-0.051853619515895844
1761507096763192800,5.66619287109375,-0.09073754400014877,-0.14691340923309326,-0.06104765087366104
1761507096773163800,5.676163818359375,-0.11748504638671875,-0.1423732489347458,-0.0884135290980339
1761507096783136000,5.686135986328125,-0.14991143345832825,-0.11999684572219849,-0.11352180689573288
1761507096793106700,5.696106689453125,-0.18464481830596924,-0.09113425016403198,-0.13416792452335358
1761507096803079000,5.706078857421875,-0.21746774017810822,-0.056121669709682465,-0.14544987678527832
1761507096813050600,5.716050537109375,-0.2532498240470886,-0.024075213819742203,-0.14071282744407654
1761507096823021800,5.726021728515625,-0.2756664454936981,-0.0008298117900267243,-0.10426241159439087
1761507096832993800,5.735993896484375,-0.28740471601486206,0.017950808629393578,-0.04577450454235077
1761507096842965000,5.745965087890625,-0.2990081012248993,0.03018590435385704,0.019912099465727806
1761507096852936700,5.755936767578125,-0.3135751485824585,0.02860073745250702,0.07292893528938293
1761507096862909000,5.765908935546875,-0.3286164104938507,-0.006526090204715729,0.08692118525505066
1761507096872879600,5.775879638671875,-0.35279881954193115,-0.08988004177808762,0.04324891045689583
1761507096882851800,5.785851806640625,-0.3827849328517914,-0.17185400426387787,-0.04694915935397148
1761507096892822800,5.79582275390625,-0.42316100001335144,-0.18701322376728058,-0.14288751780986786
1761507096902794800,5.805794677734375,-0.46528714895248413,-0.10674766451120377,-0.216807022690773
1761507096912765700,5.815765625,-0.4877554476261139,0.01419095415621996,-0.25210559368133545
1761507096922738000,5.825738037109375,-0.4933225214481354,0.1305287480354309,-0.2530800402164459
1761507096932710000,5.8357099609375,-0.48305967450141907,0.2011648416519165,-0.2143688052892685
1761507096942680800,5.845680908203125,-0.45063382387161255,0.21086673438549042,-0.14630773663520813
1761507096952653000,5.855653076171875,-0.4087241291999817,0.16496336460113525,-0.07284324616193771
1761507096962623700,5.865623779296875,-0.3701658248901367,0.10953659564256668,0.005692843813449144
1761507096972596200,5.87559619140625,-0.3333025872707367,0.06589590758085251,0.07507434487342834
1761507096982568000,5.88556787109375,-0.30943480134010315,0.01697470434010029,0.0974331796169281
1761507096992539100,5.8955390625,-0.29148393869400024,0.00032840215135365725,0.0965099111199379
1761507097002511000,5.905510986328125,-0.27387166023254395,0.008703777566552162,0.08453633636236191
1761507097012482000,5.91548193359375,-0.24943794310092926,0.028620917350053787,0.07303719222545624
1761507097022454000,5.9254541015625,-0.22995451092720032,0.03074265643954277,0.06623228639364243
1761507097032425200,5.93542529296875,-0.21467439830303192,0.009370630607008934,0.07814258337020874
1761507097042397000,5.94539697265625,-0.1965246945619583,-0.024632077664136887,0.10935643315315247
1761507097052369200,5.955369140625,-0.18480651080608368,-0.05887793004512787,0.14732564985752106
1761507097062340000,5.965340087890625,-0.17685379087924957,-0.09075623750686646,0.17949263751506805
1761507097072312000,5.97531201171875,-0.17449280619621277,-0.11523329466581345,0.19919155538082123
1761507097082283000,5.985282958984375,-0.17436443269252777,-0.13965794444084167,0.18516682088375092
1761507097092255200,5.995255126953125,-0.1830906867980957,-0.14750318229198456,0.14861780405044556
1761507097102226000,6.005225830078125,-0.19541393220424652,-0.1340014934539795,0.09757912158966064
1761507097112198100,6.0151982421875,-0.20649783313274384,-0.1068061888217926,0.06251033395528793
1761507097122169900,6.025169921875,-0.22017556428909302,-0.05815716087818146,0.05580556020140648
1761507097132141000,6.03514111328125,-0.22818279266357422,-0.011278457939624786,0.06862547993659973
1761507097142113000,6.045113037109375,-0.22829917073249817,0.02515278570353985,0.09677695482969284
1761507097152084200,6.055084228515625,-0.22326040267944336,0.03490029275417328,0.12733669579029083
1761507097162056000,6.065055908203125,-0.2211274653673172,0.022352278232574463,0.1440964937210083
1761507097172028200,6.075028076171875,-0.2139407843351364,-0.003642644267529249,0.15290330350399017
1761507097181998800,6.084998779296875,-0.21351681649684906,-0.032087069004774094,0.15856705605983734
1761507097191971000,6.09497119140625,-0.21461986005306244,-0.0473056398332119,0.15536293387413025
1761507097201942000,6.10494189453125,-0.21648406982421875,-0.0482337512075901,0.1504984050989151
1761507097211914000,6.1149140625,-0.2139260172843933,-0.028053704649209976,0.146722212433815
1761507097221885200,6.12488525390625,-0.2116764336824417,0.0007390615646727383,0.14192639291286469
1761507097231857200,6.134857177734375,-0.21326656639575958,0.030030641704797745,0.1365087628364563
1761507097241829000,6.1448291015625,-0.21585862338542938,0.047594718635082245,0.13824594020843506
1761507097251800000,6.154800048828125,-0.21015173196792603,0.0627363920211792,0.14759789407253265
1761507097261772000,6.16477197265625,-0.2049894630908966,0.06690103560686111,0.15017476677894592
1761507097271743000,6.174742919921875,-0.19816187024116516,0.0650191456079483,0.1491224318742752
1761507097281715200,6.184715087890625,-0.19739088416099548,0.050215162336826324,0.13694432377815247
1761507097291687000,6.19468701171875,-0.19424250721931458,0.03264587000012398,0.12188003957271576
1761507097301658000,6.204658203125,-0.18484607338905334,0.017702871933579445,0.09821812063455582
1761507097311630000,6.214630126953125,-0.17600761353969574,0.01663578487932682,0.060460034757852554
1761507097321601300,6.224601318359375,-0.17555034160614014,0.01994955539703369,0.012850969098508358
1761507097331573000,6.234572998046875,-0.17544811964035034,0.03648534044623375,-0.027637610211968422
1761507097341544200,6.244544189453125,-0.18138937652111053,0.05104644224047661,-0.06905987858772278
1761507097351516000,6.254515869140625,-0.177307590842247,0.05613638088107109,-0.08979780226945877
1761507097361488100,6.264488037109375,-0.16547410190105438,0.03655655309557915,-0.1180904284119606
1761507097371459000,6.274458984375,-0.144766166806221,0.00279337540268898,-0.11733075231313705
1761507097381431000,6.28443115234375,-0.1255575716495514,-0.02921915240585804,-0.11029308289289474
1761507097391402000,6.294402099609375,-0.10194576531648636,-0.06974033266305923,-0.09802141040563583
1761507097401374200,6.304374267578125,-0.08960654586553574,-0.09612613171339035,-0.07515817880630493
1761507097411345000,6.314344970703125,-0.08278188109397888,-0.10542759299278259,-0.03925621137022972
1761507097421317000,6.324317138671875,-0.06872545182704926,-0.1060267984867096,-0.021227680146694183
1761507097431289000,6.3342890625,-0.062344737350940704,-0.09643462300300598,-0.011661838740110397
1761507097441260000,6.344260009765625,-0.05907997488975525,-0.08161280304193497,-0.011398718692362309
1761507097451232300,6.354232177734375,-0.059074774384498596,-0.0644313171505928,-0.018435008823871613
1761507097461203200,6.364203125,-0.05783720314502716,-0.05568017065525055,-0.026627691462635994
1761507097471175200,6.374175048828125,-0.06301319599151611,-0.05003170669078827,-0.03244594857096672
1761507097481147100,6.384147216796875,-0.06129119545221329,-0.04509074613451958,-0.02496992237865925
1761507097491118000,6.3941181640625,-0.059587880969047546,-0.04479992762207985,-0.011856548488140106
1761507097501090000,6.404090087890625,-0.0601830929517746,-0.045325372368097305,-0.001035858760587871
1761507097511061200,6.414061279296875,-0.06478450447320938,-0.03823725879192352,0.012103790417313576
1761507097521033000,6.424032958984375,-0.06533817946910858,-0.025175251066684723,0.012143471278250217
1761507097531005200,6.434005126953125,-0.06410039961338043,-0.009426475502550602,0.008243019692599773
1761507097540976000,6.44397607421875,-0.0646601989865303,0.0066361138597130775,-0.010372743010520935
1761507097550948000,6.453947998046875,-0.06455480307340622,0.008715328760445118,-0.03495170176029205
1761507097560919000,6.4639189453125,-0.06645657122135162,0.015142335556447506,-0.05305001139640808
1761507097570891300,6.473891357421875,-0.06930806487798691,0.019632061943411827,-0.05927246809005737
1761507097580862000,6.483862060546875,-0.06792854517698288,0.02463587559759617,-0.05057405307888985
1761507097590834200,6.493834228515625,-0.06333570182323456,0.037651427090168,-0.035482894629240036
1761507097600806000,6.503805908203125,-0.050748541951179504,0.06118099391460419,-0.020684242248535156
1761507097610777000,6.513777099609375,-0.0388864204287529,0.08324453234672546,-0.008623510599136353
1761507097620749000,6.5237490234375,-0.023806802928447723,0.10052259266376495,-0.011724229902029037
1761507097630720300,6.53372021484375,-0.005228465888649225,0.10147228837013245,-0.023365342989563942
1761507097640692000,6.54369189453125,0.014745774678885937,0.09382449090480804,-0.037404198199510574
1761507097650663200,6.5536630859375,0.028540827333927155,0.07106728106737137,-0.0436270609498024
1761507097660635000,6.563634765625,0.046718496829271317,0.06186791881918907,-0.036377403885126114
1761507097670607000,6.573607177734375,0.0474412739276886,0.1278383731842041,-0.04617355018854141
1761507097680578000,6.583578125,0.0578201487660408,0.16398492455482483,-0.07753439992666245
1761507097690550000,6.593550048828125,0.07165242731571198,0.21313916146755219,-0.0946936160326004
1761507097700521000,6.60352099609375,0.08024165779352188,0.2604081332683563,-0.12512315809726715
1761507097710493200,6.6134931640625,0.08920177817344666,0.24581953883171082,-0.13016769289970398
1761507097720465200,6.623465087890625,0.10780289769172668,0.19968880712985992,-0.10631322115659714
1761507097730436000,6.63343603515625,0.12792834639549255,0.12929992377758026,-0.06971273571252823
1761507097740408000,6.643407958984375,0.15189599990844727,0.03891861438751221,-0.02824997529387474
1761507097750379000,6.65337890625,0.1757829785346985,-0.0492669902741909,0.005210856441408396
1761507097760351200,6.663351318359375,0.18143847584724426,-0.11425530910491943,0.009116915054619312
1761507097770322200,6.673322265625,0.17023403942584991,-0.16166828572750092,-0.04229012876749039
1761507097780294100,6.683294189453125,0.1546713262796402,-0.19798873364925385,-0.14782534539699554
1761507097790266000,6.69326611328125,0.13928109407424927,-0.20185904204845428,-0.25505369901657104
1761507097800237000,6.703237060546875,0.13090172410011292,-0.1568385660648346,-0.32395100593566895
1761507097810209000,6.713208984375,0.12537024915218353,-0.08153226226568222,-0.34165453910827637
1761507097820180200,6.72318017578125,0.12888295948505402,0.003105387557297945,-0.288108766078949
1761507097830152000,6.73315185546875,0.1463586688041687,0.05843857675790787,-0.16627910733222961
1761507097840124200,6.743124267578125,0.17554718255996704,0.068832628428936,-0.011679415591061115
1761507097850095000,6.75309521484375,0.2110171616077423,0.03943318501114845,0.1555078774690628
1761507097860067000,6.763067138671875,0.2464987188577652,-0.015054289251565933,0.29709377884864807
1761507097870038000,6.7730380859375,0.2648369073867798,-0.06357782334089279,0.3950446546077728
1761507097880010200,6.78301025390625,0.27092328667640686,-0.094851054251194,0.4370078146457672
1761507097889981000,6.79298095703125,0.2601271867752075,-0.1190149337053299,0.43934693932533264
1761507097899953200,6.802953125,0.2548612952232361,-0.1435847282409668,0.41172969341278076
1761507097909924900,6.8129248046875,0.24838463962078094,-0.17651130259037018,0.37427809834480286
1761507097919896000,6.82289599609375,0.23703797161579132,-0.19401413202285767,0.3224146366119385
1761507097929868000,6.832867919921875,0.22101999819278717,-0.18880268931388855,0.2445506900548935
1761507097939839200,6.842839111328125,0.20040686428546906,-0.15586631000041962,0.15765653550624847
1761507097949811000,6.85281103515625,0.18495413661003113,-0.10372466593980789,0.07724624127149582
1761507097959782100,6.8627822265625,0.1622440218925476,-0.03770329803228378,0.011610508896410465
1761507097969753000,6.872753173828125,0.13826420903205872,0.035068489611148834,-0.03639356046915054
1761507097979725000,6.88272509765625,0.12212252616882324,0.09505565464496613,-0.06455115973949432
1761507097989696000,6.892696044921875,0.12677080929279327,0.13286657631397247,-0.07419940084218979
1761507097999668200,6.902668212890625,0.1400109827518463,0.1531180441379547,-0.06163141503930092
1761507098009639000,6.912638916015625,0.16314555704593658,0.14867658913135529,-0.0318601168692112
1761507098019611100,6.922611083984375,0.1835525631904602,0.12742163240909576,-0.0027730711735785007
1761507098029583000,6.9325830078125,0.20137332379817963,0.10884454846382141,0.028714152052998543
1761507098039554000,6.942553955078125,0.22056272625923157,0.09046927094459534,0.06368065625429153
1761507098049526300,6.9525263671875,0.23129509389400482,0.08226199448108673,0.08847153186798096
1761507098059497200,6.962497314453125,0.2420254945755005,0.054715052247047424,0.1247592344880104
1761507098069469200,6.97246923828125,0.2588822543621063,0.01933933235704899,0.16270600259304047
1761507098079440100,6.982440185546875,0.2771901786327362,-0.04102201387286186,0.1785411536693573
1761507098089412000,6.992412109375,0.2944701015949249,-0.09916926920413971,0.1679897904396057
1761507098099384000,7.002384033203125,0.3056524395942688,-0.14524808526039124,0.1403437852859497
1761507098109355300,7.012355224609375,0.3065488636493683,-0.18040984869003296,0.11687418073415756
1761507098119327000,7.022326904296875,0.295888215303421,-0.18770983815193176,0.10860799252986908
1761507098129298200,7.032298095703125,0.27767857909202576,-0.16130246222019196,0.11963508278131485
1761507098139270100,7.042270263671875,0.25337353348731995,-0.10897214710712433,0.11710400879383087
1761507098149242000,7.0522421875,0.2247319519519806,-0.022323166951537132,0.09319715946912766
1761507098159213000,7.062213134765625,0.1923774778842926,0.071173757314682,0.0556657612323761
1761507098169185300,7.072185302734375,0.16412484645843506,0.1415928453207016,0.025447946041822433
1761507098179156000,7.082156005859375,0.13556110858917236,0.16207601130008698,0.001977241598069668
1761507098189128200,7.092128173828125,0.11624670773744583,0.13890962302684784,-0.00852175522595644
1761507098199099100,7.10209912109375,0.10105709731578827,0.09555868059396744,0.00020702171605080366
1761507098209071000,7.112071044921875,0.08922755718231201,0.03665781021118164,0.012798681855201721
1761507098219043000,7.12204296875,0.08918788284063339,-0.021851040422916412,0.027042865753173828
1761507098229014300,7.13201416015625,0.08905250579118729,-0.06229940056800842,0.0383061058819294
1761507098238986000,7.141986083984375,0.08890629559755325,-0.08293437212705612,0.04842505231499672
1761507098248957200,7.151957275390625,0.08115596324205399,-0.08180614560842514,0.04795275256037712
1761507098258929000,7.161928955078125,0.06912220269441605,-0.07229014486074448,0.03554721921682358
1761507098268900000,7.171900146484375,0.050641730427742004,-0.04838438332080841,0.007148721255362034
1761507098278872000,7.1818720703125,0.023625027388334274,-0.022905390709638596,-0.03683631494641304
1761507098288844000,7.191843994140625,-0.0010200077667832375,-0.0023523252457380295,-0.08593570441007614
1761507098298815000,7.20181494140625,-0.022334884852170944,0.020496798679232597,-0.13683857023715973
1761507098308787200,7.211787109375,-0.03573443740606308,0.040833376348018646,-0.17264580726623535
1761507098318758000,7.2217578125,-0.04402405768632889,0.06403350085020065,-0.1785670816898346
1761507098328730000,7.231730224609375,-0.05144499987363815,0.09058452397584915,-0.17107336223125458
1761507098338702000,7.2417021484375,-0.054225336760282516,0.11190632730722427,-0.15127888321876526
1761507098348673000,7.251673095703125,-0.060173917561769485,0.11772294342517853,-0.1375456601381302
1761507098358645200,7.261645263671875,-0.07257385551929474,0.13587051630020142,-0.12626025080680847
1761507098368616200,7.2716162109375,-0.07113689929246902,0.16469044983386993,-0.12356919795274734
1761507098378588200,7.281588134765625,-0.0685025006532669,0.19120222330093384,-0.13046438992023468
1761507098388559000,7.29155908203125,-0.08441094309091568,0.22020664811134338,-0.12947583198547363
1761507098398531000,7.301531005859375,-0.06694167107343674,0.2320643812417984,-0.13817903399467468
1761507098408503000,7.3115029296875,-0.028504664078354836,0.22437620162963867,-0.1357339471578598
1761507098418474200,7.32147412109375,-0.008909124881029129,0.20035821199417114,-0.11362677812576294
1761507098428446000,7.331446044921875,-0.006074364762753248,0.16083018481731415,-0.09253890812397003
1761507098438417200,7.341417236328125,0.00996452197432518,0.1089068055152893,-0.07960925996303558
1761507098448389000,7.35138916015625,0.02737107314169407,0.07337986677885056,-0.08016698062419891
1761507098458361000,7.361361083984375,0.03905489295721054,0.0618118979036808,-0.07003284990787506
1761507098468332000,7.37133203125,0.04830280691385269,0.061866652220487595,-0.06031958386301994
1761507098478304300,7.38130419921875,0.05318464711308479,0.05516853556036949,-0.0527077354490757
1761507098488275000,7.39127490234375,0.05602823197841644,0.04798136278986931,-0.051008157432079315
1761507098498247200,7.4012470703125,0.05728604644536972,0.018366480246186256,-0.05610864236950874
1761507098508218000,7.411218017578125,0.0526663139462471,-0.009968237951397896,-0.0613805316388607
1761507098518190000,7.421190185546875,0.04675489664077759,-0.03940868377685547,-0.06912314146757126
1761507098528162300,7.431162353515625,0.0364452600479126,-0.060735058039426804,-0.0724392831325531
1761507098538133200,7.44113330078125,0.02966645173728466,-0.06388584524393082,-0.06732335686683655
1761507098548105200,7.451105224609375,0.021787753328680992,-0.05960523709654808,-0.06513302773237228
1761507098558076200,7.461076171875,0.011039767414331436,-0.05242881551384926,-0.06288078427314758
1761507098568048000,7.471048095703125,-0.0006792438216507435,-0.04913816973567009,-0.061592940241098404
1761507098578019000,7.48101904296875,-0.01315988227725029,-0.028001192957162857,-0.05928371101617813
1761507098587991300,7.4909912109375,-0.024083148688077927,-0.024502599611878395,-0.06339273601770401
1761507098597963000,7.500962890625,-0.04240303486585617,-0.028786826878786087,-0.05353797599673271
1761507098607934200,7.510934326171875,-0.062210872769355774,-0.030571775510907173,-0.03986954689025879
1761507098617906200,7.52090625,-0.08419020473957062,-0.037670962512493134,-0.02508101426064968
1761507098627877000,7.530877197265625,-0.09985842555761337,-0.037573713809251785,-0.012599635869264603
1761507098637849000,7.54084912109375,-0.11404028534889221,-0.03753003850579262,-0.01237246859818697
1761507098647821300,7.5508212890625,-0.12273453176021576,-0.027482030913233757,-0.007932460866868496
1761507098657792000,7.5607919921875,-0.12719213962554932,-0.0028390022926032543,0.010380499996244907
1761507098667764200,7.57076416015625,-0.13627460598945618,0.01998979225754738,0.031858671456575394
1761507098677735200,7.580735107421875,-0.13976015150547028,0.03235857933759689,0.05824074521660805
1761507098687707100,7.59070703125,-0.14629881083965302,0.019121263176202774,0.0776941105723381
1761507098697678000,7.600677978515625,-0.15036572515964508,-0.0004037035396322608,0.09788166731595993
1761507098707650300,7.610650390625,-0.15454789996147156,-0.019546236842870712,0.11295359581708908
1761507098717622000,7.6206220703125,-0.1599208265542984,-0.024744993075728416,0.127071812748909
1761507098727593200,7.63059326171875,-0.17416182160377502,-0.0669434666633606,0.1017836481332779
1761507098737565000,7.64056494140625,-0.19353258609771729,-0.1465136557817459,0.03240935876965523
1761507098747536100,7.6505361328125,-0.21190232038497925,-0.1989227533340454,-0.038455285131931305
1761507098757508000,7.660508056640625,-0.23411041498184204,-0.20426586270332336,-0.09399151057004929
1761507098767480000,7.67047998046875,-0.25735828280448914,-0.16118593513965607,-0.12886789441108704
1761507098777451000,7.680450927734375,-0.287523090839386,-0.09285800158977509,-0.14614833891391754
1761507098787423200,7.69042333984375,-0.31024423241615295,-0.03122830204665661,-0.15122836828231812
1761507098797394000,7.700393798828125,-0.31235238909721375,0.018990661948919296,-0.14518965780735016
1761507098807366100,7.7103662109375,-0.30417051911354065,0.05353362485766411,-0.12822005152702332
1761507098817337000,7.720337158203125,-0.2889806628227234,0.08017242699861526,-0.10537277907133102
1761507098827309000,7.73030908203125,-0.2771645486354828,0.09316752851009369,-0.07122284173965454
1761507098837281300,7.74028125,-0.25846144556999207,0.10878057777881622,-0.016245875507593155
1761507098847252200,7.750252197265625,-0.23145543038845062,0.12443038076162338,0.05237017199397087
1761507098857224200,7.76022412109375,-0.20270927250385284,0.12568846344947815,0.12472426146268845
1761507098867195100,7.770195068359375,-0.170017272233963,0.10278403759002686,0.18749898672103882
1761507098877167000,7.7801669921875,-0.14287753403186798,0.05793161317706108,0.2310722917318344
1761507098887138000,7.790137939453125,-0.11451149731874466,-0.004518814384937286,0.2533957064151764
1761507098897110300,7.8001103515625,-0.0977543517947197,-0.06951539218425751,0.2482219785451889
1761507098907082000,7.81008203125,-0.08516886830329895,-0.12402615696191788,0.229354590177536
1761507098917053200,7.82005322265625,-0.08607301115989685,-0.1546463668346405,0.2069251835346222
1761507098927025200,7.830025146484375,-0.09076958894729614,-0.14280644059181213,0.1849704533815384
1761507098936996000,7.83999609375,-0.10240494459867477,-0.11641797423362732,0.15977348387241364
1761507098946968000,7.849968017578125,-0.11367987841367722,-0.09389013051986694,0.13256467878818512
1761507098956940300,7.859940185546875,-0.13357208669185638,-0.08915530145168304,0.09582452476024628
1761507098966911700,7.869911865234375,-0.14573711156845093,-0.09958343952894211,0.06578196585178375
1761507098976884000,7.879884033203125,-0.1561460644006729,-0.1096738874912262,0.04348091781139374
1761507098986855000,7.88985498046875,-0.16623611748218536,-0.10081573575735092,0.025676550343632698
1761507098996827000,7.899826904296875,-0.17365382611751556,-0.07787632942199707,0.02544272504746914
1761507099006797800,7.9097978515625,-0.1773386150598526,-0.05230610445141792,0.033164650201797485
1761507099016769800,7.919769775390625,-0.18266306817531586,-0.022938361391425133,0.045612797141075134
1761507099026741800,7.92974169921875,-0.1792316734790802,-0.0020623174495995045,0.06794138252735138
1761507099036713000,7.939712890625,-0.16998519003391266,0.008545851334929466,0.08978942036628723
1761507099046684700,7.9496845703125,-0.16441313922405243,0.013270247727632523,0.10551747679710388
1761507099056656000,7.95965576171875,-0.1529351770877838,0.009800680913031101,0.12388263642787933
1761507099066627800,7.9696279296875,-0.14525747299194336,0.010079566389322281,0.1383497714996338
1761507099076599800,7.979599853515625,-0.15324774384498596,0.05575304478406906,0.13184046745300293
1761507099086570800,7.98957080078125,-0.16408982872962952,0.07594417035579681,0.10230342298746109
1761507099096542700,7.999542724609375,-0.1668318212032318,0.09315618127584457,0.08790291845798492
1761507099106513700,8.009513671875,-0.1739865392446518,0.09596475958824158,0.07667139172554016
1761507099116484900,8.01948486328125,-0.17759272456169128,0.0768914669752121,0.07254163175821304
1761507099126456800,8.029456787109375,-0.17528492212295532,0.05103525519371033,0.06662973761558533
1761507099136428800,8.0394287109375,-0.16806082427501678,-0.005235742777585983,0.07161730527877808
1761507099146399700,8.049399658203125,-0.15559019148349762,-0.06969866156578064,0.08326609432697296
1761507099156371700,8.059371826171875,-0.15688635408878326,-0.12609481811523438,0.1003718450665474
1761507099166342700,8.0693427734375,-0.1669057309627533,-0.15536904335021973,0.12570777535438538
1761507099176315000,8.07931494140625,-0.18100130558013916,-0.1583605706691742,0.13537584245204926
1761507099186285800,8.089285888671874,-0.1976371854543686,-0.13416467607021332,0.11895272880792618
1761507099196257800,8.0992578125,-0.20929917693138123,-0.09255784749984741,0.0662333220243454
1761507099206230000,8.10922998046875,-0.2196597158908844,-0.039489198476076126,-0.009668255224823952
1761507099216200700,8.11920068359375,-0.23307937383651733,0.002836951520293951,-0.08755213767290115
1761507099226173000,8.1291728515625,-0.24478502571582794,0.025978228077292442,-0.14683619141578674
1761507099236143900,8.139143798828124,-0.2515749931335449,0.019662806764245033,-0.18211695551872253
1761507099246115800,8.14911572265625,-0.251106858253479,-0.007584972307085991,-0.18059636652469635
1761507099256087800,8.159087890625,-0.23544558882713318,-0.03212706744670868,-0.13746008276939392
1761507099266059000,8.16905908203125,-0.2129753828048706,-0.05398810654878616,-0.09320952743291855
1761507099276030700,8.17903076171875,-0.1877637803554535,-0.06569775938987732,-0.06081882864236832
1761507099286002000,8.189001953125,-0.16983743011951447,-0.058185022324323654,-0.03752247616648674
1761507099295974000,8.198973876953126,-0.15624810755252838,-0.035758279263973236,-0.03124966286122799
1761507099305944800,8.20894482421875,-0.14145629107952118,-0.009639539755880833,-0.03813895210623741
1761507099315916800,8.218916748046874,-0.1409071534872055,0.005714115686714649,-0.05175090208649635
1761507099325888800,8.228888671875,-0.13768845796585083,0.009202058427035809,-0.06377881020307541
1761507099335859700,8.238859619140625,-0.12755991518497467,-0.005657048895955086,-0.07472439855337143
1761507099345832000,8.24883203125,-0.11293933540582657,-0.02570256218314171,-0.07724745571613312
1761507099355803000,8.258802978515625,-0.09147612750530243,-0.05692413076758385,-0.07031738013029099
1761507099365774800,8.26877490234375,-0.07032876461744308,-0.08564652502536774,-0.05667250603437424
1761507099375746800,8.278746826171876,-0.05419720709323883,-0.10811641812324524,-0.04965081438422203
1761507099385717800,8.2887177734375,-0.048839546740055084,-0.11820276826620102,-0.0511985644698143
1761507099395689700,8.298689697265624,-0.05139671266078949,-0.10632187873125076,-0.05738295614719391
1761507099405661000,8.308660888671875,-0.045654356479644775,-0.07351913303136826,-0.062088217586278915
1761507099415632600,8.318632568359375,-0.03593488037586212,-0.02885553054511547,-0.05494428798556328
1761507099425603800,8.328603759765626,-0.027110407128930092,0.012508098036050797,-0.039908986538648605
1761507099435575800,8.338575927734375,-0.011406546458601952,0.033974774181842804,-0.025391297414898872
1761507099445547800,8.3485478515625,0.005073269829154015,0.03673626482486725,-0.0142522556707263
1761507099455518700,8.358518798828126,0.02099044993519783,0.031233107671141624,-0.007867326959967613
1761507099465491000,8.368490966796875,0.0379115454852581,0.0195851419121027,-0.003138369182124734
1761507099475461600,8.378461669921874,0.0502300001680851,0.030979743227362633,0.0051272837445139885
1761507099485433900,8.388433837890625,0.06094297021627426,0.051361437886953354,0.025164011865854263
1761507099495405800,8.39840576171875,0.07248138636350632,0.0786479189991951,0.04907786846160889
1761507099505377800,8.408377685546874,0.08718154579401016,0.10004215687513351,0.06911605596542358
1761507099515349000,8.418348876953125,0.10249658674001694,0.10808383673429489,0.07833672314882278
1761507099525320700,8.42832080078125,0.11558402329683304,0.11455830931663513,0.08170222491025925
1761507099535292000,8.4382919921875,0.13047800958156586,0.11902762204408646,0.0791032463312149
1761507099545263900,8.448263916015625,0.1451975703239441,0.13087017834186554,0.08288387209177017
1761507099555234800,8.45823486328125,0.15235482156276703,0.17785526812076569,0.06801410764455795
1761507099565206800,8.468206787109375,0.1605410873889923,0.19971323013305664,0.04556010290980339
1761507099575178800,8.4781787109375,0.1730978935956955,0.2213926911354065,0.04397978261113167
1761507099585149700,8.488149658203126,0.18248529732227325,0.24133653938770294,0.03287128359079361
1761507099595122000,8.498121826171875,0.1948452889919281,0.25366830825805664,0.023691365495324135
1761507099605092900,8.5080927734375,0.2071710228919983,0.23957790434360504,0.033057380467653275
1761507099615064800,8.51806494140625,0.22016404569149017,0.2050580084323883,0.06044692546129227
1761507099625035800,8.528035888671875,0.2374809980392456,0.17228801548480988,0.08971649408340454
1761507099635007700,8.5380078125,0.25628262758255005,0.1292492002248764,0.12132821977138519
1761507099644980000,8.54797998046875,0.273995578289032,0.08504600822925568,0.15551099181175232
1761507099654951000,8.557950927734375,0.2878704071044922,0.03135055676102638,0.16866354644298553
1761507099664923000,8.5679228515625,0.28594645857810974,-0.045933738350868225,0.15569458901882172
1761507099674893800,8.577893798828125,0.28818458318710327,-0.1331986039876938,0.11566540598869324
1761507099684866000,8.587865966796874,0.29004356265068054,-0.18623988330364227,0.07614225149154663
1761507099694837800,8.597837646484376,0.2825547456741333,-0.1843399852514267,0.06512448936700821
1761507099704809000,8.60780908203125,0.2762026786804199,-0.13220278918743134,0.07796233892440796
1761507099714781000,8.617781005859374,0.26734206080436707,-0.06091289594769478,0.12273460626602173
1761507099724752000,8.627751953125,0.25598663091659546,-0.0011613701935857534,0.18445999920368195
1761507099734723800,8.637723876953125,0.2483167201280594,0.018538564443588257,0.22365720570087433
1761507099744695800,8.64769580078125,0.23693951964378357,0.01739836111664772,0.23745842278003693
1761507099754666800,8.657666748046875,0.23396024107933044,0.01636798493564129,0.23723044991493225
1761507099764639000,8.667638916015624,0.2390582412481308,0.02106495015323162,0.24054205417633057
1761507099774610000,8.67760986328125,0.23780229687690735,0.034876901656389236,0.24769450724124908
1761507099784582000,8.687581787109375,0.22270803153514862,0.04411492496728897,0.24084270000457764
1761507099794552800,8.697552734375,0.20710085332393646,0.04926200956106186,0.21992143988609314
1761507099804524800,8.70752490234375,0.18178533017635345,0.007017085794359446,0.20250272750854492
1761507099814496800,8.717496826171875,0.11162674427032471,-0.27257436513900757,0.3431679606437683
1761507099824468000,8.727468017578126,0.08048204332590103,-0.13161017000675201,0.3311121165752411
1761507099834439700,8.737439697265625,0.09879819303750992,-0.06814119219779968,0.17327986657619476
1761507099844411000,8.747410888671874,0.12807224690914154,-0.009925728663802147,0.09966716170310974
1761507099854382800,8.7573828125,0.08453276753425598,0.033703505992889404,0.034042347222566605
1761507099864354800,8.767354736328125,0.02583514153957367,0.09650169312953949,-0.012019679881632328
1761507099874325800,8.77732568359375,-0.015838799998164177,0.12075936049222946,-0.04969062656164169
1761507099884297700,8.787297607421875,-0.023984165862202644,0.12436618655920029,-0.05470820888876915
1761507099894268700,8.7972685546875,-0.0046328394673764706,0.10680317133665085,-0.03314672410488129
1761507099904241000,8.807240966796876,0.03527680039405823,0.07513483613729477,0.010108784772455692
1761507099914211800,8.8172119140625,0.07548840343952179,0.026913778856396675,0.05295265465974808
1761507099924183800,8.827183837890624,0.11002299189567566,-0.04425280913710594,0.08894504606723785
1761507099934156000,8.837156005859375,0.1298089325428009,-0.09256654232740402,0.09719045460224152
1761507099944126700,8.847126708984375,0.14582866430282593,-0.1411341428756714,0.07399895042181015
1761507099954099000,8.857098876953126,0.15739849209785461,-0.16829171776771545,0.06130125746130943
1761507099964070000,8.86706982421875,0.17006102204322815,-0.14768652617931366,0.06699313968420029
1761507099974041000,8.877041015625,0.17508986592292786,-0.08212082087993622,0.06969545036554337
1761507099984013000,8.887012939453125,0.1707422137260437,0.013175816275179386,0.05933893844485283
1761507099993984000,8.89698388671875,0.14275479316711426,0.10328599810600281,0.04299299046397209
1761507100003956000,8.9069560546875,0.11237327009439468,0.15135866403579712,0.020486243069171906
1761507100013927000,8.916927001953125,0.10130251199007034,0.15448574721813202,-0.01400036085397005
1761507100023899100,8.926899169921874,0.11001548171043396,0.08013167977333069,0.0403284952044487
1761507100033870000,8.9368701171875,0.12691883742809296,-0.050718747079372406,0.05184347182512283
1761507100043842000,8.946842041015625,0.13075710833072662,-0.0736238956451416,0.046306706964969635
1761507100053814000,8.95681396484375,0.13655135035514832,-0.07010719180107117,0.025090636685490608
1761507100063785000,8.966784912109375,0.12407302856445312,0.005983998067677021,-0.02385394461452961
1761507100073757000,8.9767568359375,0.12043008953332901,0.12982551753520966,-0.05455885827541351
1761507100083728100,8.98672802734375,0.12679016590118408,0.2203235626220703,-0.05156192556023598
1761507100093699800,8.996699951171875,0.13928838074207306,0.24453994631767273,-0.018145378679037094
1761507100103672000,9.006672119140624,0.1737593114376068,0.21435211598873138,0.021701259538531303
1761507100113643000,9.01664306640625,0.19335432350635529,0.17539086937904358,0.06634728610515594
1761507100123615000,9.026614990234375,0.1801532506942749,0.12029325217008591,0.11275336891412735
