time,seconds_elapsed,z,y,x
1761508023423009300,0.07600927734375,0.09665829324424266,0.1719943969964981,0.05914053655900061
1761508023432981500,0.0859814453125,0.19043664713799952,0.143974755692482,0.10509009456820785
1761508023442953500,0.095953369140625,0.2058750392884016,0.13512450976073742,0.1642240552559495
1761508023452924400,0.10592431640625,0.15460487077832222,0.1426665957033634,0.2246844422418624
1761508023462896400,0.115896484375,0.04530161549448967,0.18323416841328144,0.2480215517528355
1761508023472867600,0.12586767578125,-0.08064999225139617,0.21698738493323325,0.26828875229917465
1761508023482839300,0.13583935546875,-0.17149170817136764,0.24045827689170837,0.27815460501424966
1761508023492810500,0.145810546875,-0.21031272947490215,0.2506780576109886,0.272086244885996
1761508023502782500,0.155782470703125,-0.20709552099406717,0.21702654789984224,0.24618096538744866
1761508023512753400,0.16575341796875,-0.18415245230197905,0.17864508705735205,0.20795681399852037
1761508023522725400,0.175725341796875,-0.1616506976366043,0.15481296057105062,0.1831521161530167
1761508023532696600,0.185696533203125,-0.19676058946251868,0.1323193892121315,0.1459075503859669
1761508023542668300,0.195668212890625,-0.2647241186201572,0.13349661629796028,0.09889387027658522
1761508023552639500,0.205639404296875,-0.3723755150437355,0.1341968735218048,0.05267155974060297
1761508023562611500,0.215611572265625,-0.445355995580554,0.15124503895640373,0.012669292763248085
1761508023572582400,0.22558251953125,-0.49256139886975286,0.17649813815653323,-0.03178345081694424
1761508023582554400,0.235554443359375,-0.47399464556574816,0.1754196952700615,-0.050611120079457755
1761508023592525600,0.245525634765625,-0.37339199860990047,0.17068039178848265,-0.04170644054673612
1761508023602497300,0.255497314453125,-0.27674305771589275,0.15498773261606694,-0.020559388425946235
1761508023612468500,0.265468505859375,-0.2556178521007299,0.13983283358216284,0.012052549104392529
1761508023622440400,0.2754404296875,-0.2571083829194307,0.15415420440137387,0.03037467999756336
1761508023632411400,0.285411376953125,-0.2819581620156765,0.15075111795961857,0.052756826871261
1761508023642383400,0.29538330078125,-0.28814591073989865,0.1670972726047039,0.08156345383450389
1761508023652354600,0.3053544921875,-0.2519499772429466,0.16751754384338854,0.11678820421174167
1761508023662326300,0.315326171875,-0.17965514088273046,0.16978315068781374,0.15944259313307702
1761508023672297500,0.32529736328125,-0.09536825343370436,0.13652502420842647,0.15987681983187793
1761508023682269400,0.33526953125,-0.021757073777914047,0.10203998628258705,0.1345493402212858
1761508023692240400,0.345240478515625,-0.004885433954000473,0.10541267758607864,0.1214776041369885
1761508023702212400,0.35521240234375,0.0004816460371017456,0.09806056125760078,0.10029000081010163
1761508023712183600,0.36518359375,0.002927285623550415,0.11066694485247135,0.05799472752474248
1761508023722155300,0.3751552734375,-0.02586860074996948,0.11216156732439994,0.029719942415878175
1761508023732126500,0.38512646484375,-0.031149171501398086,0.10255495006740092,0.016593772730603813
1761508023742098400,0.395098388671875,0.008234159860014915,0.0870277105897665,0.024698899383470415
1761508023752069400,0.4050693359375,0.04177168780267238,0.07709609916210174,0.029350743777304886
1761508023762041300,0.415041259765625,0.0416360787242651,0.0629155981183052,0.009458367892727255
1761508023772012500,0.425012451171875,0.01842763709425926,0.06064648414254188,-0.016727993569523095
1761508023781984300,0.434984375,-0.04797521861791611,0.07591244233548641,-0.0689374156910926
1761508023791955500,0.44495556640625,-0.11674772607088088,0.10934650990366936,-0.09547178687341511
1761508023801927400,0.454927490234375,-0.19202888476550578,0.15663257721364499,-0.08274111931174993
1761508023811898400,0.4648984375,-0.26172084515094757,0.19802900196313858,-0.06721022657230497
1761508023821870300,0.474870361328125,-0.30268998439908024,0.21658815648257732,-0.04633892265297472
1761508023831841500,0.484841552734375,-0.3247615309536457,0.2109165405869484,-0.039766631590574975
1761508023841813200,0.494813232421875,-0.30865912193655964,0.19739888736605643,-0.047082142235711215
1761508023851785500,0.504785400390625,-0.2504021632790565,0.14953531242907048,-0.06902553236596286
1761508023861756400,0.51475634765625,-0.17034662978947163,0.11064239493310452,-0.09626447162106633
1761508023871726800,0.524726806640625,-0.10545417864024638,0.08159165701568126,-0.09635068859979509
1761508023881698600,0.534698486328125,-0.07075286761522293,0.07663958756625652,-0.08028568898364902
1761508023891670800,0.5446708984375,-0.08091419614553451,0.07624328172504902,-0.08338255902044475
1761508023901641700,0.554641845703125,-0.10844459262788295,0.08337152616977692,-0.08207922133691609
1761508023911613700,0.56461376953125,-0.11855156062245369,0.09683306528925895,-0.08273162083104252
1761508023921584600,0.574584716796875,-0.1275485215485096,0.10461831233799457,-0.09726298113912343
1761508023931556600,0.584556640625,-0.11359598404169081,0.09141162476241588,-0.09864289119020103
1761508023941527600,0.594527587890625,-0.13257424075603486,0.09182546626031399,-0.10229542234838009
1761508023951499800,0.604499755859375,-0.1311123515099287,0.0886918444097042,-0.0817201787661761
1761508023961470700,0.614470703125,-0.07367547706365585,0.06981237189471722,-0.055444458520039916
1761508023971442700,0.624442626953125,-0.02380290039181709,0.0654079994559288,-0.04847279287651181
1761508023981413600,0.63441357421875,0.00038169279396533964,0.06391980672478675,-0.02114222981519997
1761508023991385600,0.644385498046875,-0.010483400091528892,0.09646598554253577,0.03317410145774483
1761508024001356500,0.6543564453125,-0.025422610548138616,0.13691256222128867,0.08362294364757836
1761508024011328800,0.664328857421875,-0.05391513006091118,0.17989011868238447,0.15358305344991385
1761508024021299700,0.6742998046875,-0.131199445271492,0.22443770093917845,0.22851678694635627
1761508024031271700,0.684271728515625,-0.18495324729084966,0.2576595870614052,0.24882395417690276
1761508024041242600,0.69424267578125,-0.16332184571921823,0.26202362748980523,0.2574255591098219
1761508024051214600,0.704214599609375,-0.0665671063631773,0.21843056947886944,0.23512049606032667
1761508024061185500,0.714185546875,0.0030219781696796417,0.1723994706660509,0.19274214760139582
1761508024071157800,0.72415771484375,0.045453591185808176,0.14379296938478947,0.15493096092753111
1761508024081128700,0.734128662109375,0.050938160076737404,0.11556932994127272,0.1308490974638611
1761508024091100700,0.7441005859375,0.05147182856202125,0.11027765327394008,0.11814926343187689
1761508024101071600,0.754071533203125,0.029048984351754188,0.10458324102461337,0.11374123773127794
1761508024111043600,0.764043701171875,-0.03084405107498169,0.1128209080159664,0.12542378447949887
1761508024121014500,0.7740146484375,-0.09624620531201362,0.130397481238842,0.1361958653192967
1761508024130986800,0.78398681640625,-0.14093991804122924,0.13020809614658355,0.12648717592731118
1761508024140957700,0.793957763671875,-0.1620434963464737,0.13742168078720568,0.11016140648312867
1761508024150929700,0.8039296875,-0.16120236934721469,0.12410861022770404,0.09278320537656545
1761508024160900600,0.813900634765625,-0.14891104305088518,0.12135726569294929,0.08998239567689598
1761508024170872600,0.82387255859375,-0.10574936219453811,0.11644845086336135,0.09548040857128798
1761508024180843500,0.833843505859375,-0.06731061820685863,0.102028880366683,0.08199015481397509
1761508024190815700,0.843815673828125,-0.08844634521603584,0.10186404519379139,0.05674472746364772
1761508024200786700,0.85378662109375,-0.1758148320674896,0.11117138724327087,0.03915807123817503
1761508024210758700,0.863758544921875,-0.22094752073585985,0.12405424969196319,0.03178885764442384
1761508024220729600,0.8737294921875,-0.22453239348530768,0.15208207430243492,0.04436440770961344
1761508024230701600,0.88370166015625,-0.2500993809401989,0.1710439644038677,0.05964830341804772
1761508024240672500,0.893672607421875,-0.28777123220860956,0.19229484222531318,0.06389215153288096
1761508024250644700,0.903644775390625,-0.2659527836322784,0.16732055996656417,0.05609473912231624
1761508024260615700,0.91361572265625,-0.20663900939822197,0.1427799929499626,0.026202801140397785
1761508024270587600,0.923587646484375,-0.18448679882287977,0.12081950555443763,0.007236965516209602
1761508024280558600,0.93355859375,-0.16410159792006015,0.11916764669418334,0.010046250783279538
1761508024290530600,0.943530517578125,-0.1313210258245468,0.1752268030464649,0.024552074791304765
1761508024300501500,0.95350146484375,-0.13132628652155398,0.19963409907221794,0.06163688341937959
1761508024310473700,0.9634736328125,-0.10116086536049843,0.1859101096242666,0.08618015384972096
1761508024320445700,0.97344580078125,-0.03153086429536343,0.1724555847674608,0.11224391184560954
1761508024330416600,0.983416748046875,0.06332125630974769,0.14383388591706753,0.14090466406475752
1761508024340388900,0.993388916015625,0.13186287761628626,0.11682722104787825,0.1503505012694746
1761508024350359600,1.003359619140625,0.19001988303065298,0.09971943438053131,0.15685053081326186
1761508024360331800,1.013331787109375,0.20741934612095356,0.09438099596202373,0.1377756087914109
1761508024370302700,1.023302734375,0.2109025120615959,0.08452361881434917,0.09426175349652767
1761508024380274700,1.033274658203125,0.15565467209219933,0.08480185123383999,0.05664663738403469
1761508024390245600,1.04324560546875,0.055630117285251614,0.12521335659921168,0.043853681708499785
1761508024400217900,1.0532177734375,-0.023058219504356384,0.17200024221539498,0.03880775996316224
1761508024410188800,1.063188720703125,-0.09394202002286911,0.1983241855174303,0.046532070604898036
1761508024420160800,1.073160888671875,-0.14104045580625532,0.2239782667338848,0.05740026876293122
1761508024430131700,1.083131591796875,-0.10978080966770648,0.24041443774998186,0.07115761249121279
1761508024440103700,1.093103759765625,0.007283727267384529,0.20696108095943927,0.06129070033021271
1761508024450074600,1.10307470703125,0.12690496294796466,0.17839140455722807,0.02705006561949849
1761508024460046800,1.113046875,0.2523544663906097,0.14392740941941737,-0.02770991776771843
1761508024470017800,1.123017822265625,0.3903741130709648,0.10748013150990009,-0.08367401624768972
1761508024479989800,1.13298974609375,0.4993652336657047,0.09072071988880634,-0.08302819262482225
1761508024489960700,1.142960693359375,0.5369014758557081,0.10044833317697048,-0.08682499109189958
1761508024499932700,1.1529326171875,0.526636686950922,0.1377916831433773,-0.10232475804071872
1761508024509903600,1.162903564453125,0.5163964479655027,0.1896615711122751,-0.18029373104721308
1761508024519875800,1.172875732421875,0.5840595328718423,0.24567045858204364,-0.39873745226860047
1761508024529846800,1.1828466796875,0.8906780888915061,0.24536270780712366,-0.6428733947597444
1761508024539818800,1.19281884765625,1.3005121047139168,0.20112083049863574,-0.7061188093543053
1761508024549789700,1.202789794921875,1.716527439519763,0.2020709708303213,-0.6266064428307115
1761508024559761700,1.21276171875,2.15930394000113,0.21717998489588497,-0.4589065281577408
1761508024569732600,1.222732666015625,2.5791882251948115,0.22669366317242381,-0.3595271759191528
1761508024579704800,1.232704833984375,3.1229274381160734,0.2287532260507345,-0.34686566460356116
1761508024589675800,1.24267578125,3.636362698188424,0.26462445763796566,-0.32448972827494144
1761508024599647700,1.252647705078125,4.090877567258477,0.32231092293113467,-0.24684101846506817
1761508024609618700,1.26261865234375,4.8093771347582335,0.35371319241076704,-0.034343261684838214
1761508024619590700,1.272590576171875,5.528724843519925,0.5628863964617252,-0.237068689252343
1761508024629561600,1.2825615234375,6.513155567342043,0.6846919904440641,-0.6225536603085696
1761508024639533800,1.292533935546875,7.708215831503272,0.5236313676550984,-0.7364652861706912
1761508024649504800,1.3025048828125,8.831684439137577,0.5235115406677127,-0.777389051907137
1761508024659476700,1.312476806640625,9.63238415094018,0.5510206021010875,-0.6690658937018364
1761508024669447700,1.32244775390625,10.053460860788821,0.6536176377445458,-0.3475448059741407
1761508024679419600,1.332419677734375,10.272534988868236,0.9402122273892164,0.05328467753711156
1761508024689390600,1.342390625,10.351766931015252,1.4058438260182737,0.32999650899767874
1761508024699362800,1.35236279296875,10.202698651576041,1.7376804099246859,0.7547323989409953
1761508024709333800,1.362333740234375,10.039303740620612,2.2115976063400504,0.9508072711616754
1761508024719305700,1.3723056640625,9.810129074287413,2.6489398068130017,0.8487124859519303
1761508024729277700,1.382277587890625,9.466631863203645,2.9821976556941867,0.8037222014289349
1761508024739248600,1.39224853515625,9.222698603677749,3.4132042234048243,0.8188792193546891
1761508024749220600,1.402220703125,9.070658030429481,3.7047497134551404,0.7034304470531642
1761508024759191800,1.41219189453125,9.084458007723093,3.8824958058461543,0.3558190786488354
1761508024769163500,1.42216357421875,8.915134291240573,4.0526977664679285,-0.03393310313150286
1761508024779134700,1.432134765625,8.667398716822266,4.216682460010052,-0.6401702732808887
1761508024789106700,1.442106689453125,8.27755067345202,4.329071990871429,-1.1974718553476036
1761508024799077600,1.45207763671875,7.416761526867747,4.766410684213042,-1.2228496038407086
1761508024809049600,1.462049560546875,6.036705929839611,5.5800639856129886,-1.0940081198722122
1761508024819020800,1.472020751953125,4.665447971773148,6.310036548763513,-1.0464625248432158
1761508024828992500,1.481992431640625,3.132583739733696,6.788999045869708,-1.8409817944452165
1761508024838963700,1.491963623046875,0.6219710381150245,6.975184465304016,-3.3938214775428173
1761508024848935700,1.501935791015625,-3.45645270576179,6.853806741344928,-4.130355591166019
1761508024858906600,1.51190673828125,-8.337177751418947,7.090056460630893,-3.7627933216229077
1761508024868878600,1.521878662109375,-11.979686112755536,8.441134384977817,-3.6453812864243984
1761508024878850300,1.531850341796875,-13.594654627507925,9.530711244404316,-3.9729488147094845
1761508024888822000,1.541822021484375,-12.668653880822658,9.22062764262259,-4.1209310524776575
1761508024898793200,1.551793212890625,-10.153306551897526,7.781601385709643,-3.790160928758979
1761508024908765200,1.56176513671875,-7.614894573727249,6.338866921928525,-3.226298088480532
1761508024918736100,1.571736083984375,-6.061119071084261,5.411018501549959,-2.5042282612785693
1761508024928708000,1.5817080078125,-6.095886433082819,4.972941557061672,-2.0783950045526027
1761508024938679300,1.59167919921875,-7.374979902192949,4.854259063535928,-2.287015835417807
1761508024948651000,1.601651123046875,-8.986956249392032,4.789720248129964,-3.2561709564357995
1761508024958622200,1.611622314453125,-9.99564930781126,4.528604967656731,-3.6954426636666056
1761508024968594200,1.62159423828125,-10.321059658062458,4.178494475913047,-3.319360110798478
1761508024978565000,1.631565185546875,-10.246526102864742,3.59729793125689,-2.881980500924587
1761508024988537000,1.641537109375,-9.725120886826515,2.8137884237080812,-2.6706518724054096
1761508024998508300,1.65150830078125,-9.110324270385503,1.8950497769802808,-2.5952742675989864
1761508025008480000,1.66147998046875,-8.246709544986485,0.8884504759699106,-2.596207749056816
1761508025018451200,1.671451171875,-6.917742330160737,0.09631517889499663,-2.536754858613014
1761508025028423200,1.681423095703125,-5.521491969656944,-0.4262520666599273,-2.1099784758180378
1761508025038394000,1.69139404296875,-4.343612557399273,-0.6332979032933712,-1.4384376433700323
1761508025048366000,1.701365966796875,-3.477095096296072,-0.699765056413412,-0.8738163859397172
1761508025058337300,1.711337158203125,-2.805944724470377,-0.7999000858575105,-0.38148411965072154
1761508025068309000,1.72130908203125,-2.241325220605731,-0.9050491440713405,0.04503039733767509
1761508025078280200,1.7312802734375,-1.7294325138002633,-1.0519634603470562,0.42910628704726694
1761508025088252200,1.741252197265625,-1.122940199846029,-1.1225631832271814,0.668231561769545
1761508025098223000,1.75122314453125,-0.5817933415055274,-1.2408452792584896,1.013026119187474
1761508025108195000,1.761195068359375,-0.28477497300207616,-1.5657318978965282,1.4639251358479262
1761508025118166300,1.771166259765625,0.020143208840489386,-1.8958090709149837,1.730757332663238
1761508025128138000,1.781137939453125,0.3388479239732027,-2.3181547777861353,1.8488263704657553
1761508025138109200,1.791109130859375,0.5139607452511787,-2.667263983532786,1.8874442704126237
1761508025148081200,1.8010810546875,0.691896807256341,-2.9662293944507834,1.7862921728804706
1761508025158052000,1.811052001953125,0.9143044636726378,-3.297700067654252,1.7408149085581301
1761508025168024000,1.821024169921875,1.0721516773730515,-3.4902643744707107,1.5993261244624852
1761508025177995300,1.830995361328125,1.3121084344834089,-3.5517069774270054,1.4559011116072536
1761508025187967000,1.840967041015625,1.561356751552224,-3.711387836295366,1.4354171265050768
1761508025197938200,1.850938232421875,1.7501134827792644,-3.8331180269539353,1.4905343258321284
1761508025207910100,1.86091015625,1.9263152683377265,-3.7323178115993736,1.2957663714915513
1761508025217881000,1.870881103515625,2.0198422778189182,-3.20091025698483,1.0431935861751436
1761508025227853000,1.88085302734375,1.6853250765264034,-2.4439935728073117,0.8302648289829492
1761508025237824300,1.89082421875,1.0689601878553627,-1.5134277101635931,0.5700926745787263
1761508025247796000,1.9007958984375,0.1514642346650362,-0.6873971577495336,0.2619327343359589
1761508025257767200,1.91076708984375,-0.9866542450904846,-0.13967559719383715,-0.1025999582529068
1761508025267739100,1.9207392578125,-2.10286893607378,0.26986498863995073,-0.5169543741092085
1761508025277710000,1.9307099609375,-2.901201334223151,0.6468751777470112,-0.8985477993533014
1761508025287682000,1.94068212890625,-3.292401376724243,1.0015344188362358,-1.2386571215644477
1761508025297653200,1.9506533203125,-3.467499584954977,1.4796452675491572,-1.5925287194073199
1761508025307625000,1.960625,-3.6821342692822214,2.139007001903653,-2.191579192923009
1761508025317596200,1.97059619140625,-3.835599322375655,3.129440765532851,-3.1012407992258666
1761508025327568100,1.980568115234375,-3.818627729308605,4.56268142478168,-3.9837390887930986
1761508025337539000,1.9905390625,-3.9726667828977105,6.311452260780334,-4.6687852995023125
1761508025347511000,2.000510986328125,-4.635791669178008,8.222197035020589,-5.233036262315512
1761508025357482200,2.010482177734375,-5.532483319270611,10.103748448002337,-6.1122144675493235
1761508025367454000,2.020453857421875,-6.467855120891333,11.700963863921165,-7.083933593836426
1761508025377425200,2.030425048828125,-7.375276254791021,13.190987317621707,-7.689093782404065
1761508025387397000,2.040397216796875,-8.182589831775426,14.180599243474006,-7.63264942612648
1761508025397369000,2.050369140625,-8.555618842291832,14.11693779542446,-6.9482105336606494
1761508025407340000,2.060340087890625,-8.118803880563378,13.073305525571108,-6.136532916247845
1761508025417312300,2.070312255859375,-6.95236882238388,11.17366199105978,-5.2315124137490985
1761508025427283000,2.080282958984375,-5.119164968463778,8.89098827649951,-3.973348919942975
1761508025437255200,2.090255126953125,-3.2237901973128316,6.576038432234525,-2.517667296305299
1761508025447226000,2.10022607421875,-1.4969997224539517,4.228735301375389,-1.0995260065108536
1761508025457198000,2.110197998046875,-0.08978606938719749,1.977612909376621,0.07979775933623313
1761508025467169000,2.1201689453125,0.8273995026797055,-0.2504126846730709,1.0145245410516857
1761508025477141200,2.130141357421875,1.1431593965321778,-2.673296249434352,1.665651823285222
1761508025487112000,2.14011181640625,0.891515708759427,-4.925091426128149,1.8723516229599713
1761508025497084200,2.150084228515625,0.8548749541044235,-6.854782308378815,2.230548390525579
1761508025507055000,2.16005517578125,1.5569810206860304,-8.417385845121741,2.95501797234565
1761508025517027000,2.170027099609375,2.6778976057499646,-9.483954753926396,3.7751948302954434
1761508025526998000,2.179998046875,3.907705942687392,-9.833628023296594,4.499665288898348
1761508025536970200,2.18997021484375,5.002267020267248,-9.635802434951067,4.977884858682751
1761508025546941000,2.19994091796875,5.661209067904949,-9.181233205345272,5.162278718525171
1761508025556913200,2.2099130859375,5.9052943031221625,-8.563973413661122,4.908728320348263
1761508025566884000,2.219884033203125,5.890327035614848,-7.836391545039415,4.189797667954862
1761508025576856000,2.22985595703125,5.568488114109635,-7.111372220382094,3.343517231455445
1761508025586827000,2.239826904296875,5.147817646974325,-6.357930518838763,2.831469041827321
1761508025596799200,2.24979931640625,4.92419360050559,-5.70337589250505,2.7036943103075024
1761508025606770000,2.25977001953125,4.918651748469472,-5.296082208815217,2.9249364300757645
1761508025616742100,2.2697421875,5.098533099323511,-5.240195486420393,3.398288101562857
1761508025626713300,2.27971337890625,5.378078939500451,-5.399501666757464,3.9896488973587747
1761508025636685000,2.28968505859375,5.784643139871955,-5.705659035006165,4.658683884465694
1761508025646656300,2.29965625,6.042772098010778,-6.107216805392503,5.128732422754168
1761508025656628200,2.309628173828125,6.2288283381074665,-6.264806244939566,5.288635984462499
1761508025666599200,2.31959912109375,6.274892754667997,-6.332988385283946,5.1155415172696115
1761508025676571100,2.329571044921875,5.924651330021024,-6.400685372459888,4.689376544371247
1761508025686542300,2.339542236328125,5.137198053282499,-6.222551157534122,4.243155456393957
1761508025696514000,2.34951416015625,3.8953608403772115,-5.860158691844344,3.5912627427458763
1761508025706485200,2.3594853515625,2.9456571465432644,-5.2239253196209665,2.6885528552770612
1761508025716457200,2.369457275390625,2.7417741578549144,-4.2715217191785575,1.7896476207882164
1761508025726428200,2.37942822265625,2.9210382535934447,-3.1711580927997827,0.48982992807924747
1761508025736400100,2.389400146484375,3.072089815804362,-1.5860136384248733,-1.0782815584301948
1761508025746371300,2.399371337890625,2.228900038796663,0.4137748624026775,-2.1021534812808036
1761508025756343000,2.409343017578125,0.3467354623526335,2.309745845881104,-2.522430565184355
1761508025766314200,2.419314208984375,-2.106408800637722,4.288996585592627,-3.2240064704120157
1761508025776286200,2.4292861328125,-4.546649742913246,7.219015433499217,-4.314458359107375
1761508025786257200,2.439257080078125,-6.326689577400684,9.846642987692356,-4.838001756218075
1761508025796229000,2.44922900390625,-7.429539759898185,10.85017588686943,-4.766971240705251
1761508025806200300,2.459200439453125,-7.481058934733271,10.440468127775192,-4.556884721201658
1761508025816172000,2.469172119140625,-6.380495986390113,9.518622747203707,-4.5785406726926565
1761508025826143200,2.479143310546875,-4.745197800314426,8.595840378043055,-4.389027570140361
1761508025836115200,2.489115234375,-3.561782965761423,7.528836000430584,-3.4474440543979403
1761508025846086100,2.499086181640625,-3.194112851929664,6.469579460465908,-2.422916882508993
1761508025856058000,2.50905810546875,-3.307373320406675,5.774770565155148,-1.893497871363163
1761508025866029300,2.519029296875,-3.642448155581951,5.115145211428404,-1.555101782810688
1761508025876001300,2.529001220703125,-3.780570678114891,4.379961051109433,-1.0711328557193278
1761508025885972500,2.538972412109375,-3.5275481032043694,3.51042628801167,-0.45345103923082347
1761508025895944400,2.5489443359375,-2.8769162032723425,2.511904494994879,0.05869768816232681
1761508025905915400,2.558915283203125,-1.9064859477519989,1.3773188655406237,0.275830619046092
1761508025915887400,2.568887451171875,-0.8662608559936285,0.10228256286680698,0.21161095259189605
1761508025925858600,2.578858642578125,0.2481067458182573,-1.1375053162932396,0.12118600077927112
1761508025935830300,2.588830322265625,1.2375345472753048,-2.1467980941712854,0.31057343112528324
1761508025945801500,2.598801513671875,1.937303110820055,-2.8610487720549105,0.7104220595061779
1761508025955773400,2.6087734375,2.2002157961040734,-3.3277176047772166,1.1080997735887765
1761508025965744400,2.618744384765625,1.9204945993602274,-3.48131359077394,1.4335609772443771
1761508025975716400,2.62871630859375,1.2300263636022806,-3.445871105992794,1.5997306136101483
1761508025985687600,2.6386875,0.601824322143197,-3.33235520144999,1.714432513067126
1761508025995659300,2.6486591796875,0.20695757382810115,-3.0834611046463247,1.7653133899986744
1761508026005630500,2.65863037109375,0.0453787723839283,-2.8362890093296764,1.7585118932902812
1761508026015602400,2.6686025390625,0.17806991751790047,-2.5977584856301545,1.6277525930017231
1761508026025573400,2.678573486328125,0.5113128610908985,-2.337686576730013,1.3361398829340934
1761508026035545300,2.68854541015625,0.7554302450120448,-1.9962720171391963,0.8457663494974375
1761508026045516500,2.6985166015625,0.8129735024422406,-1.5883470498085022,0.28254677555859087
1761508026055488300,2.70848828125,0.5937596736311912,-0.9303706323325633,-0.19416472775042057
1761508026065459500,2.71845947265625,-0.031202362993359566,-0.15448153665959835,-0.6265110196322202
1761508026075431400,2.728431396484375,-0.8362474105238914,0.49069268238842484,-0.9772650699764489
1761508026085402400,2.73840234375,-1.4879975008308886,0.9332511562049388,-1.1225889021903275
1761508026095374300,2.748374267578125,-1.9028472989886998,1.1482605190634727,-1.0536503905206918
1761508026105345500,2.758345458984375,-2.0256097553044556,1.1090461145281791,-0.9482949960798025
1761508026115317200,2.768317138671875,-1.7499959938794374,0.7961492088913917,-0.8515788351684809
1761508026125289500,2.77828955078125,-1.1603408329576252,0.19890870740711689,-0.5914309384226799
1761508026135260400,2.788260498046875,-0.3443441833019256,-0.5108259543567896,-0.20061726489067078
1761508026145231400,2.7982314453125,0.6553092440932988,-1.165492808893323,0.2718114465326071
1761508026155203300,2.808203369140625,1.424998900604248,-1.74771577398777,0.7731547022730112
1761508026165174500,2.818174560546875,1.8402829985260962,-2.175550141403079,1.0808932022333144
1761508026175146200,2.828146240234375,1.956911482131481,-2.55973942835927,1.183799449956417
1761508026185117400,2.838117431640625,1.7317782001435755,-2.8845991589903828,1.1607277864485979
1761508026195089400,2.84808935546875,1.5496850184589623,-3.1156022097945213,1.1301888558000326
1761508026205061400,2.858061279296875,1.6111521713346242,-3.385739585635066,1.1955799041211603
1761508026215032300,2.8680322265625,1.7495850749909876,-3.6244121481537817,1.3290981477290391
1761508026225004500,2.878004638671875,1.8261925138533115,-3.861722190147638,1.4510595167949796
1761508026234975200,2.887975341796875,2.003067084106803,-4.125976937690377,1.5707038410902023
1761508026244947500,2.897947509765625,2.2660388061016796,-4.248028030866385,1.6776181554108858
1761508026254918400,2.90791845703125,2.4795839416265486,-4.0132138973414895,1.7133499785274267
1761508026264890400,2.917890380859375,2.480547233700752,-3.267469764563441,1.6306012604311109
1761508026274861300,2.927861328125,1.9610393757164477,-2.0947703852921724,1.2725237353309988
1761508026284833500,2.93783349609375,1.0750222643733025,-0.6037175885438919,0.6646759151145816
1761508026294804200,2.94780419921875,0.10247019439339637,0.9032178369909525,0.029259996753931043
1761508026304776400,2.9577763671875,-0.9967682273477315,2.144068961468339,-0.5534726714283228
1761508026314747400,2.967747314453125,-2.0968717414855957,3.241080354809761,-1.2835159617274998
1761508026324719400,2.97771923828125,-2.8835113637536764,4.504041604286432,-2.1650784317493437
1761508026334690300,2.987690185546875,-3.090660076239705,6.070552085340022,-3.2229303656131028
1761508026344662500,2.99766259765625,-3.0460540417939423,7.822621378362179,-4.541673708066344
1761508026354633200,3.00763330078125,-3.2496020994395014,9.517287114685773,-5.671358121475577
1761508026364605400,3.01760546875,-3.6085043849259613,11.252877566593884,-6.476850328251719
1761508026374576400,3.027576416015625,-4.104161996245384,12.930317442828416,-7.037298683911562
1761508026384548400,3.03754833984375,-4.963195823594927,14.188333637118339,-7.222967385995387
1761508026394519300,3.047519287109375,-5.980723345854878,14.465184246861934,-7.057277057579159
1761508026404491500,3.057491455078125,-6.885269216579198,13.151935410171747,-6.259502877834439
1761508026414462200,3.067462158203125,-7.305590139624476,10.674334166795015,-4.896738607347011
1761508026424434400,3.077434326171875,-6.769484782582521,7.82414756501615,-3.6747803993880748
1761508026434405400,3.0874052734375,-5.2903012873262165,5.1498985449016095,-2.6936434564143417
1761508026444377300,3.09737744140625,-3.5029876624435183,2.923454082563519,-1.7685411198735237
1761508026454348300,3.107348388671875,-1.955762896618247,1.037883497068286,-0.7731412582695484
1761508026464320500,3.117320556640625,-0.41853111701905726,-0.5905974102079868,0.30374037023484707
1761508026474291200,3.127291259765625,1.2718471512436866,-2.057084505498409,1.124727375523746
1761508026484263400,3.137263427734375,3.1098037526488302,-3.5676083109140393,1.7945327624812721
1761508026494234400,3.147234375,4.550824398249388,-5.406717004963755,2.6406995094731447
1761508026504206300,3.157206298828125,5.3854211189568035,-7.324528648850321,3.709681616899371
1761508026514177300,3.16717724609375,5.679508110183477,-8.778380134451389,4.435664818152785
1761508026524149500,3.1771494140625,5.623022252851724,-9.4450805411309,4.557317267400026
1761508026534120400,3.187120361328125,5.392463438683748,-9.272934752964973,4.343069536563754
1761508026544092400,3.197092529296875,4.915640876215696,-8.655038416942954,4.193066898883879
1761508026554063400,3.2070634765625,3.865708044913411,-7.834229983091354,4.122452562956512
1761508026564035300,3.217035400390625,2.6456723294496536,-6.7535992311865085,3.9033705438315867
1761508026574006300,3.22700634765625,1.5150585262358187,-5.7702183086782695,3.691150519430637
1761508026583978500,3.236978515625,0.2985626753360033,-5.3073003529220815,3.4846810213804242
1761508026593949400,3.246949462890625,-0.6229723241120576,-5.351697128531336,3.0356670878142116
1761508026603921400,3.25692138671875,-0.8679109612882137,-5.737021556997298,2.545631992551684
1761508026613892400,3.266892333984375,-0.17170096700787543,-6.298638956436514,2.406630056835711
1761508026623864300,3.2768642578125,1.3084370524942874,-6.8670613597154615,2.7012890027314422
1761508026633835300,3.286835205078125,2.913361143094301,-7.29913058822155,2.9088281758397816
1761508026643807500,3.296807373046875,4.477318432533741,-7.459387201151252,3.021228812617063
1761508026653778400,3.3067783203125,5.869976321503519,-7.629919124379754,3.2264702301770445
1761508026663750400,3.31675048828125,6.759616884040832,-7.5835285446047775,3.415876365223527
1761508026673721300,3.326721435546875,6.861143075582385,-7.2124307944118975,3.3599174543753265
1761508026683693300,3.336693359375,6.3335460191667075,-6.585919190257787,3.0599454967632886
1761508026693664300,3.346664306640625,5.257608393514156,-5.821620579135417,2.5649387505680323
1761508026703636500,3.356636474609375,4.176467353999614,-4.7724207382828,1.6130334550365806
1761508026713607400,3.366607421875,3.669406889656186,-2.749306306925416,0.26969489277005193
1761508026723579400,3.376579345703125,3.1364456758588553,-0.1963239516109228,-0.6761620625078678
1761508026733550300,3.38655029296875,1.9077222115486858,2.3509441177099943,-1.3513807066857815
1761508026743522300,3.396522216796875,-0.29820728602707386,4.770092003074288,-2.1432178975969554
1761508026753493200,3.4064931640625,-3.023542350256443,7.202815409326553,-3.0574919661313293
1761508026763465500,3.416465576171875,-5.37403404802382,9.720479198500513,-4.2003818980723615
1761508026773436400,3.4264365234375,-6.937440133321285,11.925841125321387,-5.215218281552195
1761508026783408400,3.436408447265625,-7.678139257669448,13.207684769922494,-5.653844092094898
1761508026793379300,3.44637939453125,-8.007013484638929,12.293016733634472,-4.582826971709728
1761508026803351300,3.456351318359375,-8.133576502281427,8.995321926677226,-2.6207337030261755
1761508026813322200,3.466322265625,-7.140393732205033,5.963000642159581,-1.4205349069327116
1761508026823294500,3.47629443359375,-4.946646255332231,4.256387278410792,-1.2039683777600525
1761508026833265400,3.486265380859375,-2.8129180706143377,3.4053058713704347,-1.6399842980653048
1761508026843237400,3.4962373046875,-1.2654647567301989,3.101279085409641,-2.0727058530002833
1761508026853208300,3.506208251953125,-0.4082371020197868,3.249078367826342,-2.2451129224509
1761508026863180300,3.51618017578125,-0.15459493390619755,3.4761814885824918,-2.141827320021391
1761508026873150700,3.526150634765625,-0.04418342511951923,3.520083174151182,-1.7553163121193647
1761508026883123000,3.536123046875,-0.10839724635481834,3.0490041237711907,-1.2195616682112216
1761508026893094000,3.546093994140625,-0.2375023496955633,1.9693810876041649,-0.6741553988605737
1761508026903065900,3.55606591796875,-0.08014145820736884,0.41829321660995483,-0.18958119935244322
1761508026913036800,3.566036865234375,0.43111061260700223,-1.129153083011508,0.1512637436568737
1761508026923009000,3.576009033203125,1.1070230842679738,-2.383207387933135,0.3393865608945489
1761508026932979700,3.585979736328125,1.8736703043431042,-3.30825945559144,0.5510018974006176
1761508026942952000,3.595951904296875,2.6451544430553913,-3.921782983356714,0.85868603682518
1761508026952923000,3.6059228515625,3.219944043278694,-4.188969108176231,1.1456573508277534
1761508026962894800,3.615894775390625,3.5612329306632278,-4.095515163931251,1.41580027962625
1761508026972865800,3.62586572265625,3.547771391543746,-3.696779465228319,1.6279910779327154
1761508026982838000,3.635838134765625,3.2086031495749947,-2.917367456126213,1.6692033782869578
1761508026992808700,3.64580859375,2.3688345791876313,-1.9311276370555162,1.5746253984481096
1761508027002781000,3.655781005859375,1.1746744787365198,-0.9463374322712421,1.4657108502209186
1761508027012752000,3.665751953125,0.12203881821632384,-0.15053776746988295,1.3083914597868918
1761508027022723800,3.675723876953125,-0.6701736357480287,0.41041035440564155,1.0433221809908748
1761508027032694800,3.68569482421875,-1.036713868767023,0.6943202350109815,0.7413201788559556
1761508027042667000,3.6956669921875,-1.0428601164370774,0.7691711855947971,0.5377107464119791
1761508027052637700,3.7056376953125,-0.7355038937926291,0.7994155172109604,0.4775511690035462
1761508027062610000,3.71560986328125,-0.41290977000594137,0.8173270214766264,0.5342281649932265
1761508027072580900,3.725580810546875,-0.33014848468899727,0.6781728178083897,0.6747904818937182
1761508027082552800,3.735552734375,-0.38582653276920315,0.36069969029724597,0.8494917997613549
1761508027092523800,3.745523681640625,-0.3573112169027328,-0.04405366126000881,0.8713514571309089
1761508027102496000,3.75549609375,-0.3908434841483831,-0.551640779826045,0.6717611972004175
1761508027112466700,3.765466796875,-0.28075580048859117,-1.0293968237519264,0.4461483150020241
1761508027122439000,3.77543896484375,-0.10523965910673141,-1.297936116746068,0.27644173668175936
1761508027132411000,3.785410888671875,-0.021118775874376296,-1.519247210097313,0.22466478769332168
1761508027142381800,3.7953818359375,0.08139759574830531,-1.7239543746501207,0.3241425222724676
1761508027152354000,3.80535400390625,0.3221650847196579,-1.901342155122757,0.4666495434999466
1761508027162325000,3.815324951171875,0.701042821264267,-2.1193951234608885,0.6079319913685322
1761508027172297000,3.825296875,1.1434808835715056,-2.341010168194771,0.8477414489626884
1761508027182268000,3.835267822265625,1.5156079768121242,-2.4043296709388495,1.104807454045117
1761508027192239900,3.845239990234375,1.7294553101539611,-2.3150123881071805,1.3616308825433254
1761508027202210800,3.8552109375,1.7054834829360246,-2.2112568300783635,1.6241022538006304
1761508027212183000,3.86518310546875,1.4987398441195487,-2.274380517989397,1.8480594777464865
1761508027222154000,3.875154052734375,1.3227321198284625,-2.453926353278756,1.9628207061752676
1761508027232126000,3.8851259765625,1.2824147224873303,-2.505945294329524,1.9693302341997623
1761508027242097000,3.895096923828125,1.338880121552944,-2.382505961665511,1.8630077482923864
1761508027252069000,3.905069091796875,1.3941267924785614,-2.0820196247905494,1.645867510885
1761508027262039800,3.915039794921875,1.3000094158887863,-1.5019728346914052,1.2887503552496433
1761508027272012000,3.925011962890625,0.994816508758068,-0.6617956835031509,1.0901304016560316
1761508027281983000,3.93498291015625,0.6759352680146694,0.36354981903135775,0.6924661315768956
1761508027291955000,3.944954833984375,0.23096388783752916,1.6034569406569004,-0.11482055740058421
1761508027301926000,3.95492578125,-0.4143915329962969,3.0285505338072776,-1.1752207144424318
1761508027311898000,3.964898193359375,-1.150622572019696,4.7872868835031985,-2.411784663119912
1761508027321868800,3.974868896484375,-1.9358990892410277,6.809039378857612,-3.5973899934545157
1761508027331841000,3.984841064453125,-2.6445833651691673,8.863131132280825,-4.525206557390094
1761508027341812000,3.99481201171875,-3.168293351018429,10.811899055445194,-5.28790767018795
1761508027351782000,4.004781982421875,-3.5032764162570236,12.674870855641364,-6.002457623279095
1761508027361753900,4.01475390625,-3.858654619270563,13.922514124476908,-6.28089287186563
1761508027371724800,4.024724853515625,-4.577026760998368,13.966063343346118,-5.9480865661442275
1761508027381697000,4.034697021484375,-5.488316845285892,12.431698059093952,-5.119973362237214
1761508027391668000,4.04466796875,-6.057784958225488,9.764672560492157,-4.175193388541042
1761508027401640000,4.054639892578125,-5.0506198400259015,6.995531087762117,-3.2866569878533483
1761508027411611000,4.06461083984375,-2.829019310587644,3.9793449454873797,-2.2675269988328215
1761508027421582800,4.074582763671875,-0.707736181423068,1.1452993311703203,-1.3713453440889716
1761508027431553800,4.0845537109375,1.0549486136376858,-1.2715700878679752,-0.5628004717439413
1761508027441526000,4.094526123046875,2.1969266914308068,-2.8553081825762985,0.07051379816234112
1761508027451497000,4.1044970703125,2.386096095111966,-3.6943759112179277,0.665950757355988
1761508027461469000,4.114468994140625,1.9571777318522332,-4.107971325400471,1.4766782344371079
1761508027471440000,4.12443994140625,0.9696677467152476,-4.823527825185656,2.3355504414841533
1761508027481411800,4.134411865234375,-0.20302461829334495,-5.8910752236336466,2.9384838939130304
1761508027491382800,4.1443828125,-0.8735843307495117,-6.938322176852822,3.144106712006032
1761508027501355000,4.15435498046875,-0.8224889342844486,-7.878516868585348,2.931896039955318
1761508027511326000,4.164325927734375,0.015303367593884468,-8.503577689409255,2.624991944992542
1761508027521298000,4.1742978515625,1.0371288793087006,-8.94604263972342,2.369495673444867
1761508027531268900,4.184268798828125,1.9446558116704225,-9.433322298797965,2.364782673448324
1761508027541240800,4.19424072265625,2.6043095147088167,-9.753185536316037,2.4511814384847876
1761508027551211800,4.204211669921875,2.9751737484067675,-9.625265258845687,2.5809493896484375
1761508027561184000,4.21418408203125,2.9857115090340374,-9.006326135772467,2.6434151981726286
1761508027571155000,4.224155029296875,2.7075214673802255,-7.940900551784038,2.5972122499242425
1761508027581127000,4.234126953125,2.40779705478847,-6.883444339239597,2.727309871433675
1761508027591097900,4.244097900390625,2.256494732686877,-6.37026276166737,3.0933219889253376
1761508027601069800,4.25406982421875,2.2377730810821057,-6.3457490826576946,3.3173268514052032
1761508027611040800,4.264040771484375,2.2670231409639117,-6.58179363476038,3.2655519482433792
1761508027621013000,4.274012939453125,2.404492168024182,-6.788458363121747,3.149420308244228
1761508027630984000,4.28398388671875,2.6350287703603503,-6.875320069494843,2.9676340005517003
1761508027640956000,4.293955810546875,2.807988212996721,-6.742788498836755,2.639678934253752
1761508027650926800,4.3039267578125,2.883421931904554,-6.257546483069658,2.08061005025357
1761508027660898800,4.31389892578125,2.7499825987517834,-5.232713606232404,1.2517568416342137
1761508027670869800,4.323869873046875,2.2061609682440757,-3.64733592762351,0.35407091980725525
1761508027680842000,4.333842041015625,1.3292623983800411,-1.6823428458452223,-0.4395142838150263
1761508027690813000,4.34381298828125,0.3494213404357433,0.7591092257857323,-1.256275195841491
1761508027700785000,4.353784912109375,-0.6515653813898563,3.623966157951951,-2.259884959647059
1761508027710755800,4.363755859375,-1.6584388231664895,6.975531086784601,-3.64189958178848
1761508027720727800,4.373727783203125,-2.7510984510391947,10.86494792406559,-4.953451259171962
1761508027730698800,4.38369873046875,-4.571351930232346,12.989960887408255,-4.7187022998377675
1761508027740671000,4.3936708984375,-6.7527510899245735,12.375374698847532,-3.4062215249106287
1761508027750642000,4.403641845703125,-8.374706979346275,10.422799200093745,-2.619778009736538
1761508027760614000,4.41361376953125,-8.575151810279488,8.213014780655502,-2.5641557834967967
1761508027770584800,4.423584716796875,-7.130369766318798,6.209283095160126,-2.665779590193927
1761508027780556800,4.433556884765625,-4.51129902806878,4.788305120635032,-2.6387790628045797
1761508027790527700,4.44352783203125,-1.6530097838550806,3.7783833972036835,-2.5683064734354613
1761508027800500000,4.4535,0.4609048623681068,2.8637264668315647,-2.418791327011585
1761508027810472000,4.463471923828125,1.5560948855012655,2.312358074206114,-2.096691708743572
1761508027820443000,4.47344287109375,1.6686369765758513,2.032078659057617,-1.6221064038082957
1761508027830413800,4.483413818359375,0.9452993213951587,2.0302812542468307,-1.205580781392753
1761508027840385800,4.4933857421875,-0.1855272477865219,2.049451234140992,-1.0059458055377006
1761508027850358000,4.50335791015625,-0.9922434433996676,1.9988024123996495,-0.763852328659594
1761508027860329000,4.513328857421875,-0.9906512057721615,1.7601228356182574,-0.47995823014527556
1761508027870301000,4.523301025390625,-0.08512509183883667,1.0370715961635113,-0.039303836384415626
1761508027880272400,4.5332724609375,1.1017197171628474,-0.07394552617669105,0.3975377210900187
1761508027890244600,4.54324462890625,2.067024884754419,-1.3541186072170734,0.7919269150212407
1761508027900215300,4.55321533203125,2.873413163587451,-2.28970492837131,1.0446198195859788
1761508027910187500,4.5631875,3.3836662864923475,-2.9374861150473355,1.2657482498466968
1761508027920158500,4.573158447265625,3.46622532723546,-3.1807927671074867,1.5131567842677234
1761508027930130400,4.58313037109375,3.2607606223136183,-3.029140900915861,1.7416709408655762
1761508027940101400,4.593101318359375,2.6368577393531796,-2.6039970877587795,1.765118159687519
1761508027950073600,4.603073486328125,1.6324585787355899,-2.041061006936431,1.5600789867013691
1761508027960044300,4.613044189453125,0.8026280495166778,-1.3847896398127078,1.53029350476861
1761508027970016500,4.6230166015625,0.11543664347231387,-0.8070610635280608,1.4958569821596144
1761508027979987500,4.632987548828125,-0.44750119091570373,-0.4583206910938024,1.3890873370066283
1761508027989959400,4.64295947265625,-0.6900234145998955,-0.3223112151920795,1.181475975444913
1761508027999930400,4.652930419921875,-0.5949988600373268,-0.36781975143551826,1.0286936439186334
1761508028009902600,4.662902587890625,-0.24143968914449213,-0.5807973162055016,1.0632818499580026
1761508028019873300,4.672873291015625,0.2762029594898224,-0.7953747173875569,1.2423650361716747
1761508028029845500,4.682845458984375,0.5838204634189605,-0.8927256690710782,1.432867149761319
1761508028039816400,4.69281640625,0.5734849473655224,-0.9457096557617187,1.5623054305791855
1761508028049788400,4.702788330078125,0.41258360679149625,-1.0110106877118348,1.6217171122297644
1761508028059759400,4.71275927734375,0.21502689851522444,-1.1180413218885659,1.5938354180917143
1761508028069731600,4.722731689453125,0.1270212828040123,-1.2767974671274422,1.5496332882717252
1761508028079702300,4.732702392578125,0.17344810293614862,-1.444799579617381,1.4911644404292106
1761508028089674500,4.742674560546875,0.29805355677008627,-1.7041525265932083,1.407479026004672
1761508028099645400,4.7526455078125,0.41566754428148267,-2.073927503749728,1.38290221863091
1761508028109617400,4.762617431640625,0.4661503618061542,-2.3924270516991615,1.3889397452294825
1761508028119588400,4.77258837890625,0.6052957976460457,-2.6411644966363905,1.3235095339417458
1761508028129560600,4.782560546875,0.8149339888602495,-2.7930484180182216,1.1262477169588208
1761508028139531300,4.79253125,1.0473971753448248,-2.67354174862802,0.8672837693005799
1761508028149503500,4.80250341796875,1.3276216454356908,-2.074567555218935,0.5145394219219684
1761508028159474400,4.812474365234375,1.3320423844873905,-1.0852069737792014,0.15667378600686788
1761508028169446400,4.8224462890625,0.7535591904431581,-0.14050854088664055,0.00796031135469675
1761508028179417300,4.832417236328125,-0.24827158099114893,0.5472995357513427,-0.05781301428228616
1761508028189389600,4.8423896484375,-1.3301421038240193,1.1269956127166747,-0.18049685240387917
1761508028199360300,4.8523603515625,-2.425828386041522,1.5966121893286704,-0.6140776545166969
1761508028209332500,4.86233251953125,-3.202657977434993,2.185109996908903,-1.4192436980783938
1761508028219303400,4.872303466796875,-3.3384067565739155,2.8677275191664693,-2.5565195895299313
1761508028229275400,4.882275390625,-2.8409003025174138,4.355383659213781,-3.9566263332009313
1761508028239246300,4.892246337890625,-2.3878911618351935,6.446044271099567,-5.224529130733013
1761508028249218600,4.902218505859375,-2.5275848792076108,8.601752232435345,-5.916719952499866
1761508028259189200,4.912189208984375,-3.318388050895929,10.626182422566414,-6.316615927153825
1761508028269161500,4.922161376953125,-4.6405794879764315,12.18784955524206,-6.7194298350811
1761508028279132400,4.93213232421875,-5.965441021049022,12.955612043082713,-6.7674553225815295
1761508028289104400,4.9421044921875,-6.722445968031883,12.508843258094787,-5.941621754044294
1761508028299075300,4.952075439453125,-7.159789922070503,10.544359879404306,-4.58420352075994
1761508028309047600,4.962047607421875,-6.854049902451038,8.171276410600543,-3.4078345130652186
1761508028319018200,4.972018310546875,-5.536950235551595,5.864778168338537,-2.4557407092243433
1761508028328990500,4.981990478515625,-3.4664258182436227,3.79491426076591,-1.4168193935409188
1761508028338961400,4.99196142578125,-1.259759238564968,1.9670307250857353,-0.4055427483692765
1761508028348933400,5.001933349609375,0.37302550338506696,0.3800035257041454,0.44913025342226026
1761508028358904300,5.011904296875,1.6380740805298089,-0.802377874147892,0.9284276815712451
1761508028368876500,5.02187646484375,2.3640718948304653,-1.892033644029498,1.2495227989718318
1761508028378847500,5.031847412109375,2.633795429173112,-2.927932104760408,1.4275532612621784
1761508028388819500,5.0418193359375,2.6737001540601253,-3.991588340988755,1.7233751134574413
1761508028398790400,5.051790283203125,2.4419343021899462,-5.312946834376454,2.325146244108677
1761508028408762400,5.061762451171875,2.3484207367122174,-6.649598173964023,3.0890757296577096
1761508028418733300,5.0717333984375,2.6187527583420276,-7.71530608202517,3.5495006995543834
1761508028428705500,5.08170556640625,3.424455392998457,-8.34095843900144,3.4449554524525996
1761508028438676500,5.091676513671875,4.5575382166743275,-8.638827286854387,3.2426343062534926
1761508028448648400,5.1016484375,5.647034412080049,-8.914238803705572,3.333938378988206
1761508028458619400,5.111619384765625,6.496015047448873,-9.016853375005722,3.518286938384175
1761508028468591400,5.12159130859375,7.086349422806501,-8.76841871240735,3.6389021535381674
1761508028478562300,5.131562255859375,7.086964339834451,-8.29088478679955,3.646138826793432
1761508028488534500,5.141534423828125,6.618539018833637,-7.652478746712207,3.521917111580074
1761508028498505500,5.15150537109375,5.639824919092655,-6.934238706931471,3.3767017081767317
1761508028508477400,5.1614775390625,4.5121787335127586,-6.350076882728934,3.3288214743658897
1761508028518448400,5.171448486328125,3.6562101389527317,-5.889357898321747,3.329363618418574
1761508028528420400,5.18142041015625,3.2047020504832266,-5.6024242859810585,3.250983616925776
1761508028538391300,5.191391357421875,3.1792543054938314,-5.4473120502024885,3.029628099910915
1761508028548363500,5.201363525390625,3.4824709441155193,-5.331130141320824,2.7485809152603147
1761508028558334500,5.21133447265625,3.7732945496320722,-5.251154102808237,2.4533140665993094
1761508028568306400,5.221306396484375,3.890504632517695,-5.281296727615595,2.178823463985324
1761508028578277400,5.23127734375,3.953808937692642,-5.121377968338131,1.853996758840978
1761508028588249300,5.241249267578125,3.9714433785825967,-4.221844957339763,1.3701964663147925
1761508028598220300,5.25122021484375,3.7748493778586387,-2.652081611970067,0.6715282652273774
1761508028608192500,5.261192626953125,2.9586089825749395,-0.7542407429665327,-0.2346899226233363
1761508028618163500,5.27116357421875,1.2816501678556202,1.335853467208147,-1.1987982816457747
1761508028628135400,5.281135498046875,-1.2466571804076432,3.502822242748737,-1.8736416627705097
1761508028638106400,5.2911064453125,-4.29191861051917,6.379250954765081,-2.5058181608185173
1761508028648078300,5.301078369140625,-6.584252133828401,10.934884799122809,-4.141681871822476
1761508028658049300,5.31104931640625,-8.092516177618503,15.452912843185663,-5.3487312644630665
1761508028668021500,5.321021484375,-9.610493806171416,15.569105273461341,-3.265580005294084
1761508028677992400,5.330992431640625,-10.587812067639828,11.879123797810077,-0.304087283976376
1761508028687964400,5.34096435546875,-9.287388225731252,8.630617092391848,0.031930385006964206
1761508028697935400,5.350935302734375,-6.338049760326743,6.070981124407052,-0.2960004236325621
1761508028707907300,5.3609072265625,-3.244933523106575,3.7017075692802663,0.11032558406889438
1761508028717878300,5.370878173828125,-0.09045067077577114,2.1120646344423295,0.32499329388290643
1761508028727850500,5.3808505859375,2.1927689872294662,1.0128560233175754,0.11295447126775979
1761508028737821400,5.390821533203125,3.1907612034142017,0.22302315796613692,-0.4172083439826965
1761508028747793400,5.40079345703125,3.5319378625959157,-0.12588146511912346,-1.2883189780950546
1761508028757764400,5.410764404296875,3.0884733798503876,-0.01516600494980812,-2.1747473005875944
1761508028767736300,5.420736328125,2.012548613679409,0.034793080961704255,-2.9204151532590386
1761508028777708300,5.430708251953125,1.1243044739365577,-0.14971066899597643,-3.3315508993297813
1761508028787679500,5.440679443359375,0.3592600128829479,-0.5554179602771997,-3.393268519835174
1761508028797650400,5.450650390625,-0.2839431983530521,-0.9883195479542016,-2.9669164999321103
1761508028807622400,5.460622314453125,-0.6382464656114578,-1.4197025477617977,-2.0166259461209175
1761508028817594400,5.470594482421875,-0.7273994977921248,-1.8931226083099841,-0.7292319739162921
1761508028827565300,5.4805654296875,-0.5912047284513712,-2.2883827398568393,0.6174459619060159
1761508028837537300,5.490537353515625,-0.5305816251844168,-2.4987346322983504,1.6139716126695274
1761508028847508500,5.500508544921875,-0.5781506010890006,-2.561568397352099,2.333924886108935
1761508028857480400,5.51048046875,-0.5771954923212528,-2.400048048096895,2.725532924889028
1761508028867451400,5.520451416015625,-0.5717571006596088,-2.1574621115267276,2.7211379048004747
1761508028877421800,5.530421875,-0.504253005707264,-1.9876152479529379,2.2938225928232074
1761508028887394000,5.54039404296875,-0.32134383146464823,-1.7794255019813774,1.5782506032079457
1761508028897365800,5.55036572265625,0.1168430031388998,-1.5303987187087535,0.8760124346792697
1761508028907337000,5.5603369140625,0.7427823603630066,-1.3673667958468199,0.34201427904963494
1761508028917309000,5.570308837890625,1.236103637689352,-1.20378659145236,0.006250584827363491
1761508028927279900,5.58027978515625,1.5076239923208952,-1.0995084708541631,-0.13738076425492762
1761508028937251800,5.590251953125,1.4619693256050348,-1.1287252129882572,-0.21101824739575384
1761508028947223000,5.60022314453125,1.229154841464758,-1.038929206728935,-0.28632044887840746
1761508028957194800,5.61019482421875,0.9660884269237517,-0.8810486752808093,-0.30101971309930087
1761508028967166000,5.620166015625,0.7220400165855884,-0.7176414893656968,-0.18215806361436843
1761508028977138000,5.630137939453125,0.5651747996598482,-0.6841618290901184,0.03398848658055067
1761508028987108900,5.64010888671875,0.5223597402840853,-0.8516565765798091,0.34417613325864077
1761508028997080800,5.650080810546875,0.39960020657777784,-1.0909563310861587,0.6102110422164201
1761508029007052000,5.660052001953125,0.2538841601759195,-1.4464625443935393,0.8340808801397681
1761508029017023700,5.670023681640625,0.16596154657304285,-1.972499511885643,0.9772963418975472
1761508029026995000,5.679994873046875,0.21539573182761668,-2.508231943961978,1.0898694126322865
1761508029036967000,5.689966796875,0.30386779600679875,-2.96673909753859,1.2229250071644782
1761508029046937900,5.699937744140625,0.5133329687416553,-3.336829716515541,1.4901652002587913
1761508029056909800,5.709909912109375,0.8192273021399974,-3.5615596783995627,1.7082807124391197
1761508029066881000,5.719881103515625,1.0974784263312816,-3.492278052380681,1.8066297352492808
1761508029076852700,5.729852783203125,1.2265016966074704,-3.1680431756496428,1.721904164122045
1761508029086824000,5.739823974609375,1.3833768504053354,-2.6770699227541686,1.4867054151937364
1761508029096796000,5.7497958984375,1.399386904963851,-2.1398545586436986,1.2160077751219271
1761508029106766800,5.759766845703125,1.2264303849369287,-1.4898346531301736,0.8973980447962879
1761508029116738800,5.76973876953125,0.9186164816528558,-0.7790747399717569,0.43374417598098514
1761508029126710000,5.7797099609375,0.423923331451416,-0.08441898939609527,-0.05127396790236234
1761508029136681700,5.789681640625,-0.24559213264882562,0.7686872014701366,-0.4678451830253005
1761508029146653000,5.79965283203125,-1.181762975692749,2.026595843732357,-0.9535293896019458
1761508029156625000,5.809625,-2.2230045510172842,3.5453918029308316,-1.2902306569352746
1761508029166595800,5.819595947265625,-3.2368963471233845,4.873117493262887,-1.7438161362007258
1761508029176567800,5.82956787109375,-3.7500194725066422,6.452557598516345,-2.604083889259398
1761508029186539000,5.8395390625,-3.6952456797897812,7.824227644515037,-3.66383259665519
1761508029196510700,5.8495107421875,-3.4079099163889883,9.170679078105092,-4.658155476677417
1761508029206482000,5.85948193359375,-3.225559545072913,10.960532450598478,-5.6013961119771
1761508029216454000,5.869453857421875,-3.6736043413460253,13.187751404440402,-6.346675549852848
1761508029226424800,5.8794248046875,-5.235489500686526,15.606438686555624,-6.758396402335166
1761508029236396800,5.889396728515625,-7.434576000499725,16.467716493439674,-6.313731896150112
1761508029246368000,5.899367919921875,-8.880590216603874,15.023012190890311,-5.701350524157285
1761508029256339700,5.909339599609375,-8.81871623649299,11.85597556193471,-5.247668014258146
1761508029266311000,5.919310791015625,-7.104819729998708,8.18724496410489,-4.390880796791613
1761508029276283100,5.929283203125,-4.84638555368185,4.920285487151146,-3.441881744095683
1761508029286253800,5.93925390625,-2.55431214261353,2.5903677908569573,-2.2538491866141555
1761508029296226000,5.94922607421875,-0.06990998705029487,1.4856348633527754,-0.944854792498052
1761508029306197000,5.959197021484375,1.860727820661664,0.6157581549495458,0.7530310749158263
1761508029316169000,5.9691689453125,3.003603724077344,-0.6791641669332981,2.416842238770425
1761508029326140000,5.979139892578125,3.3282840064883232,-2.422875965976715,3.455950893719494
1761508029336112000,5.989112060546875,3.0967426110237835,-4.412904120290279,3.707872813911736
1761508029346082800,5.999082763671875,2.567570852637291,-6.416468048003315,3.4552658340647815
1761508029356055000,6.009054931640625,2.1871289355158803,-8.06447081735134,3.2490450500786303
1761508029366026000,6.01902587890625,2.4158014975458384,-8.948164454182981,2.9812825866758823
1761508029375998000,6.028998046875,3.22914617138803,-9.121711925840378,2.679895793829858
1761508029385969000,6.038968994140625,4.3498780475348235,-8.980179302603005,2.5701111847698686
1761508029395941000,6.048941162109375,5.337207415407896,-8.912598635283112,2.6421812724635005
1761508029405911800,6.058911865234375,6.036563891020417,-8.87125540202558,2.6091037632480263
1761508029415884000,6.068884033203125,6.469225240200758,-8.616515501803159,2.3594719998195766
1761508029425855000,6.07885498046875,6.626856765323877,-8.262920675075053,2.2473291371956465
1761508029435827000,6.088826904296875,6.5865422905921935,-7.915064684259891,2.3242574785754084
1761508029445798000,6.0987978515625,6.398615580448508,-7.609789359542727,2.504473760472238
1761508029455770000,6.10877001953125,5.870802835455536,-7.408657715389132,2.6959792058855294
1761508029465740800,6.11874072265625,5.169856460303068,-7.204277883094549,2.829822443664074
1761508029475713000,6.128713134765625,4.475540316945314,-6.998298214387893,2.980411941321194
1761508029485684000,6.13868408203125,3.9879952849328517,-6.773063810113072,3.1208348497509952
1761508029495656000,6.148656005859375,3.7448809405744075,-6.520408899471163,3.171211284291744
1761508029505627000,6.158626953125,3.543030334496498,-6.217010474541783,3.1981630041033027
1761508029515599000,6.16859912109375,3.2483769415587185,-5.9488072816342115,3.2200787755742666
1761508029525569800,6.17856982421875,3.1409079159647226,-5.682843976607918,3.220536456213891
1761508029535542000,6.1885419921875,3.318483327963948,-5.298118683078885,3.362488473907113
1761508029545513000,6.198512939453125,3.638973172947764,-4.709478836679458,3.6318870140790938
1761508029555485000,6.20848486328125,4.043801927828788,-3.535693415737152,3.5387580640047784
1761508029565456000,6.218455810546875,4.25904042326808,-1.5513777938514948,2.8446070480808614
1761508029575428000,6.228427978515625,3.7645992020010945,0.7475637494206429,1.9474866511821747
1761508029585399000,6.23839892578125,2.585873402047157,3.14339330303967,1.0373483672782777
1761508029595371000,6.24837109375,0.4312281015068292,5.275770657670497,0.044426001703739164
1761508029605342000,6.258342041015625,-1.8689304163396356,7.147495673164725,-1.2563979454383254
1761508029615314000,6.26831396484375,-3.857980665531754,9.340513082197308,-2.9623434929281474
1761508029625284900,6.278284912109375,-5.875330542013049,10.75416699744463,-4.153547666183114
1761508029635257000,6.288257080078125,-7.019948905181884,10.856374156987666,-4.7675756363391875
1761508029645228000,6.29822802734375,-6.656299132907391,10.659320137536525,-5.526010323864221
1761508029655200000,6.308199951171875,-5.920372045266628,9.579704115632175,-5.622530669942498
1761508029665171000,6.3181708984375,-5.487783176800608,7.599474301755428,-4.9089551148414605
1761508029675143000,6.328142822265625,-5.262592611667514,5.943087734943628,-4.261917440009117
1761508029685113900,6.33811376953125,-5.3625376714974635,4.726456859487294,-3.807730779980123
1761508029695086000,6.348086181640625,-5.585380796721577,3.957055956789851,-3.5316730741798876
1761508029705057000,6.35805712890625,-5.622145470017195,3.2057500982314346,-3.291846080929041
1761508029715029000,6.368029052734375,-5.291169302332401,2.239552950236201,-2.915431519627571
1761508029725000000,6.378,-4.6242812641263,1.211140461346507,-2.608941850684583
1761508029734972000,6.387971923828125,-3.6115737093687055,0.19871347709596157,-2.459482526101172
1761508029744942800,6.39794287109375,-2.2782664195120335,-0.7545178063422441,-2.3579861451759934
1761508029754915000,6.4079150390625,-0.8971639437794685,-1.6448445975780486,-2.141077378436923
1761508029764886000,6.417885986328125,0.16026771884560584,-2.437937341508269,-1.7761361050471662
1761508029774858000,6.42785791015625,0.7303788058638572,-3.03802037294209,-1.3091387710228561
1761508029784829000,6.437828857421875,0.9177800308287143,-3.388954456028342,-0.7636766798317431
1761508029794801000,6.44780078125,0.9673661917746067,-3.344169557884335,-0.20696751070022582
1761508029804771800,6.457771728515625,0.9510048395603895,-3.011844313678145,0.49239247204363346
1761508029814744000,6.467744140625,0.9879805252581835,-2.664942262586951,1.2185022222861648
1761508029824715000,6.477715087890625,1.0234002136856317,-2.336798687979579,1.8296444078728555
1761508029834687000,6.48768701171875,1.0399784235209226,-2.059610224583745,2.257006189340353
1761508029844658000,6.497657958984375,1.1610755769729613,-1.8474708642035722,2.475696871060133
1761508029854630000,6.5076298828125,1.4339906008332968,-1.75189335193336,2.568510471574962
1761508029864600800,6.517600830078125,1.8433423860967157,-1.64133571267426,2.5068305527314543
1761508029874573000,6.527572998046875,2.2820967914551495,-1.509246625086665,2.3829785476133227
1761508029884544500,6.53754443359375,2.6904636573344467,-1.3565373587965965,2.1405673830881713
1761508029894516500,6.5475166015625,2.9509248578131198,-0.9733025960862636,1.8967904831677673
1761508029904487700,6.55748779296875,2.9421055915415284,-0.6122872639685869,1.6249474724531172
1761508029914459400,6.56745947265625,2.6182360409915444,-0.26945465427339077,1.2873179843589664
1761508029924430600,6.5774306640625,1.9914450353741644,-0.035463527569174765,0.9819976514562964
1761508029934402600,6.587402587890625,1.299651688492298,0.13803835138082504,0.8596531282916664
1761508029944373500,6.59737353515625,0.6109639064103365,0.16124679301083086,0.78778791552037
1761508029954345500,6.607345458984375,-0.04125321688652038,-0.031603929531574246,0.7596157140031456
1761508029964316700,6.617316650390625,-0.44075989996194836,-0.4359054456681013,0.8736144336268306
1761508029974288400,6.627288330078125,-0.4336971219688654,-0.9398375488579273,1.0049494879767298
1761508029984259600,6.637259521484375,-0.02013210292458534,-1.5417483802407979,1.1228180347710848
1761508029994231600,6.6472314453125,0.6299427476465702,-2.1408879933446645,1.1447288378059863
1761508030004202500,6.657202392578125,1.33916770632267,-2.5654081216454503,1.122863919739425
1761508030014174500,6.667174560546875,2.024223269382119,-2.78508839892447,1.114773844525218
1761508030024145700,6.677145751953125,2.679953953757882,-2.7863813613444566,1.1057821442961693
1761508030034117400,6.687117431640625,3.2659956003576514,-2.5939485719531774,1.0809335342437028
1761508030044088600,6.697088623046875,3.5011820743262767,-2.2695658111840484,1.0642381277695299
1761508030054060500,6.707060546875,3.183647572016716,-1.8420184440165757,0.8561360600814223
1761508030064031500,6.717031494140625,2.3080817120611665,-1.2469780829250812,0.29820056402534245
1761508030074003500,6.72700341796875,1.3262170393347739,-0.4480395355761051,-0.3107981797918677
1761508030083974700,6.736974609375,0.5454723203241825,0.37101240999698637,-0.7240510641470551
1761508030093946400,6.7469462890625,-0.06900222455561161,1.135954579719901,-1.0199337066188454
1761508030103917600,6.75691748046875,-0.6063830083608627,1.9480898777723312,-1.3962696497261524
1761508030113889500,6.7668896484375,-0.9327987362623215,2.962929183861613,-1.9915122553914784
1761508030123860500,6.776860595703125,-0.8545055362701416,4.078363538122177,-2.654757845441997
1761508030133832400,6.78683251953125,-0.7834896338045597,5.314506923300027,-3.1329198398202656
1761508030143803600,6.7968037109375,-0.9855483296751976,6.939374900776148,-3.6747342221587895
1761508030153775600,6.806775634765625,-1.4553122058033943,9.122987352603673,-4.457699832089245
1761508030163747600,6.81674755859375,-2.0547966868221756,11.487309422802925,-5.3213703793287275
1761508030173718800,6.82671875,-2.8827386258155108,13.555724300611018,-5.920145250773429
1761508030183689500,6.836689453125,-3.888558174625039,15.054038612794875,-6.286865516534447
1761508030193661700,6.84666162109375,-5.062760359674692,15.513629469954967,-6.04235884103477
1761508030203633700,6.856633544921875,-6.314068580758572,14.544793790149688,-4.973073659008741
1761508030213604600,6.8666044921875,-7.420363935273885,12.02371347053051,-3.380858535595238
1761508030223575600,6.876575439453125,-7.9670409552127115,8.767508611825107,-1.8574393005102872
1761508030233547800,6.8865478515625,-7.350642748793959,5.991966624402999,-1.0118041761770844
1761508030243518500,6.8965185546875,-5.884604566314816,3.631694706377387,-0.32400574415028094
1761508030253490700,6.90649072265625,-4.118804269582033,1.5048820001363754,0.16264467711001634
1761508030263462700,6.916462646484375,-2.0820400830566883,-0.34266485191285606,0.6408823670729994
1761508030273433600,6.92643359375,-0.24914310312867163,-2.1542834814906118,1.3571224652081728
1761508030283405600,6.936405517578125,0.846524474388361,-3.898634162959456,2.177297277331352
1761508030293376800,6.946376708984375,1.2812170371353626,-5.643649445816874,2.883929881426692
1761508030303348500,6.956348388671875,1.4395464813947676,-7.2203376220136875,3.3894384401530027
1761508030313319700,6.966319580078125,1.6303689129799603,-8.320460425373911,3.5271360152721405
1761508030323291600,6.976291748046875,1.832679537785053,-8.97144479200542,3.3620240712657568
1761508030333262600,6.9862626953125,2.125306393331289,-9.532247952452302,3.1851424867495894
1761508030343234600,6.996234619140625,2.6392437577068804,-9.793515793138742,3.0817966785654423
1761508030353205800,7.006205810546875,3.25368907649219,-9.76791373437047,3.0225188524276017
1761508030363177500,7.016177490234375,3.7321295955508944,-9.667225162696838,2.915981554725766
1761508030373148700,7.026148681640625,3.9310786349684,-9.373366135007142,2.70291631167233
1761508030383120600,7.03612060546875,3.7337352771818635,-8.952347877347469,2.4875799088165165
1761508030393091600,7.046091552734375,3.3934722257137295,-8.46442056801915,2.4246184257298706
1761508030403063600,7.0560634765625,2.9907243687599894,-7.734649664920568,2.4728999338179825
1761508030413034800,7.06603466796875,2.7210861746132373,-7.126525365850329,2.5841204208999873
1761508030423006500,7.07600634765625,2.593331316837668,-6.951957903495431,2.7454499237582084
1761508030432977700,7.085977783203125,2.8223183516442774,-7.027745842668414,2.952138032995164
1761508030442949600,7.09594970703125,3.3100136057823892,-7.256353522768617,3.038741672953963
1761508030452920600,7.105920654296875,3.9497611236065624,-7.465562090393901,3.079979400010407
1761508030462892500,7.115892578125,4.399553055807948,-7.482238499906659,3.0923958139911294
1761508030472863700,7.12586376953125,4.576195570871234,-7.330414199757575,3.0903590474665164
1761508030482835500,7.13583544921875,4.481598886331915,-6.996669151881337,2.973276390352845
1761508030492806700,7.145806640625,4.096009669449925,-6.450946656188369,2.732819282504916
1761508030502778600,7.155778564453125,3.8085879813313483,-5.905368537402152,2.456035892778635
1761508030512749600,7.16574951171875,3.7337972365021703,-4.820173838582635,1.8744491797611116
1761508030522721500,7.175721435546875,3.634270109823346,-2.9015929638892413,1.0587146881729363
1761508030532692700,7.185692626953125,3.3801690920263527,-0.40540918511748314,0.06256196237504481
1761508030542664400,7.19566455078125,2.5110335573792457,2.698283391174674,-1.1840206914916633
1761508030552635600,7.2056357421875,0.7658990320563316,5.134148018062114,-2.2201368866264817
1761508030562607600,7.215607666015625,-0.884246010017395,6.95029961489439,-3.2063565396919844
1761508030572578600,7.22557861328125,-1.984970870923996,9.736001761803031,-4.451664643578231
1761508030582550500,7.235550537109375,-3.7309342482864856,13.010606200551987,-5.416580811852216
1761508030592521700,7.245521728515625,-6.447647614642977,15.08830796214342,-5.279871078726649
1761508030602493400,7.255493408203125,-8.949897561585903,14.657989961218833,-4.108134407007694
1761508030612464600,7.265464599609375,-9.901562326359748,12.047108374643326,-2.881810405054688
1761508030622436600,7.2754365234375,-8.85303351663649,8.330258765810727,-2.181561072255671
1761508030632407600,7.285407470703125,-5.791336500030756,5.473302231505513,-2.210999640446901
1761508030642379500,7.295379638671875,-2.5334897193372248,3.669624916321039,-2.637802618987858
1761508030652350700,7.305350830078125,-0.18576865532696246,2.60017256103456,-2.7082170484289527
1761508030662322400,7.315322509765625,1.0241945789337157,2.602753809699416,-2.4000267130479216
1761508030672293600,7.325293701171875,0.8452022858738899,3.064686261549592,-1.9154028291791676
1761508030682265600,7.335265625,-0.29513503897488114,3.4278187319517133,-1.7611881267622111
1761508030692236500,7.345236572265625,-1.155401038467884,3.6494834610462186,-1.5864710268035531
1761508030702208500,7.35520849609375,-1.4641969385266302,3.229746475368738,-1.0485811244323848
1761508030712179700,7.3651796875,-1.0430611919671295,2.110263137978315,-0.376466291488707
1761508030722151400,7.3751513671875,-0.035823008531332017,0.6920528746008873,0.091439389552176
1761508030732122600,7.38512255859375,0.8488345048964023,-0.7935048318624496,0.36552287266999484
1761508030742094600,7.395094482421875,1.5354565866202114,-2.0181793130427597,0.4660907405734062
1761508030752065500,7.4050654296875,2.122944340375066,-2.888023288220167,0.5505158674493432
1761508030762037500,7.41503759765625,2.439170098173618,-3.4492981578320263,0.7462699102178215
1761508030772008700,7.4250087890625,2.4327877036601304,-3.6143098563343283,1.0139365120306612
1761508030781980400,7.43498046875,2.202663773778081,-3.331909795770049,1.3074839895531534
1761508030791951600,7.44495166015625,1.8353478802114724,-2.9660522843182084,1.6615496486634016
1761508030801923600,7.454923583984375,1.3450439048796892,-2.6335832477271555,1.8099746617630124
1761508030811894500,7.46489453125,0.9311182358294725,-2.052371505501866,1.914891080264747
1761508030821866500,7.474866455078125,0.5664613323390484,-1.625551868087053,1.8519722672760486
1761508030831837700,7.484837646484375,0.22524784827828406,-1.2394745754271745,1.6101847876071929
1761508030841809400,7.494809326171875,-0.08213409332931042,-0.901570069783926,1.1791989704236387
1761508030851780600,7.504780517578125,-0.43835050073266024,-0.6605681875348091,0.6865063463896512
1761508030861752600,7.514752685546875,-0.7604547951757907,-0.4118938709616661,0.244282219094038
1761508030871723800,7.524723876953125,-1.0213730917721986,-0.20253917286396025,-0.09086042062044143
1761508030881695200,7.5346953125,-1.2181646608948706,-0.15664368312954902,-0.2817515335276723
1761508030891666400,7.54466650390625,-1.3369921158492564,-0.27721827401220794,-0.37671675911843777
1761508030901638100,7.55463818359375,-1.3427081554085016,-0.5019020586669445,-0.4170183743685484
1761508030911609300,7.564609375,-1.1710364144951104,-0.8462439038813113,-0.42684360281229017
1761508030921581300,7.574581298828125,-0.8383698095053433,-1.2952742040604353,-0.3243815917253494
1761508030931552500,7.584552490234375,-0.40688276480138297,-1.7538976774930952,-0.15880699864327907
1761508030941524200,7.594524169921875,0.0355927069067955,-2.166604618403315,-0.016465104849636553
1761508030951495400,7.604495361328125,0.4779050970077514,-2.566259770038724,0.16025018318891524
1761508030961467400,7.61446728515625,0.848122557234764,-2.9067157137304545,0.410066363273561
1761508030971438300,7.624438232421875,1.0660820020705462,-3.1174341013967988,0.6619687019824981
1761508030981410300,7.634410400390625,1.2044570380598305,-3.2285745089799165,0.8500392045110463
1761508030991381500,7.644381591796875,1.333975398376584,-3.3008605775117874,0.9411457088470458
1761508031001353200,7.654353271484375,1.3140168984532354,-3.3770845700144765,1.1213780650958418
1761508031011324400,7.664324462890625,1.2649684976458548,-3.446454458838701,1.3054641741633415
1761508031021296400,7.67429638671875,1.2672013712644576,-3.5743256364703178,1.3046335685580968
1761508031031267300,7.684267333984375,1.4078548735797405,-3.5515205149441957,1.1732499988913536
1761508031041239300,7.6942392578125,1.6256594201147556,-3.310132263725996,1.068954342636466
1761508031051210500,7.70421044921875,1.726238101673126,-2.7824259017169473,1.0128796964541078
1761508031061182200,7.71418212890625,1.6268325555473566,-1.990231567931175,0.8671089972555637
1761508031071153400,7.7241533203125,1.1007231073409318,-0.992436920145154,0.5416109687209129
1761508031081125400,7.73412548828125,0.20983985126614568,0.35267888092696664,0.05327244824320078
1761508031091096300,7.744096435546875,-0.7386544667780399,2.2524229532033204,-0.7664727402910589
1761508031101068300,7.754068359375,-1.736976937830448,5.032969032523035,-2.1273741395160553
1761508031111039500,7.76403955078125,-2.8888942258358,8.145315455392003,-3.579189150853455
1761508031121011200,7.77401123046875,-4.174844136711955,10.785600246584416,-4.73306780205965
1761508031130982400,7.783982421875,-5.288176550257206,12.84854867568016,-5.6142988481700415
1761508031140954400,7.793954345703125,-6.105742641186714,14.289633618688583,-6.059539692938327
1761508031150925300,7.80392529296875,-6.682056089976429,14.845329226863383,-6.035563774067163
1761508031160897300,7.813897216796875,-6.799850694751739,14.543680860471724,-5.807437740004063
1761508031170868500,7.823868408203125,-6.446112075638771,13.138235386121272,-4.866296122810244
1761508031180840200,7.833840087890625,-5.67161355754137,10.915752228629588,-3.446501220589876
1761508031190811400,7.843811279296875,-4.76080044311583,8.483215284860133,-2.1929203783988953
1761508031200783400,7.853783447265625,-3.8310365445047614,6.219027075061201,-1.079344219225645
1761508031210754300,7.86375439453125,-2.9542823515474796,4.262084613269567,0.050179158402979374
1761508031220726300,7.873726318359375,-2.1776742939502,2.5828695440560576,0.9404510045811534
1761508031230697500,7.883697509765625,-1.6092010372668504,0.9955921693056822,1.573753584049642
1761508031240669200,7.893669189453125,-0.7729857754468917,-0.4148690873801708,2.0158166755646465
1761508031250640400,7.903640380859375,0.07256488547325134,-1.8427385749846696,2.460621759264171
1761508031260612400,7.9136123046875,0.7933651311308145,-3.5052456705033777,2.932639844059944
1761508031270583300,7.923583251953125,1.5085112965494394,-5.29335307611227,3.2494492469653484
1761508031280555300,7.93355517578125,2.0590175193876026,-7.096506659683585,3.5997587684124706
1761508031290526500,7.9435263671875,2.572728673791885,-8.79261031985581,3.896406550037861
1761508031300498200,7.953498291015625,3.325337431642413,-9.988221203637123,3.460018873810768
1761508031310469400,7.963469482421875,3.9930835479825735,-10.823863049483299,2.1916572265952823
1761508031320441300,7.97344140625,4.549322761514783,-11.271471207904815,0.6792199887737631
1761508031330412300,7.983412353515625,4.78480266547203,-11.138649129867552,-0.014933072976768016
1761508031340384300,7.99338427734375,4.442043121013045,-10.515561654943227,0.12017039399594068
1761508031350355500,8.00335546875,3.5341888563930985,-9.322154418686031,0.5884831945329905
1761508031360327200,8.0133271484375,2.342971823656559,-7.84421595505476,1.5524974455311893
1761508031370298400,8.02329833984375,1.2694552876710892,-6.735140614432096,2.872441688206792
1761508031380270300,8.033270263671875,0.5850573117375374,-6.2912821639329195,4.1287981325909495
1761508031390241300,8.0432412109375,0.4195873480737209,-6.1293584945738315,4.599000984658301
1761508031400213200,8.053213134765626,0.8002525525569916,-5.9810045008838175,4.189241495376825
1761508031410184400,8.063184326171875,1.5769494574815035,-6.1059238429725164,3.538936343181133
1761508031420156200,8.07315625,2.5113135433644054,-6.569215308216214,2.852337934593856
1761508031430127400,8.08312744140625,3.323005773824453,-6.983395828810334,2.2611615554541347
1761508031440099300,8.093099365234375,3.8967280370771884,-7.232819502446055,1.9464280820399522
1761508031450070300,8.1030703125,4.154261367410421,-7.333350837731361,1.7517022132754325
1761508031460042200,8.113042236328125,4.038206884300709,-7.055963052371144,1.7079904973208904
1761508031470013400,8.123013427734374,3.47403980037868,-6.441685491368174,1.6855340431019663
1761508031479985200,8.132985107421876,2.662338217568397,-5.232278721946478,1.1978256372213363
1761508031489956400,8.142956298828125,1.7086486689686775,-3.1836236066192387,0.2777913977250457
1761508031499928300,8.15292822265625,0.6661924571573734,-0.7153168458104133,-0.6045701137199998
1761508031509899300,8.162899169921875,-0.36870764018595215,2.076270267483592,-1.4622481425464153
1761508031519871200,8.172871337890625,-1.321200087955594,4.695579490664601,-2.1538658406004307
1761508031529842400,8.182842529296876,-1.7121376801282167,7.0951610902935265,-2.9948811961784956
1761508031539814100,8.192814208984375,-0.9878320566982031,10.732376021397114,-4.930313544690609
1761508031549785300,8.202785400390624,-0.6141337686181068,14.519755210483073,-6.1864768045902245
1761508031559757300,8.21275732421875,-2.7060055098593234,14.913846882772445,-4.872186057631671
1761508031569728300,8.222728271484375,-6.228640706580877,13.875236824995278,-2.6888822333618996
1761508031579700200,8.2327001953125,-9.217337953427434,12.002026539379358,-0.8278121751338243
1761508031589671400,8.24267138671875,-10.551585739004611,9.239200241145491,0.40685353870689867
1761508031599643100,8.25264306640625,-9.557545475316047,7.387932322746515,0.31273703889995813
1761508031609614300,8.2626142578125,-6.489896272307634,6.898244433486461,-0.6440083901390433
1761508031619586300,8.27258642578125,-3.9711055249303575,5.92982376422286,-1.5208970231309533
1761508031629557200,8.28255712890625,-2.636422855067253,4.65469978326559,-1.6732824642941355
1761508031639529200,8.292529296875,-1.828753888773918,3.8150720826536415,-1.2830766935274005
1761508031649500400,8.30250048828125,-1.238701252967119,3.142731039738655,-0.8128942997261881
1761508031659472100,8.31247216796875,-0.9700865566492081,2.1956927657216787,-0.5529796272143721
1761508031669443300,8.322443359375,-0.7703437365055084,1.1964619476526974,-0.5370478985890745
1761508031679415300,8.332415283203124,-0.47918578446805477,0.4154015868216753,-0.47164779017865655
1761508031689386200,8.34238623046875,-0.1461877555668354,-0.41449674693644045,-0.29230244589745996
1761508031699358200,8.352358154296875,0.2876210100829601,-1.2725000621944664,-0.23009441152662038
1761508031709329400,8.362329345703126,0.8676146086901426,-1.9748019436091184,-0.09671499186754226
1761508031719301000,8.372301025390625,1.4879180058538912,-2.627660871940851,0.19970716430842875
1761508031729272300,8.382272216796874,2.43493348351717,-3.1311797181546686,0.4023980206027627
1761508031739244300,8.392244384765625,3.602466273805499,-3.5164129612058397,0.4054921872258186
1761508031749215500,8.402215576171875,4.727818795490265,-3.783856860178709,0.4543529565066099
1761508031759187200,8.412187255859376,5.4109927825868125,-3.817191559025645,0.5720889629624784
1761508031769159400,8.422159423828125,5.717821766486764,-3.531079199939966,0.7317457103028893
1761508031779130000,8.432130126953124,5.531912825906276,-3.1237019296199082,0.8452335577949881
1761508031789102300,8.442102294921876,5.038923557013273,-2.414453590068221,0.8428761810138821
1761508031799073300,8.4520732421875,4.268280545300245,-1.6155694032549857,0.699988928297162
1761508031809045200,8.462045166015624,3.372456910213828,-0.9594441666036844,0.39675066236555573
1761508031819016200,8.47201611328125,2.657989374709129,-0.4566092110008001,-0.07259440382868051
1761508031828988400,8.481988525390625,2.10588974519968,-0.056713820868730544,-0.45490620647519825
1761508031838959000,8.491958984375,1.5352777229219674,0.26957272769510743,-0.7446845407225191
1761508031848931300,8.501931396484375,0.8451046707183122,0.5349281299561262,-0.868145354565978
1761508031858902300,8.51190234375,0.0981640216320753,0.8928080866575241,-0.6412262120746076
1761508031868874200,8.521874267578125,-0.5593886174738407,1.2658563863962888,-0.29680297218710183
1761508031878845400,8.531845458984375,-1.0067162053883074,1.346618022328615,-0.03510492338985204
1761508031888817700,8.541817626953126,-1.2065531335562467,1.157232345548272,0.04322773182988167
1761508031898788400,8.551788330078125,-1.113582004392147,0.767573102748394,-0.002323474511504173
1761508031908760600,8.561760498046874,-0.7845482029467821,0.29177696071863174,-0.05237754523009062
1761508031918731500,8.5717314453125,-0.5126455709993839,-0.03652911097407341,0.025455782165378332
1761508031928703500,8.581703369140625,-0.3108668611139059,-0.2298474510282278,0.21391382270678877
1761508031938674400,8.59167431640625,0.135835872900486,-0.7568973949551582,-1.8223292625539003
1761508031948646700,8.601646728515625,1.0536053823351859,-2.633733469852805,-3.8841280832231044
1761508031958617300,8.611617431640624,1.2050924133539198,-1.8029986852705477,-2.8887101014405485
1761508031968589600,8.621589599609376,1.220139175838232,-1.415159059113264,-2.267032493314147
1761508031978560500,8.631560546875,0.24594927552342413,-1.1818752038955689,-2.0890610677346584
1761508031988532500,8.641532470703124,-0.7130383794844151,-0.7944090872257947,-1.3383910228617488
1761508031998503400,8.65150341796875,-1.4755185430079698,-0.4479863440841436,-0.7391878430023789
1761508032008475600,8.6614755859375,-1.889577483049035,-0.029192776736617087,0.22379019681587814
1761508032018446300,8.6714462890625,-2.026353851670027,0.22172493484914302,1.2464464602664111
1761508032028418600,8.68141845703125,-1.6575579486787317,0.17966858488619328,1.7288441925182938
1761508032038390500,8.691390625,-1.2982710477888584,0.0838993494361639,1.9490872182466088
1761508032048361500,8.701361572265625,-1.2387725646376608,0.1884685619354248,2.184430782473087
1761508032058332400,8.71133251953125,-1.214937515541911,0.4403057264536619,2.2886580496668816
1761508032068304600,8.7213046875,-0.8966185848563909,0.47619244787096976,2.135094212374091
1761508032078275300,8.731275390625,-0.6430927365988492,0.2559159582644701,1.7668465909153221
1761508032088247600,8.74124755859375,-0.5582265879571437,0.219874923068285,1.3454343655019998
1761508032098219500,8.751219482421876,-0.4294476478308439,0.06733458360433578,0.9314803471401333
1761508032108190500,8.7611904296875,-0.15672668523788452,-0.18041911099255084,0.456816424010694
1761508032118162700,8.77116259765625,0.2981540945351124,-0.4377349991828203,0.01837415334135294
1761508032128133600,8.781133544921875,0.8064911546856165,-0.7052969715774059,-0.2678149242423475
1761508032138105600,8.791105712890625,1.145080135461688,-0.6844634423851966,-0.3883599967695772
1761508032148076500,8.80107666015625,1.059023315730691,-0.48606677615344523,-0.45339273317232726
1761508032158048500,8.811048583984375,0.7858084321409463,-0.26555940040051934,-0.5492882253505289
1761508032168019500,8.82101953125,0.3893488616764545,-0.01447626911997795,-0.49668885406330227
1761508032177991700,8.83099169921875,0.05213175377547741,0.2047200240343809,-0.26168343575000763
1761508032187962600,8.840962646484375,-0.19135142389535903,0.36755671658515926,-0.07742606176882982
1761508032197934600,8.8509345703125,-0.35653906348645686,0.2575222244173288,-0.0059749827563762665
1761508032207905500,8.860905517578125,0.016627309674024583,0.25611001953184603,-0.178525844591856
1761508032217877500,8.87087744140625,0.6331476811677217,0.2441816813290119,-0.4166293750509619
1761508032227848400,8.880848388671875,0.979143138808012,0.06924304757416248,-0.39660760063305495
1761508032237820700,8.890820556640625,1.0865116266369819,0.064523617836833,-0.2129249577999115
1761508032247791600,8.90079150390625,0.7639572503387928,0.08554068690240382,0.0018349603421986102
1761508032257763600,8.910763671875,-0.0810802003622055,0.06329729091227054,0.03831993991360068
1761508032267734500,8.920734619140624,-1.0640285766720772,-0.26581717455387116,-0.2433808863401413
1761508032277706500,8.93070654296875,-1.4107570247620342,-0.25088907001316546,-0.6741733729086816
