time,seconds_elapsed,z,y,x
1761508023423009300,0.07600927734375,-0.05547861382365227,0.02545730583369732,-0.02481977641582489
1761508023432981500,0.0859814453125,-0.0563846193253994,0.03423382341861725,-0.06516895443201065
1761508023442953500,0.095953369140625,-0.04952245205640793,0.058758608996868134,-0.10294057428836823
1761508023452924400,0.10592431640625,-0.041026435792446136,0.08878574520349503,-0.12675215303897858
1761508023462896400,0.115896484375,-0.02641500160098076,0.11747731268405914,-0.13141481578350067
1761508023472867600,0.12586767578125,-0.013810569420456886,0.14394274353981018,-0.1215277686715126
1761508023482839300,0.13583935546875,0.003784402273595333,0.15512855350971222,-0.1054646447300911
1761508023492810500,0.145810546875,0.010496633127331734,0.15284694731235504,-0.09206026792526245
1761508023502782500,0.155782470703125,0.009015649557113647,0.12857995927333832,-0.07766694575548172
1761508023512753400,0.16575341796875,0.004702348727732897,0.08882699906826019,-0.07018798589706421
1761508023522725400,0.175725341796875,-0.0012191897258162498,0.04187094792723656,-0.06206267699599266
1761508023532696600,0.185696533203125,-0.009470906108617783,-0.007071929983794689,-0.04770106077194214
1761508023542668300,0.195668212890625,-0.014829719439148903,-0.04388826712965965,-0.029150815680623055
1761508023552639500,0.205639404296875,-0.022448444738984108,-0.06035151705145836,-0.010251540690660477
1761508023562611500,0.215611572265625,-0.023348327726125717,-0.053769245743751526,0.010713662020862103
1761508023572582400,0.22558251953125,-0.02834765799343586,-0.0281046312302351,0.024510234594345093
1761508023582554400,0.235554443359375,-0.020918505266308784,0.00865418091416359,0.02761494740843773
1761508023592525600,0.245525634765625,-0.020078366622328758,0.039018720388412476,0.013648496009409428
1761508023602497300,0.255497314453125,-0.017419731244444847,0.055914077907800674,-0.0020018359646201134
1761508023612468500,0.265468505859375,-0.013971160165965557,0.06537622213363647,-0.004398856777697802
1761508023622440400,0.2754404296875,-0.009505038149654865,0.06363877654075623,0.01076438371092081
1761508023632411400,0.285411376953125,-0.008745771832764149,0.051721394062042236,0.030063778162002563
1761508023642383400,0.29538330078125,-0.006924169138073921,0.039551813155412674,0.05255524069070816
1761508023652354600,0.3053544921875,0.001961556263267994,0.02563375048339367,0.07430402934551239
1761508023662326300,0.315326171875,0.006364027503877878,0.013595197349786758,0.08373668044805527
1761508023672297500,0.32529736328125,0.00538465054705739,0.0013669295003637671,0.08141778409481049
1761508023682269400,0.33526953125,0.0014341175556182861,-0.0007244509179145098,0.07163306325674057
1761508023692240400,0.345240478515625,0.004732843022793531,0.001465971814468503,0.06265078485012054
1761508023702212400,0.35521240234375,0.002149576786905527,0.006912136450409889,0.04933098703622818
1761508023712183600,0.36518359375,-0.00020514661446213722,0.016411244869232178,0.03730776533484459
1761508023722155300,0.3751552734375,-0.00832805410027504,0.026068132370710373,0.034269630908966064
1761508023732126500,0.38512646484375,-0.009426120668649673,0.030466269701719284,0.029247665777802467
1761508023742098400,0.395098388671875,-0.010533995926380157,0.027583397924900055,0.017145197838544846
1761508023752069400,0.4050693359375,-0.016790781170129776,0.016806457191705704,0.00346351508051157
1761508023762041300,0.415041259765625,-0.02313496358692646,-0.0014907910954207182,-0.012066975235939026
1761508023772012500,0.425012451171875,-0.03500218689441681,-0.013152624480426311,-0.024141130968928337
1761508023781984300,0.434984375,-0.045992787927389145,-0.016397951170802116,-0.02848368138074875
1761508023791955500,0.44495556640625,-0.04907623678445816,-0.009414027445018291,-0.032662976533174515
1761508023801927400,0.454927490234375,-0.04382927715778351,0.001147802802734077,-0.02614009380340576
1761508023811898400,0.4648984375,-0.033952370285987854,0.01606638729572296,-0.014332489110529423
1761508023821870300,0.474870361328125,-0.022267483174800873,0.027781900018453598,0.003617482492700219
1761508023831841500,0.484841552734375,-0.017619024962186813,0.03578460216522217,0.02241579070687294
1761508023841813200,0.494813232421875,-0.014914317056536674,0.035414692014455795,0.032671090215444565
1761508023851785500,0.504785400390625,-0.02292626164853573,0.028320947661995888,0.03561193868517876
1761508023861756400,0.51475634765625,-0.02990880236029625,0.022579705342650414,0.03676268830895424
1761508023871726800,0.524726806640625,-0.03802536427974701,0.011550736613571644,0.02785591036081314
1761508023881698600,0.534698486328125,-0.041605718433856964,0.01074726041406393,0.023563958704471588
1761508023891670800,0.5446708984375,-0.044068917632102966,0.01707485504448414,0.01836116425693035
1761508023901641700,0.554641845703125,-0.04578479379415512,0.02659805305302143,0.021556692197918892
1761508023911613700,0.56461376953125,-0.04851555451750755,0.04015102609992027,0.01896611973643303
1761508023921584600,0.574584716796875,-0.04975605383515358,0.05060659721493721,0.01054387353360653
1761508023931556600,0.584556640625,-0.06032893434166908,0.0598774217069149,0.011882723309099674
1761508023941527600,0.594527587890625,-0.06540092080831528,0.07940691709518433,0.007896237075328827
1761508023951499800,0.604499755859375,-0.06961578130722046,0.10133768618106842,-0.0009532589465379715
1761508023961470700,0.614470703125,-0.07657542079687119,0.12240142375230789,-0.017176970839500427
1761508023971442700,0.624442626953125,-0.08749020099639893,0.13726024329662323,-0.034409258514642715
1761508023981413600,0.63441357421875,-0.0915195643901825,0.13969597220420837,-0.045231278985738754
1761508023991385600,0.644385498046875,-0.09232006967067719,0.12498580664396286,-0.04468688368797302
1761508024001356500,0.6543564453125,-0.09293472766876221,0.09853582084178925,-0.03870116174221039
1761508024011328800,0.664328857421875,-0.08175206929445267,0.056147500872612,-0.014770912937819958
1761508024021299700,0.6742998046875,-0.06826236099004745,0.011836227029561996,0.021434228867292404
1761508024031271700,0.684271728515625,-0.05664747580885887,-0.029991021379828453,0.05928807705640793
1761508024041242600,0.69424267578125,-0.046378590166568756,-0.06163789704442024,0.072366863489151
1761508024051214600,0.704214599609375,-0.04143962636590004,-0.0672365128993988,0.06562002748250961
1761508024061185500,0.714185546875,-0.03926169127225876,-0.049737945199012756,0.04935210943222046
1761508024071157800,0.72415771484375,-0.0361156091094017,-0.023313967511057854,0.018091270700097084
1761508024081128700,0.734128662109375,-0.033546458929777145,0.004558144602924585,-0.0010062558576464653
1761508024091100700,0.7441005859375,-0.03359190747141838,0.019351761788129807,-0.02276317961513996
1761508024101071600,0.754071533203125,-0.02774067595601082,0.02574361488223076,-0.03002801723778248
1761508024111043600,0.764043701171875,-0.024777378886938095,0.02135000191628933,-0.029192740097641945
1761508024121014500,0.7740146484375,-0.02172965742647648,0.011763421818614006,-0.021897010505199432
1761508024130986800,0.78398681640625,-0.02256513573229313,-0.002338036894798279,-0.010131269693374634
1761508024140957700,0.793957763671875,-0.025302067399024963,-0.011321944184601307,-0.00343661499209702
1761508024150929700,0.8039296875,-0.02912876382470131,-0.008510570041835308,0.0015756729990243912
1761508024160900600,0.813900634765625,-0.026407543569803238,0.0041756643913686275,-0.002744240453466773
1761508024170872600,0.82387255859375,-0.02250712364912033,0.012306541204452515,-0.01933716982603073
1761508024180843500,0.833843505859375,-0.028123732656240463,0.022105375304818153,-0.0346255786716938
1761508024190815700,0.843815673828125,-0.03572177514433861,0.029625291004776955,-0.0373634435236454
1761508024200786700,0.85378662109375,-0.035164110362529755,0.04645327106118202,-0.03531041368842125
1761508024210758700,0.863758544921875,-0.03568808361887932,0.05596543103456497,-0.03655595704913139
1761508024220729600,0.8737294921875,-0.029997706413269043,0.06849906593561172,-0.031749218702316284
1761508024230701600,0.88370166015625,-0.021930193528532982,0.08403521776199341,-0.02115478739142418
1761508024240672500,0.893672607421875,-0.012461857870221138,0.10258493572473526,-0.008923954330384731
1761508024250644700,0.903644775390625,-0.013024317100644112,0.10885348170995712,-0.007597167510539293
1761508024260615700,0.91361572265625,-0.020198605954647064,0.10865560919046402,-0.003088435623794794
1761508024270587600,0.923587646484375,-0.027822839096188545,0.10625387728214264,-0.003667219541966915
1761508024280558600,0.93355859375,-0.02953098900616169,0.09010127186775208,-0.0017787718679755926
1761508024290530600,0.943530517578125,-0.025469712913036346,0.07758160680532455,0.012529442086815834
1761508024300501500,0.95350146484375,-0.017354261130094528,0.06207108870148659,0.027214910835027695
1761508024310473700,0.9634736328125,-0.012589555233716965,0.053578875958919525,0.03636051341891289
1761508024320445700,0.97344580078125,-0.010461157187819481,0.03670668601989746,0.038740046322345734
1761508024330416600,0.983416748046875,-0.004728925414383411,0.02104976959526539,0.03575815260410309
1761508024340388900,0.993388916015625,-0.0026407409459352493,0.0011639456497505307,0.023562204092741013
1761508024350359600,1.003359619140625,0.0007718340493738651,-0.013670127838850021,0.007448747754096985
1761508024360331800,1.013331787109375,-0.002091330476105213,-0.027057040482759476,-0.015451507642865181
1761508024370302700,1.023302734375,-0.006921150255948305,-0.03092106617987156,-0.03414883464574814
1761508024380274700,1.033274658203125,-0.006719815079122782,-0.030354080721735954,-0.04660843685269356
1761508024390245600,1.04324560546875,-0.008341236039996147,-0.021386032924056053,-0.04686710983514786
1761508024400217900,1.0532177734375,-0.0015107612125575542,-0.018712753430008888,-0.03723525628447533
1761508024410188800,1.063188720703125,0.004224400036036968,-0.014783645048737526,-0.015508770942687988
1761508024420160800,1.073160888671875,0.0150064742192626,-0.012811042368412018,0.008432247675955296
1761508024430131700,1.083131591796875,0.02411191165447235,-0.01732069067656994,0.02132389508187771
1761508024440103700,1.093103759765625,0.023163026198744774,-0.03323201462626457,0.027156749740242958
1761508024450074600,1.10307470703125,0.021364860236644745,-0.044433873146772385,0.020203925669193268
1761508024460046800,1.113046875,0.009380634874105453,-0.04362213984131813,-0.007682831957936287
1761508024470017800,1.123017822265625,0.0005764025263488293,-0.02744271606206894,-0.05341194570064545
1761508024479989800,1.13298974609375,-0.004410100635141134,-0.007429326884448528,-0.10089504718780518
1761508024489960700,1.142960693359375,-0.004594390746206045,0.01437477208673954,-0.14010769128799438
1761508024499932700,1.1529326171875,-0.001309648621827364,0.042153142392635345,-0.1682216227054596
1761508024509903600,1.162903564453125,0.002797212451696396,0.11946935206651688,-0.2023174911737442
1761508024519875800,1.172875732421875,-0.009842149913311005,0.2652673125267029,-0.27810680866241455
1761508024529846800,1.1828466796875,-0.03151002898812294,0.41256940364837646,-0.3848063051700592
1761508024539818800,1.19281884765625,-0.04416350647807121,0.5556122660636902,-0.4929561913013458
1761508024549789700,1.202789794921875,-0.036932047456502914,0.6652742624282837,-0.5815717577934265
1761508024559761700,1.21276171875,-0.021941911429166794,0.7354562878608704,-0.6377295255661011
1761508024569732600,1.222732666015625,-0.013161690905690193,0.7610647082328796,-0.678263783454895
1761508024579704800,1.232704833984375,-0.008996240794658661,0.757908821105957,-0.7035489082336426
1761508024589675800,1.24267578125,0.0041093965992331505,0.7657572031021118,-0.6624321937561035
1761508024599647700,1.252647705078125,0.03711075708270073,0.7488144040107727,-0.624950110912323
1761508024609618700,1.26261865234375,0.07222169637680054,0.7609275579452515,-0.555357813835144
1761508024619590700,1.272590576171875,0.05502912402153015,0.7708693742752075,-0.4834285378456116
1761508024629561600,1.2825615234375,0.004004817456007004,0.6722937822341919,-0.4733591079711914
1761508024639533800,1.292533935546875,-0.07139912247657776,0.41557228565216064,-0.5464351177215576
1761508024649504800,1.3025048828125,-0.15455283224582672,0.024302801117300987,-0.6660732626914978
1761508024659476700,1.312476806640625,-0.19724781811237335,-0.43690475821495056,-0.7983130812644958
1761508024669447700,1.32244775390625,-0.16872470080852509,-0.9143734574317932,-0.9427975416183472
1761508024679419600,1.332419677734375,-0.08473046123981476,-1.3046661615371704,-1.1138116121292114
1761508024689390600,1.342390625,0.0929039791226387,-1.632631778717041,-1.2983430624008179
1761508024699362800,1.35236279296875,0.3350899815559387,-1.8691401481628418,-1.5018229484558105
1761508024709333800,1.362333740234375,0.5638189315795898,-2.03792142868042,-1.7111057043075562
1761508024719305700,1.3723056640625,0.7931256294250488,-2.1363611221313477,-1.8937636613845825
1761508024729277700,1.382277587890625,1.0418599843978882,-2.1771442890167236,-2.0718252658843994
1761508024739248600,1.39224853515625,1.2591075897216797,-2.169668674468994,-2.2547531127929688
1761508024749220600,1.402220703125,1.4192620515823364,-2.1495039463043213,-2.464261054992676
1761508024759191800,1.41219189453125,1.5120772123336792,-2.131352424621582,-2.6839582920074463
1761508024769163500,1.42216357421875,1.526579737663269,-2.103147506713867,-2.947094202041626
1761508024779134700,1.432134765625,1.4222643375396729,-2.127441167831421,-3.306448221206665
1761508024789106700,1.442106689453125,1.3016196489334106,-2.1855342388153076,-3.6668813228607178
1761508024799077600,1.45207763671875,1.2786983251571655,-2.2782793045043945,-3.87500262260437
1761508024809049600,1.462049560546875,1.3392003774642944,-2.416008472442627,-4.015288829803467
1761508024819020800,1.472020751953125,1.3896784782409668,-2.6736984252929688,-4.240939617156982
1761508024828992500,1.481992431640625,1.2514629364013672,-2.8841447830200195,-4.677574157714844
1761508024838963700,1.491963623046875,0.977875292301178,-2.798154830932617,-5.1411261558532715
1761508024848935700,1.501935791015625,0.8335317373275757,-2.2474365234375,-5.261848449707031
1761508024858906600,1.51190673828125,0.8065094351768494,-1.4948039054870605,-4.932961940765381
1761508024868878600,1.521878662109375,0.7436438798904419,-0.8590450286865234,-4.176732063293457
1761508024878850300,1.531850341796875,0.6441277265548706,-0.6729318499565125,-3.331066608428955
1761508024888822000,1.541822021484375,0.5621161460876465,-0.8620262145996094,-2.7883646488189697
1761508024898793200,1.551793212890625,0.533679723739624,-1.1727843284606934,-2.6928789615631104
1761508024908765200,1.56176513671875,0.6211893558502197,-1.5334367752075195,-2.948798179626465
1761508024918736100,1.571736083984375,0.7959936261177063,-1.8575645685195923,-3.2974181175231934
1761508024928708000,1.5817080078125,0.9513968229293823,-2.116659164428711,-3.475393056869507
1761508024938679300,1.59167919921875,0.9196839332580566,-2.2886977195739746,-3.366612195968628
1761508024948651000,1.601651123046875,0.7601587772369385,-2.283283233642578,-3.0727405548095703
1761508024958622200,1.611622314453125,0.6354866623878479,-2.066263437271118,-2.7432162761688232
1761508024968594200,1.62159423828125,0.5785672664642334,-1.647768259048462,-2.4137516021728516
1761508024978565000,1.631565185546875,0.5440287590026855,-1.1663094758987427,-2.1162641048431396
1761508024988537000,1.641537109375,0.47804298996925354,-0.7226437926292419,-1.8100569248199463
1761508024998508300,1.65150830078125,0.3518994152545929,-0.36331915855407715,-1.5023525953292847
1761508025008480000,1.66147998046875,0.1539442539215088,-0.03337154537439346,-1.2755906581878662
1761508025018451200,1.671451171875,-0.03859803080558777,0.2761208117008209,-1.1526458263397217
1761508025028423200,1.681423095703125,-0.16882865130901337,0.5509414076805115,-1.1183243989944458
1761508025038394000,1.69139404296875,-0.2521677315235138,0.8011965155601501,-1.1120270490646362
1761508025048366000,1.701365966796875,-0.30548402667045593,0.9580557942390442,-1.101709008216858
1761508025058337300,1.711337158203125,-0.3436010479927063,0.9983766078948975,-1.0562293529510498
1761508025068309000,1.72130908203125,-0.36125442385673523,0.9857660531997681,-0.9597924947738647
1761508025078280200,1.7312802734375,-0.3661900758743286,0.9352285861968994,-0.8426634669303894
1761508025088252200,1.741252197265625,-0.3416628837585449,0.8495431542396545,-0.7571381330490112
1761508025098223000,1.75122314453125,-0.2719604969024658,0.7597168684005737,-0.6645320057868958
1761508025108195000,1.761195068359375,-0.17690451443195343,0.6599470376968384,-0.5861536860466003
1761508025118166300,1.771166259765625,-0.08707129210233688,0.5676751732826233,-0.5300204157829285
1761508025128138000,1.781137939453125,-0.01109357364475727,0.46580448746681213,-0.4744720160961151
1761508025138109200,1.791109130859375,0.025996537879109383,0.37639179825782776,-0.41795095801353455
1761508025148081200,1.8010810546875,0.04175499454140663,0.26173242926597595,-0.36734357476234436
1761508025158052000,1.811052001953125,0.044552646577358246,0.20062193274497986,-0.3099077343940735
1761508025168024000,1.821024169921875,0.04303029552102089,0.18523985147476196,-0.2665725350379944
1761508025177995300,1.830995361328125,0.028610076755285263,0.15269574522972107,-0.23791396617889404
1761508025187967000,1.840967041015625,0.026256244629621506,0.06266887485980988,-0.21574701368808746
1761508025197938200,1.850938232421875,0.00919097475707531,-0.0560857392847538,-0.2252366542816162
1761508025207910100,1.86091015625,-0.007911980152130127,-0.22694246470928192,-0.291759192943573
1761508025217881000,1.870881103515625,0.0008309110999107361,-0.3802907168865204,-0.3711586594581604
1761508025227853000,1.88085302734375,0.03429131209850311,-0.48978689312934875,-0.45633620023727417
1761508025237824300,1.89082421875,0.10659454017877579,-0.5673775672912598,-0.5152384042739868
1761508025247796000,1.9007958984375,0.16600416600704193,-0.5556235909461975,-0.5107582807540894
1761508025257767200,1.91076708984375,0.19018645584583282,-0.4860120415687561,-0.43246906995773315
1761508025267739100,1.9207392578125,0.18976522982120514,-0.38827040791511536,-0.3072868287563324
1761508025277710000,1.9307099609375,0.19571153819561005,-0.27783098816871643,-0.20023255050182343
1761508025287682000,1.94068212890625,0.2256806641817093,-0.18754123151302338,-0.13891907036304474
1761508025297653200,1.9506533203125,0.2513261139392853,-0.14663293957710266,-0.11207148432731628
1761508025307625000,1.960625,0.20678727328777313,-0.17850901186466217,-0.12380396574735641
1761508025317596200,1.97059619140625,0.10615386813879013,-0.31344446539878845,-0.2169211208820343
1761508025327568100,1.980568115234375,-0.0014286027289927006,-0.5226165056228638,-0.4091186225414276
1761508025337539000,1.9905390625,-0.06948088854551315,-0.6754633188247681,-0.6457293033599854
1761508025347511000,2.000510986328125,-0.14565861225128174,-0.7145370841026306,-0.8632681965827942
1761508025357482200,2.010482177734375,-0.24480731785297394,-0.6336718201637268,-1.0187677145004272
1761508025367454000,2.020453857421875,-0.3382361829280853,-0.37611737847328186,-1.1050537824630737
1761508025377425200,2.030425048828125,-0.37360721826553345,0.032092735171318054,-1.1029411554336548
1761508025387397000,2.040397216796875,-0.31813696026802063,0.45843181014060974,-0.9630300998687744
1761508025397369000,2.050369140625,-0.23088034987449646,0.7047404050827026,-0.7214789986610413
1761508025407340000,2.060340087890625,-0.16285589337348938,0.7127571105957031,-0.42269790172576904
1761508025417312300,2.070312255859375,-0.11204570531845093,0.538762629032135,-0.1850065290927887
1761508025427283000,2.080282958984375,-0.046527281403541565,0.3150680959224701,-0.05158121511340141
1761508025437255200,2.090255126953125,0.03611060604453087,0.14178816974163055,-0.02226061187684536
1761508025447226000,2.10022607421875,0.1371316760778427,0.03844296932220459,-0.09671405702829361
1761508025457198000,2.110197998046875,0.2567816376686096,-0.01914042793214321,-0.2056509405374527
1761508025467169000,2.1201689453125,0.35221779346466064,-0.09728837758302689,-0.2976888120174408
1761508025477141200,2.130141357421875,0.3463974595069885,-0.1177893877029419,-0.26021653413772583
1761508025487112000,2.14011181640625,0.25626707077026367,-0.031100032851099968,-0.07384990900754929
1761508025497084200,2.150084228515625,0.15035395324230194,0.06365550309419632,0.1444169133901596
1761508025507055000,2.16005517578125,0.053223542869091034,0.10503466427326202,0.3438127934932709
1761508025517027000,2.170027099609375,-0.026196444407105446,0.07419233024120331,0.4815669357776642
1761508025526998000,2.179998046875,-0.05600143224000931,0.008803881704807281,0.536487340927124
1761508025536970200,2.18997021484375,-0.0329911932349205,-0.1404910534620285,0.5393646359443665
1761508025546941000,2.19994091796875,0.03852285444736481,-0.3355235755443573,0.5157569050788879
1761508025556913200,2.2099130859375,0.06502370536327362,-0.48529016971588135,0.44463297724723816
1761508025566884000,2.219884033203125,0.018715236335992813,-0.51020747423172,0.36190691590309143
1761508025576856000,2.22985595703125,-0.06054922565817833,-0.37526991963386536,0.30877232551574707
1761508025586827000,2.239826904296875,-0.14575426280498505,-0.14365430176258087,0.29627811908721924
1761508025596799200,2.24979931640625,-0.19177688658237457,0.06747684627771378,0.32044950127601624
1761508025606770000,2.25977001953125,-0.21042874455451965,0.23719187080860138,0.3698870539665222
1761508025616742100,2.2697421875,-0.19932255148887634,0.32440829277038574,0.4258382320404053
1761508025626713300,2.27971337890625,-0.1617535650730133,0.3040831685066223,0.4541427195072174
1761508025636685000,2.28968505859375,-0.10124307870864868,0.24913576245307922,0.46564117074012756
1761508025646656300,2.29965625,-0.028210727497935295,0.17044581472873688,0.4357963502407074
1761508025656628200,2.309628173828125,0.04348556324839592,0.033046409487724304,0.3757588565349579
1761508025666599200,2.31959912109375,0.1019522026181221,-0.13229553401470184,0.31945112347602844
1761508025676571100,2.329571044921875,0.17559552192687988,-0.2957741916179657,0.29324135184288025
1761508025686542300,2.339542236328125,0.240338534116745,-0.3330410122871399,0.3473232388496399
1761508025696514000,2.34951416015625,0.2529906630516052,-0.17571529746055603,0.4651936888694763
1761508025706485200,2.3594853515625,0.2472604364156723,-0.04573245719075203,0.5348697304725647
1761508025716457200,2.369457275390625,0.1913236677646637,-0.0907159075140953,0.4828925132751465
1761508025726428200,2.37942822265625,0.041821662336587906,-0.3942379653453827,0.2242864966392517
1761508025736400100,2.389400146484375,-0.09259632974863052,-0.8094838857650757,-0.18971067667007446
1761508025746371300,2.399371337890625,-0.12590932846069336,-1.094527244567871,-0.6266031861305237
1761508025756343000,2.409343017578125,-0.1553652137517929,-1.0918121337890625,-0.9292399883270264
1761508025766314200,2.419314208984375,-0.20291320979595184,-0.8477391004562378,-0.9887627363204956
1761508025776286200,2.4292861328125,-0.19803856313228607,-0.5406055450439453,-0.8202946782112122
1761508025786257200,2.439257080078125,-0.11350187659263611,-0.2620505392551422,-0.49725133180618286
1761508025796229000,2.44922900390625,-0.03041524812579155,-0.07084756344556808,-0.11099792271852493
1761508025806200300,2.459200439453125,-0.03857104480266571,-0.0497504360973835,0.18443113565444946
1761508025816172000,2.469172119140625,-0.11401519924402237,-0.11841631680727005,0.25253722071647644
1761508025826143200,2.479143310546875,-0.14443956315517426,-0.11333590745925903,0.10009114444255829
1761508025836115200,2.489115234375,-0.07991728186607361,0.006508741527795792,-0.1497914046049118
1761508025846086100,2.499086181640625,-0.003954967018216848,0.1773136705160141,-0.36614328622817993
1761508025856058000,2.50905810546875,0.03814508020877838,0.3032281994819641,-0.4256271421909332
1761508025866029300,2.519029296875,0.07268734276294708,0.3248257637023926,-0.33043211698532104
1761508025876001300,2.529001220703125,0.13564153015613556,0.25279176235198975,-0.1374051421880722
1761508025885972500,2.538972412109375,0.23032738268375397,0.12687015533447266,0.08082668483257294
1761508025895944400,2.5489443359375,0.31783512234687805,-0.007081509102135897,0.25629064440727234
1761508025905915400,2.558915283203125,0.34793975949287415,-0.08038421720266342,0.33746567368507385
1761508025915887400,2.568887451171875,0.28764766454696655,-0.07448159158229828,0.3016650676727295
1761508025925858600,2.578858642578125,0.20057474076747894,-0.015460958704352379,0.1580093652009964
1761508025935830300,2.588830322265625,0.12565070390701294,0.04424205422401428,-0.049391213804483414
1761508025945801500,2.598801513671875,0.07626796513795853,0.06025389954447746,-0.27213796973228455
1761508025955773400,2.6087734375,0.05692089721560478,0.044863760471343994,-0.4276742935180664
1761508025965744400,2.618744384765625,0.04998824745416641,0.015067875385284424,-0.4698713719844818
1761508025975716400,2.62871630859375,0.050547514110803604,-0.02207043766975403,-0.40098658204078674
1761508025985687600,2.6386875,0.0702691525220871,-0.07266885787248611,-0.2618038058280945
1761508025995659300,2.6486591796875,0.09803979843854904,-0.11470818519592285,-0.09672990441322327
1761508026005630500,2.65863037109375,0.13478919863700867,-0.16962145268917084,0.040546540170907974
1761508026015602400,2.6686025390625,0.15360070765018463,-0.24818044900894165,0.10296357423067093
1761508026025573400,2.678573486328125,0.14879116415977478,-0.33678919076919556,0.07962749153375626
1761508026035545300,2.68854541015625,0.12505361437797546,-0.4138006269931793,-0.02035423554480076
1761508026045516500,2.6985166015625,0.0989936962723732,-0.41515684127807617,-0.18065078556537628
1761508026055488300,2.70848828125,0.08771654218435287,-0.3291788101196289,-0.3411818742752075
1761508026065459500,2.71845947265625,0.06829379498958588,-0.15041746199131012,-0.42367875576019287
1761508026075431400,2.728431396484375,0.052556112408638,0.049833331257104874,-0.4118870794773102
1761508026085402400,2.73840234375,0.05731536075472832,0.2163279503583908,-0.30594003200531006
1761508026095374300,2.748374267578125,0.05981447175145149,0.3547513484954834,-0.12409885227680206
1761508026105345500,2.758345458984375,0.033732492476701736,0.4428142011165619,0.0913587138056755
1761508026115317200,2.768317138671875,-0.024874895811080933,0.4536127746105194,0.28557825088500977
1761508026125289500,2.77828955078125,-0.0930863469839096,0.42827001214027405,0.43227511644363403
1761508026135260400,2.788260498046875,-0.14388854801654816,0.37276148796081543,0.46974819898605347
1761508026145231400,2.7982314453125,-0.16715991497039795,0.3300221860408783,0.41631630063056946
1761508026155203300,2.808203369140625,-0.15723058581352234,0.31813544034957886,0.30806785821914673
1761508026165174500,2.818174560546875,-0.14195780456066132,0.35604408383369446,0.18120798468589783
1761508026175146200,2.828146240234375,-0.1443847417831421,0.44099703431129456,0.11008615046739578
1761508026185117400,2.838117431640625,-0.1622479408979416,0.5663370490074158,0.11126808077096939
1761508026195089400,2.84808935546875,-0.18250712752342224,0.6687355637550354,0.14365211129188538
1761508026205061400,2.858061279296875,-0.18928958475589752,0.7255216836929321,0.19634316861629486
1761508026215032300,2.8680322265625,-0.19736242294311523,0.7307012677192688,0.2556943893432617
1761508026225004500,2.878004638671875,-0.22515703737735748,0.6781495809555054,0.2959873676300049
1761508026234975200,2.887975341796875,-0.2718220055103302,0.5551732778549194,0.29030975699424744
1761508026244947500,2.897947509765625,-0.30949074029922485,0.41177690029144287,0.21741221845149994
1761508026254918400,2.90791845703125,-0.317470908164978,0.2644912898540497,0.06563626974821091
1761508026264890400,2.917890380859375,-0.29752278327941895,0.1465049386024475,-0.09975726157426834
1761508026274861300,2.927861328125,-0.25481554865837097,0.07010471075773239,-0.21668948233127594
1761508026284833500,2.93783349609375,-0.1823059320449829,-0.045576490461826324,-0.2804494798183441
1761508026294804200,2.94780419921875,-0.0988035798072815,-0.18311437964439392,-0.28025323152542114
1761508026304776400,2.9577763671875,-0.03287312015891075,-0.28949210047721863,-0.21843494474887848
1761508026314747400,2.967747314453125,0.0007958919741213322,-0.34563207626342773,-0.14594823122024536
1761508026324719400,2.97771923828125,0.012238295748829842,-0.3859613537788391,-0.15447837114334106
1761508026334690300,2.987690185546875,-0.03097895160317421,-0.49375760555267334,-0.2722446918487549
1761508026344662500,2.99766259765625,-0.12413544952869415,-0.583499550819397,-0.4637468457221985
1761508026354633200,3.00763330078125,-0.21035873889923096,-0.6215731501579285,-0.698103666305542
1761508026364605400,3.01760546875,-0.24394333362579346,-0.602776050567627,-0.947688102722168
1761508026374576400,3.027576416015625,-0.2140895575284958,-0.4780290722846985,-1.1526857614517212
1761508026384548400,3.03754833984375,-0.1396990418434143,-0.20876479148864746,-1.2489166259765625
1761508026394519300,3.047519287109375,-0.05084985867142677,0.18033795058727264,-1.2054208517074585
1761508026404491500,3.057491455078125,0.05647246912121773,0.6459125876426697,-0.9856516718864441
1761508026414462200,3.067462158203125,0.10001488775014877,1.0228077173233032,-0.6431872844696045
1761508026424434400,3.077434326171875,0.08843529224395752,1.1469104290008545,-0.2841722071170807
1761508026434405400,3.0874052734375,0.04834219440817833,1.0198254585266113,0.017546886578202248
1761508026444377300,3.09737744140625,0.020559919998049736,0.8336710333824158,0.27340584993362427
1761508026454348300,3.107348388671875,0.036555130034685135,0.728308916091919,0.4765872061252594
1761508026464320500,3.117320556640625,0.049594055861234665,0.760225236415863,0.5971056222915649
1761508026474291200,3.127291259765625,0.023483093827962875,0.8682414293289185,0.5835198163986206
1761508026484263400,3.137263427734375,-0.031988825649023056,0.978583574295044,0.4327552318572998
1761508026494234400,3.147234375,-0.07566093653440475,1.086626410484314,0.1941053867340088
1761508026504206300,3.157206298828125,-0.09464185684919357,1.1476598978042603,-0.07128716260194778
1761508026514177300,3.16717724609375,-0.12470735609531403,1.0677422285079956,-0.2894032299518585
1761508026524149500,3.1771494140625,-0.18340998888015747,0.8036306500434875,-0.46497994661331177
1761508026534120400,3.187120361328125,-0.2404455840587616,0.4131403863430023,-0.6266982555389404
1761508026544092400,3.197092529296875,-0.25956329703330994,0.063888318836689,-0.7246931791305542
1761508026554063400,3.2070634765625,-0.2198220193386078,-0.1450398713350296,-0.7332555055618286
1761508026564035300,3.217035400390625,-0.09902138262987137,-0.22617287933826447,-0.671897828578949
1761508026574006300,3.22700634765625,0.09800060093402863,-0.19693909585475922,-0.48583927750587463
1761508026583978500,3.236978515625,0.25406771898269653,-0.08819936960935593,-0.15900322794914246
1761508026593949400,3.246949462890625,0.3064004182815552,0.032570723444223404,0.28761979937553406
1761508026603921400,3.25692138671875,0.27566540241241455,0.10629622638225555,0.770423948764801
1761508026613892400,3.266892333984375,0.24755041301250458,0.09109783172607422,1.1306833028793335
1761508026623864300,3.2768642578125,0.21547237038612366,0.04597088322043419,1.3283926248550415
1761508026633835300,3.286835205078125,0.192509263753891,-0.019924776628613472,1.3744312524795532
1761508026643807500,3.296807373046875,0.16592958569526672,-0.11574497818946838,1.2583372592926025
1761508026653778400,3.3067783203125,0.1538468301296234,-0.24355992674827576,1.018251657485962
1761508026663750400,3.31675048828125,0.14573408663272858,-0.31955280900001526,0.7282442450523376
1761508026673721300,3.326721435546875,0.1356300413608551,-0.33928656578063965,0.4673345983028412
1761508026683693300,3.336693359375,0.13121448457241058,-0.38496673107147217,0.3095557689666748
1761508026693664300,3.346664306640625,0.05966253578662872,-0.5147526860237122,0.23827359080314636
1761508026703636500,3.356636474609375,-0.1131756380200386,-0.74842369556427,0.09777994453907013
1761508026713607400,3.366607421875,-0.2735314965248108,-1.0647196769714355,-0.19476057589054108
1761508026723579400,3.376579345703125,-0.3314167559146881,-1.371233344078064,-0.5850001573562622
1761508026733550300,3.38655029296875,-0.33590763807296753,-1.4849462509155273,-0.936340868473053
1761508026743522300,3.396522216796875,-0.2937210202217102,-1.3247367143630981,-1.1013845205307007
1761508026753493200,3.4064931640625,-0.25900909304618835,-1.024387240409851,-1.0542993545532227
1761508026763465500,3.416465576171875,-0.23548708856105804,-0.6968732476234436,-0.8421646356582642
1761508026773436400,3.4264365234375,-0.2066815346479416,-0.43475061655044556,-0.5404492616653442
1761508026783408400,3.436408447265625,-0.08689103275537491,-0.20725548267364502,-0.19049862027168274
1761508026793379300,3.44637939453125,0.10481394827365875,0.04965514689683914,0.2693212032318115
1761508026803351300,3.456351318359375,0.24729523062705994,0.2629556655883789,0.7377552390098572
1761508026813322200,3.466322265625,0.3017827272415161,0.24955248832702637,1.0285993814468384
1761508026823294500,3.47629443359375,0.24846552312374115,0.08386994153261185,1.108267068862915
1761508026833265400,3.486265380859375,0.1221693679690361,-0.08545996248722076,1.006917119026184
1761508026843237400,3.4962373046875,-0.010906215757131577,-0.15092600882053375,0.7765701413154602
1761508026853208300,3.506208251953125,-0.10161721706390381,-0.003931504208594561,0.4991510808467865
1761508026863180300,3.51618017578125,-0.1233229860663414,0.3032044768333435,0.23923739790916443
1761508026873150700,3.526150634765625,-0.07670649141073227,0.6736254096031189,0.06271056830883026
1761508026883123000,3.536123046875,0.004500614479184151,1.0205291509628296,0.023384984582662582
1761508026893094000,3.546093994140625,0.07329858839511871,1.242555022239685,0.09272650629281998
1761508026903065900,3.55606591796875,0.09394749999046326,1.3028371334075928,0.2147981822490692
1761508026913036800,3.566036865234375,0.058608148247003555,1.235638976097107,0.33739012479782104
1761508026923009000,3.576009033203125,-0.014561492949724197,1.0538623332977295,0.4158470034599304
1761508026932979700,3.585979736328125,-0.09642573446035385,0.8288255333900452,0.41457638144493103
1761508026942952000,3.595951904296875,-0.16334529221057892,0.596449613571167,0.328377366065979
1761508026952923000,3.6059228515625,-0.205236554145813,0.41562095284461975,0.1581648737192154
1761508026962894800,3.615894775390625,-0.22129514813423157,0.2682884931564331,-0.06251823157072067
1761508026972865800,3.62586572265625,-0.2022239863872528,0.1145804226398468,-0.2794041931629181
1761508026982838000,3.635838134765625,-0.16972480714321136,-0.03838779404759407,-0.43315377831459045
1761508026992808700,3.64580859375,-0.10384725034236908,-0.17237596213817596,-0.47127532958984375
1761508027002781000,3.655781005859375,-0.01561828050762415,-0.269588828086853,-0.4008893370628357
1761508027012752000,3.665751953125,0.06547977030277252,-0.3253072202205658,-0.26086166501045227
1761508027022723800,3.675723876953125,0.11136128008365631,-0.3499338626861572,-0.09464429318904877
1761508027032694800,3.68569482421875,0.1291344165802002,-0.35075971484184265,0.040520183742046356
1761508027042667000,3.6956669921875,0.14433981478214264,-0.3478206396102905,0.11080513149499893
1761508027052637700,3.7056376953125,0.17130592465400696,-0.3560127913951874,0.11901246011257172
1761508027062610000,3.71560986328125,0.2254045009613037,-0.37024179100990295,0.11403462290763855
1761508027072580900,3.725580810546875,0.29947182536125183,-0.35723865032196045,0.12333650887012482
1761508027082552800,3.735552734375,0.37075453996658325,-0.3476398289203644,0.12586085498332977
1761508027092523800,3.745523681640625,0.39327847957611084,-0.2935997545719147,0.15396226942539215
1761508027102496000,3.75549609375,0.35680460929870605,-0.21054315567016602,0.18135952949523926
1761508027112466700,3.765466796875,0.28309470415115356,-0.09677399694919586,0.1796252727508545
1761508027122439000,3.77543896484375,0.19085627794265747,0.03587990254163742,0.17022641003131866
1761508027132411000,3.785410888671875,0.10555843263864517,0.1545061469078064,0.1774289309978485
1761508027142381800,3.7953818359375,0.03811321407556534,0.22838613390922546,0.19915199279785156
1761508027152354000,3.80535400390625,-0.03552772104740143,0.24714809656143188,0.20873963832855225
1761508027162325000,3.815324951171875,-0.1024218425154686,0.21906892955303192,0.19797365367412567
1761508027172297000,3.825296875,-0.14844073355197906,0.16239100694656372,0.1572991907596588
1761508027182268000,3.835267822265625,-0.16290254890918732,0.12434393912553787,0.08856403827667236
1761508027192239900,3.845239990234375,-0.1389564722776413,0.10889041423797607,0.017707176506519318
1761508027202210800,3.8552109375,-0.08498083800077438,0.11850076168775558,-0.022655848413705826
1761508027212183000,3.86518310546875,-0.03628867119550705,0.10914348065853119,-0.024925393983721733
1761508027222154000,3.875154052734375,-0.0012226086109876633,0.07116179913282394,-0.009019927121698856
1761508027232126000,3.8851259765625,0.017436828464269638,0.02029462344944477,-0.011928098276257515
1761508027242097000,3.895096923828125,0.01633152924478054,-0.05110080912709236,-0.033947620540857315
1761508027252069000,3.905069091796875,-0.0006871349178254604,-0.13350780308246613,-0.07400955259799957
1761508027262039800,3.915039794921875,0.005695884581655264,-0.20998553931713104,-0.1352965533733368
1761508027272012000,3.925011962890625,0.06356903910636902,-0.29471027851104736,-0.22463548183441162
1761508027281983000,3.93498291015625,0.12126340717077255,-0.4292098581790924,-0.3306962847709656
1761508027291955000,3.944954833984375,0.15719850361347198,-0.5646920204162598,-0.4350211024284363
1761508027301926000,3.95492578125,0.1576060950756073,-0.7023444175720215,-0.5390692353248596
1761508027311898000,3.964898193359375,0.1224108338356018,-0.782634437084198,-0.636023223400116
1761508027321868800,3.974868896484375,0.0905013233423233,-0.8202794790267944,-0.7470723986625671
1761508027331841000,3.984841064453125,0.06257514655590057,-0.7867894172668457,-0.8926360011100769
1761508027341812000,3.99481201171875,0.05054684728384018,-0.7074053883552551,-1.0810290575027466
1761508027351782000,4.004781982421875,0.07601199299097061,-0.6262237429618835,-1.2780715227127075
1761508027361753900,4.01475390625,0.18341781198978424,-0.49250465631484985,-1.3734601736068726
1761508027371724800,4.024724853515625,0.3580029308795929,-0.24143914878368378,-1.2908896207809448
1761508027381697000,4.034697021484375,0.5171743631362915,0.20655888319015503,-0.9955408573150635
1761508027391668000,4.04466796875,0.6248313188552856,0.745134174823761,-0.6281551122665405
1761508027401640000,4.054639892578125,0.6477620005607605,1.0810540914535522,-0.4027706980705261
1761508027411611000,4.06461083984375,0.6195820569992065,1.0989603996276855,-0.30413758754730225
1761508027421582800,4.074582763671875,0.5389180779457092,0.7876921892166138,-0.3316795229911804
1761508027431553800,4.0845537109375,0.40002012252807617,0.32693517208099365,-0.4741940498352051
1761508027441526000,4.094526123046875,0.255121111869812,-0.02218364179134369,-0.6699963808059692
1761508027451497000,4.1044970703125,0.18736150860786438,-0.11401183903217316,-0.8736120462417603
1761508027461469000,4.114468994140625,0.23592278361320496,-0.03974542021751404,-0.9876062870025635
1761508027471440000,4.12443994140625,0.3560135066509247,0.14572350680828094,-0.914638876914978
1761508027481411800,4.134411865234375,0.47081348299980164,0.4112130105495453,-0.6776613593101501
1761508027491382800,4.1443828125,0.5190526247024536,0.6140918135643005,-0.3226335346698761
1761508027501355000,4.15435498046875,0.48067259788513184,0.5839916467666626,-0.003577908966690302
1761508027511326000,4.164325927734375,0.3851436972618103,0.4034874141216278,0.22883029282093048
1761508027521298000,4.1742978515625,0.26482710242271423,0.14647024869918823,0.336154967546463
1761508027531268900,4.184268798828125,0.12781012058258057,-0.09947346895933151,0.3263305723667145
1761508027541240800,4.19424072265625,0.010949503630399704,-0.24870644509792328,0.23324531316757202
1761508027551211800,4.204211669921875,-0.07839209586381912,-0.25644585490226746,0.11141714453697205
1761508027561184000,4.21418408203125,-0.12283612787723541,-0.10351958870887756,0.03686709329485893
1761508027571155000,4.224155029296875,-0.10114148259162903,0.13791432976722717,0.06902715563774109
1761508027581127000,4.234126953125,-0.0018389085307717323,0.2820669710636139,0.18311180174350739
1761508027591097900,4.244097900390625,0.11006952077150345,0.2850760817527771,0.3552321791648865
1761508027601069800,4.25406982421875,0.18545055389404297,0.168919637799263,0.5611446499824524
1761508027611040800,4.264040771484375,0.22679638862609863,0.006364014931023121,0.7487273216247559
1761508027621013000,4.274012939453125,0.23959554731845856,-0.1666882485151291,0.8745197057723999
1761508027630984000,4.28398388671875,0.23829644918441772,-0.3067878484725952,0.9205966591835022
1761508027640956000,4.293955810546875,0.2070949524641037,-0.4441249668598175,0.8816573619842529
1761508027650926800,4.3039267578125,0.12162106484174728,-0.5983121395111084,0.7465837001800537
1761508027660898800,4.31389892578125,0.000582527369260788,-0.7232989072799683,0.5489029884338379
1761508027670869800,4.323869873046875,-0.10364613682031631,-0.789886474609375,0.3250158131122589
1761508027680842000,4.333842041015625,-0.18311500549316406,-0.7588774561882019,0.0728725716471672
1761508027690813000,4.34381298828125,-0.26785942912101746,-0.6751495003700256,-0.18493448197841644
1761508027700785000,4.353784912109375,-0.3757363557815552,-0.6355927586555481,-0.42399126291275024
1761508027710755800,4.363755859375,-0.47873997688293457,-0.6537078619003296,-0.6184774041175842
1761508027720727800,4.373727783203125,-0.4012211859226227,-0.6291794180870056,-0.6637638211250305
1761508027730698800,4.38369873046875,-0.09959742426872253,-0.4607994556427002,-0.4511258602142334
1761508027740671000,4.3936708984375,0.22974912822246552,-0.17644058167934418,0.02480434440076351
1761508027750642000,4.403641845703125,0.40336140990257263,0.1826091855764389,0.6432909965515137
1761508027760614000,4.41361376953125,0.4087985157966614,0.4458453953266144,1.203684687614441
1761508027770584800,4.423584716796875,0.327833354473114,0.5512796640396118,1.5220836400985718
1761508027780556800,4.433556884765625,0.21534374356269836,0.4372951090335846,1.520458459854126
1761508027790527700,4.44352783203125,0.0865924209356308,0.19801515340805054,1.2547905445098877
1761508027800500000,4.4535,-0.028794489800930023,0.02208263799548149,0.8264111280441284
1761508027810472000,4.463471923828125,-0.10709861665964127,-0.025781024247407913,0.3490877151489258
1761508027820443000,4.47344287109375,-0.12008941918611526,0.04994284361600876,-0.058028411120176315
1761508027830413800,4.483413818359375,-0.12327057868242264,0.26496538519859314,-0.24713334441184998
1761508027840385800,4.4933857421875,-0.10702609270811081,0.5518420338630676,-0.21481168270111084
1761508027850358000,4.50335791015625,-0.06935194879770279,0.7754895091056824,-0.01790473982691765
1761508027860329000,4.513328857421875,-0.017144670709967613,0.8384220004081726,0.1929319202899933
1761508027870301000,4.523301025390625,0.03365672379732132,0.6938331127166748,0.33295905590057373
1761508027880272400,4.5332724609375,0.03816172853112221,0.4316062927246094,0.3951561152935028
1761508027890244600,4.54324462890625,0.022264519706368446,0.15460319817066193,0.342953622341156
1761508027900215300,4.55321533203125,-0.024192549288272858,-0.07680779695510864,0.17706738412380219
1761508027910187500,4.5631875,-0.06850968301296234,-0.1991584748029709,-0.05272267758846283
1761508027920158500,4.573158447265625,-0.07901478558778763,-0.27920112013816833,-0.30497702956199646
1761508027930130400,4.58313037109375,-0.0745484009385109,-0.33713018894195557,-0.5133911967277527
1761508027940101400,4.593101318359375,-0.0783441960811615,-0.3486327826976776,-0.5894007086753845
1761508027950073600,4.603073486328125,-0.059986237436532974,-0.3348005712032318,-0.5667057633399963
1761508027960044300,4.613044189453125,-0.010619347915053368,-0.30601319670677185,-0.47796523571014404
1761508027970016500,4.6230166015625,0.045683603733778,-0.2614276111125946,-0.3244502544403076
1761508027979987500,4.632987548828125,0.07022947072982788,-0.19863545894622803,-0.14818745851516724
1761508027989959400,4.64295947265625,0.05532242730259895,-0.13199357688426971,0.005873221904039383
1761508027999930400,4.652930419921875,0.026365168392658234,-0.052269693464040756,0.09516239166259766
1761508028009902600,4.662902587890625,0.0012518251314759254,0.026319922879338264,0.0928286612033844
1761508028019873300,4.672873291015625,-0.004208812490105629,0.08067347854375839,0.030746283009648323
1761508028029845500,4.682845458984375,0.0070848544128239155,0.10579214245080948,-0.01614479161798954
1761508028039816400,4.69281640625,0.029585815966129303,0.07875611633062363,-0.007161766290664673
1761508028049788400,4.702788330078125,0.04727799445390701,0.022802302613854408,0.053117286413908005
1761508028059759400,4.71275927734375,0.07543084025382996,-0.01844320259988308,0.14823856949806213
1761508028069731600,4.722731689453125,0.10622817277908325,-0.030550198629498482,0.24390757083892822
1761508028079702300,4.732702392578125,0.1330679953098297,-0.0030506006442010403,0.3202248811721802
1761508028089674500,4.742674560546875,0.156884104013443,0.05275407433509827,0.378480464220047
1761508028099645400,4.7526455078125,0.17941290140151978,0.12154308706521988,0.4391315281391144
1761508028109617400,4.762617431640625,0.20657794177532196,0.16292807459831238,0.47823366522789
1761508028119588400,4.77258837890625,0.19643241167068481,0.16339559853076935,0.5073414444923401
1761508028129560600,4.782560546875,0.15981315076351166,0.10966125130653381,0.4964158236980438
1761508028139531300,4.79253125,0.11654926091432571,0.00514595489948988,0.42805856466293335
1761508028149503500,4.80250341796875,0.09522692114114761,-0.12829811871051788,0.29268208146095276
1761508028159474400,4.812474365234375,0.13500402867794037,-0.2314881831407547,0.15925535559654236
1761508028169446400,4.8224462890625,0.24684853851795197,-0.266828328371048,0.09067043662071228
1761508028179417300,4.832417236328125,0.4127717614173889,-0.20962601900100708,0.07998896390199661
1761508028189389600,4.8423896484375,0.5597476363182068,-0.1422531008720398,0.15624086558818817
1761508028199360300,4.8523603515625,0.6424976587295532,-0.16744621098041534,0.30534499883651733
1761508028209332500,4.86233251953125,0.5920462012290955,-0.3272406756877899,0.44292205572128296
1761508028219303400,4.872303466796875,0.42475244402885437,-0.6802309155464172,0.43952009081840515
1761508028229275400,4.882275390625,0.19523030519485474,-1.097094178199768,0.24256227910518646
1761508028239246300,4.892246337890625,0.007357609458267689,-1.4249212741851807,-0.11495467275381088
1761508028249218600,4.902218505859375,-0.07251299172639847,-1.5194326639175415,-0.524490237236023
1761508028259189200,4.912189208984375,-0.08467515558004379,-1.2957929372787476,-0.8541389107704163
1761508028269161500,4.922161376953125,-0.0671776533126831,-0.7840548753738403,-1.03024423122406
1761508028279132400,4.93213232421875,0.01979958638548851,-0.18595494329929352,-1.056330919265747
1761508028289104400,4.9421044921875,0.12055771797895432,0.3005056083202362,-0.8765133619308472
1761508028299075300,4.952075439453125,0.19812999665737152,0.5571646690368652,-0.4933777153491974
1761508028309047600,4.962047607421875,0.17960132658481598,0.5332806706428528,-0.030394624918699265
1761508028319018200,4.972018310546875,0.1259465217590332,0.27904418110847473,0.37641796469688416
1761508028328990500,4.981990478515625,0.08738049864768982,-0.1283923089504242,0.606530487537384
1761508028338961400,4.99196142578125,0.08242768049240112,-0.4569757580757141,0.6599431037902832
1761508028348933400,5.001933349609375,0.10324987024068832,-0.5757157206535339,0.538011372089386
1761508028358904300,5.011904296875,0.1344447284936905,-0.49966710805892944,0.31446775794029236
1761508028368876500,5.02187646484375,0.15290069580078125,-0.26575419306755066,0.0936426967382431
1761508028378847500,5.031847412109375,0.13242217898368835,0.041623394936323166,-0.06842432171106339
1761508028388819500,5.0418193359375,0.11609674245119095,0.37297123670578003,-0.09820964932441711
1761508028398790400,5.051790283203125,0.11740080267190933,0.676956057548523,0.004973313305526972
1761508028408762400,5.061762451171875,0.14008720219135284,0.8577346205711365,0.2152296006679535
1761508028418733300,5.0717333984375,0.11436368525028229,0.8664460182189941,0.4472367763519287
1761508028428705500,5.08170556640625,0.03532958775758743,0.6803267002105713,0.624822735786438
1761508028438676500,5.091676513671875,-0.0385989211499691,0.4031064808368683,0.682488739490509
1761508028448648400,5.1016484375,-0.10411906987428665,0.1999903917312622,0.6019496917724609
1761508028458619400,5.111619384765625,-0.1465136706829071,0.08039073646068573,0.3657550513744354
1761508028468591400,5.12159130859375,-0.1589122861623764,0.05345473065972328,0.07139399647712708
1761508028478562300,5.131562255859375,-0.1547059565782547,0.07345119118690491,-0.19245631992816925
1761508028488534500,5.141534423828125,-0.1437920480966568,0.0680319219827652,-0.3333154022693634
1761508028498505500,5.15150537109375,-0.11889664083719254,0.05875076726078987,-0.3068728446960449
1761508028508477400,5.1614775390625,-0.0759691521525383,0.025389349088072777,-0.15158365666866302
1761508028518448400,5.171448486328125,-0.037316206842660904,-0.011154917068779469,0.050411779433488846
1761508028528420400,5.18142041015625,-0.013394895941019058,-0.04990124702453613,0.2294105589389801
1761508028538391300,5.191391357421875,-0.011760739609599113,-0.05806610360741615,0.316618412733078
1761508028548363500,5.201363525390625,-0.02365574985742569,-0.053552042692899704,0.3055114448070526
1761508028558334500,5.21133447265625,-0.05971698835492134,-0.05038371682167053,0.23937219381332397
1761508028568306400,5.221306396484375,-0.13637341558933258,-0.09151996672153473,0.12275715917348862
1761508028578277400,5.23127734375,-0.23846681416034698,-0.2217526137828827,-0.08285942673683167
1761508028588249300,5.241249267578125,-0.33738699555397034,-0.42272672057151794,-0.410840779542923
1761508028598220300,5.25122021484375,-0.4364539682865143,-0.6733872890472412,-0.8424391746520996
1761508028608192500,5.261192626953125,-0.5452582240104675,-0.8498172163963318,-1.2949693202972412
1761508028618163500,5.27116357421875,-0.6246033310890198,-0.8038133382797241,-1.6681272983551025
1761508028628135400,5.281135498046875,-0.6585010886192322,-0.4032171964645386,-1.8346446752548218
1761508028638106400,5.2911064453125,-0.7517945170402527,0.010457480326294899,-1.7603811025619507
1761508028648078300,5.301078369140625,-0.8602575659751892,0.25343310832977295,-1.4649081230163574
1761508028658049300,5.31104931640625,-0.6167928576469421,0.3658819794654846,-0.9283236861228943
1761508028668021500,5.321021484375,-0.05705551430583,0.5742943286895752,-0.13826984167099
1761508028677992400,5.330992431640625,0.31274324655532837,0.8022036552429199,0.6596018671989441
1761508028687964400,5.34096435546875,0.38445523381233215,0.8850314617156982,1.2390092611312866
1761508028697935400,5.350935302734375,0.4073024392127991,0.7276455760002136,1.5771602392196655
1761508028707907300,5.3609072265625,0.4817393720149994,0.30008286237716675,1.5977249145507812
1761508028717878300,5.370878173828125,0.5596875548362732,-0.245221808552742,1.3474327325820923
1761508028727850500,5.3808505859375,0.6285792589187622,-0.6651447415351868,0.9615059494972229
1761508028737821400,5.390821533203125,0.6353024244308472,-0.892954409122467,0.47387588024139404
1761508028747793400,5.40079345703125,0.5895453095436096,-0.9862790107727051,0.0021741425152868032
1761508028757764400,5.410764404296875,0.48943278193473816,-0.8139437437057495,-0.366825670003891
1761508028767736300,5.420736328125,0.3270798325538635,-0.36827412247657776,-0.6682928204536438
1761508028777708300,5.430708251953125,0.09884437918663025,0.17435777187347412,-0.8839759826660156
1761508028787679500,5.440679443359375,-0.15355591475963593,0.6777573227882385,-0.9834802150726318
1761508028797650400,5.450650390625,-0.3750301003456116,0.9827041029930115,-0.9688241481781006
1761508028807622400,5.460622314453125,-0.513886570930481,1.1292232275009155,-0.8895701169967651
1761508028817594400,5.470594482421875,-0.5565913915634155,1.1566909551620483,-0.798485517501831
1761508028827565300,5.4805654296875,-0.5270169377326965,1.0780597925186157,-0.6981645226478577
1761508028837537300,5.490537353515625,-0.4278375208377838,0.9195258021354675,-0.5582553744316101
1761508028847508500,5.500508544921875,-0.275282621383667,0.6939871907234192,-0.3844878375530243
1761508028857480400,5.51048046875,-0.09022282809019089,0.4249487519264221,-0.18597808480262756
1761508028867451400,5.520451416015625,0.06650179624557495,0.1757967174053192,0.013336093164980412
1761508028877421800,5.530421875,0.1533135622739792,-0.01834600791335106,0.21272101998329163
1761508028887394000,5.54039404296875,0.1818850189447403,-0.15046702325344086,0.3615555167198181
1761508028897365800,5.55036572265625,0.1738293617963791,-0.26227614283561707,0.4044881761074066
1761508028907337000,5.5603369140625,0.14442113041877747,-0.33803775906562805,0.3610653281211853
1761508028917309000,5.570308837890625,0.11019641160964966,-0.39090287685394287,0.24846166372299194
1761508028927279900,5.58027978515625,0.06184886023402214,-0.40440988540649414,0.11260023713111877
1761508028937251800,5.590251953125,0.0023423433303833008,-0.35299280285835266,-0.008588705211877823
1761508028947223000,5.60022314453125,-0.05990612134337425,-0.2513343393802643,-0.10321135073900223
1761508028957194800,5.61019482421875,-0.10372572392225266,-0.10035666823387146,-0.16086401045322418
1761508028967166000,5.620166015625,-0.11933983117341995,0.05156974494457245,-0.1870327740907669
1761508028977138000,5.630137939453125,-0.11396286636590958,0.15520954132080078,-0.1957719326019287
1761508028987108900,5.64010888671875,-0.08255913853645325,0.2018984705209732,-0.1800835281610489
1761508028997080800,5.650080810546875,-0.05483998358249664,0.2346341609954834,-0.12648393213748932
1761508029007052000,5.660052001953125,-0.03726498782634735,0.25003308057785034,-0.04472408816218376
1761508029017023700,5.670023681640625,-0.04033556580543518,0.25869885087013245,0.05224155634641647
1761508029026995000,5.679994873046875,-0.05951991304755211,0.25991830229759216,0.15524651110172272
1761508029036967000,5.689966796875,-0.06305290758609772,0.2738083302974701,0.25165078043937683
1761508029046937900,5.699937744140625,-0.049081433564424515,0.2883739769458771,0.3222685158252716
1761508029056909800,5.709909912109375,-0.01840212568640709,0.305259644985199,0.3626377284526825
1761508029066881000,5.719881103515625,0.019216354936361313,0.2854214906692505,0.38162821531295776
1761508029076852700,5.729852783203125,0.04964292421936989,0.1856701821088791,0.38647809624671936
1761508029086824000,5.739823974609375,0.07067124545574188,-0.01197497546672821,0.37662413716316223
1761508029096796000,5.7497958984375,0.08500570803880692,-0.25036343932151794,0.3450493812561035
1761508029106766800,5.759766845703125,0.06850529462099075,-0.48196151852607727,0.29171186685562134
1761508029116738800,5.76973876953125,0.01101013459265232,-0.6301236748695374,0.20457331836223602
1761508029126710000,5.7797099609375,-0.05085562914609909,-0.6521722674369812,0.0935589075088501
1761508029136681700,5.789681640625,-0.09372031688690186,-0.544336199760437,-0.006386483553797007
1761508029146653000,5.79965283203125,-0.06247052177786827,-0.35732609033584595,-0.05505921319127083
1761508029156625000,5.809625,-0.02028755657374859,-0.1525927186012268,-0.013109440915286541
1761508029166595800,5.819595947265625,-0.013784648850560188,-0.10023176670074463,0.05781879276037216
1761508029176567800,5.82956787109375,-0.05919771268963814,-0.23511242866516113,0.0689196065068245
1761508029186539000,5.8395390625,-0.15259291231632233,-0.47064903378486633,-0.04694600775837898
1761508029196510700,5.8495107421875,-0.2549688220024109,-0.6811831593513489,-0.3482067883014679
1761508029206482000,5.85948193359375,-0.31377995014190674,-0.7360349297523499,-0.7555319666862488
1761508029216454000,5.869453857421875,-0.26517507433891296,-0.45055636763572693,-1.0906169414520264
1761508029226424800,5.8794248046875,-0.06306272000074387,0.20962342619895935,-1.1726582050323486
1761508029236396800,5.889396728515625,0.16121281683444977,0.8906548023223877,-0.934468150138855
1761508029246368000,5.899367919921875,0.2222689688205719,1.2140713930130005,-0.43511801958084106
1761508029256339700,5.909339599609375,0.1609315425157547,1.115209698677063,0.10777468234300613
1761508029266311000,5.919310791015625,-0.016743378713726997,0.7333784699440002,0.5685830116271973
1761508029276283100,5.929283203125,-0.2138165980577469,0.3902600407600403,0.9160990118980408
1761508029286253800,5.93925390625,-0.3237484097480774,0.1319403350353241,1.0022937059402466
1761508029296226000,5.94922607421875,-0.24787458777427673,-0.009403503499925137,0.849341094493866
1761508029306197000,5.959197021484375,0.010757222771644592,-0.05156294256448746,0.5633183717727661
1761508029316169000,5.9691689453125,0.33721500635147095,-0.08976706117391586,0.2754802405834198
1761508029326140000,5.979139892578125,0.6272028684616089,-0.08122923970222473,0.09039481729269028
1761508029336112000,5.989112060546875,0.7716481685638428,-0.03546321019530296,0.07252130657434464
1761508029346082800,5.999082763671875,0.775814950466156,0.05013637989759445,0.20894864201545715
1761508029356055000,6.009054931640625,0.6862897276878357,0.12193761020898819,0.42851999402046204
1761508029366026000,6.01902587890625,0.5479515194892883,0.17067718505859375,0.6379198431968689
1761508029375998000,6.028998046875,0.40708136558532715,0.18581829965114594,0.7421879172325134
1761508029385969000,6.038968994140625,0.30456802248954773,0.17529109120368958,0.7479451894760132
1761508029395941000,6.048941162109375,0.20938202738761902,0.1101689264178276,0.6645157337188721
1761508029405911800,6.058911865234375,0.08697276562452316,0.045170217752456665,0.5230267643928528
1761508029415884000,6.068884033203125,-0.04370895028114319,0.07030457258224487,0.3338499665260315
1761508029425855000,6.07885498046875,-0.15198615193367004,0.18947729468345642,0.09868776798248291
1761508029435827000,6.088826904296875,-0.22498419880867004,0.32218602299690247,-0.14499610662460327
1761508029445798000,6.0987978515625,-0.272428423166275,0.44715750217437744,-0.33033478260040283
1761508029455770000,6.10877001953125,-0.3106643259525299,0.5232151746749878,-0.4048892855644226
1761508029465740800,6.11874072265625,-0.33841952681541443,0.5463804006576538,-0.3690170347690582
1761508029475713000,6.128713134765625,-0.3561096787452698,0.5477723479270935,-0.2541811466217041
1761508029485684000,6.13868408203125,-0.3664794862270355,0.5396390557289124,-0.10479218512773514
1761508029495656000,6.148656005859375,-0.3730529546737671,0.5529922246932983,0.03390919044613838
1761508029505627000,6.158626953125,-0.37579309940338135,0.6201300024986267,0.1766389012336731
1761508029515599000,6.16859912109375,-0.3700859546661377,0.6865848302841187,0.29869934916496277
1761508029525569800,6.17856982421875,-0.3386017978191376,0.6680958271026611,0.35433679819107056
1761508029535542000,6.1885419921875,-0.2592756748199463,0.5607020258903503,0.3143881857395172
1761508029545513000,6.198512939453125,-0.155568465590477,0.33373942971229553,0.14779706299304962
1761508029555485000,6.20848486328125,-0.05269205570220947,-0.0580727756023407,-0.14749260246753693
1761508029565456000,6.218455810546875,0.052658598870038986,-0.6005589962005615,-0.506337583065033
1761508029575428000,6.228427978515625,0.21851912140846252,-1.183456540107727,-0.8834905624389648
1761508029585399000,6.23839892578125,0.4334236979484558,-1.5364757776260376,-1.1672096252441406
1761508029595371000,6.24837109375,0.5992208123207092,-1.5859664678573608,-1.3097493648529053
1761508029605342000,6.258342041015625,0.651229977607727,-1.4822301864624023,-1.3186190128326416
1761508029615314000,6.26831396484375,0.6373574137687683,-1.2761616706848145,-1.0892462730407715
1761508029625284900,6.278284912109375,0.6191821098327637,-1.0708763599395752,-0.7029717564582825
1761508029635257000,6.288257080078125,0.5326781272888184,-1.003386378288269,-0.38003405928611755
1761508029645228000,6.29822802734375,0.43973809480667114,-1.03605055809021,-0.20301242172718048
1761508029655200000,6.308199951171875,0.3792029023170471,-0.9905034303665161,-0.17487287521362305
1761508029665171000,6.3181708984375,0.3409167528152466,-0.8215282559394836,-0.24681711196899414
1761508029675143000,6.328142822265625,0.2979629635810852,-0.5375098586082458,-0.3310786187648773
1761508029685113900,6.33811376953125,0.25411561131477356,-0.18567593395709991,-0.32780134677886963
1761508029695086000,6.348086181640625,0.2064734548330307,0.15508310496807098,-0.20241162180900574
1761508029705057000,6.35805712890625,0.17967833578586578,0.3861594796180725,0.017889326438307762
1761508029715029000,6.368029052734375,0.17051643133163452,0.5031021237373352,0.2697961926460266
1761508029725000000,6.378,0.15059812366962433,0.5932978391647339,0.4872198700904846
1761508029734972000,6.387971923828125,0.08799941837787628,0.7257317304611206,0.5853508710861206
1761508029744942800,6.39794287109375,0.014003749936819077,0.8433166742324829,0.5495095252990723
1761508029754915000,6.4079150390625,-0.07915055751800537,0.9409914612770081,0.41196250915527344
1761508029764886000,6.417885986328125,-0.195231094956398,1.0110254287719727,0.2512476444244385
1761508029774858000,6.42785791015625,-0.3087512254714966,1.0430665016174316,0.12440983951091766
1761508029784829000,6.437828857421875,-0.4185112714767456,1.0431139469146729,0.06277444213628769
1761508029794801000,6.44780078125,-0.4878216087818146,1.0363819599151611,0.06051751598715782
1761508029804771800,6.457771728515625,-0.49868035316467285,1.0003798007965088,0.09833599627017975
1761508029814744000,6.467744140625,-0.4491632282733917,0.9090385437011719,0.16281044483184814
1761508029824715000,6.477715087890625,-0.3566865622997284,0.8024218678474426,0.26895979046821594
1761508029834687000,6.48768701171875,-0.25046586990356445,0.6760061383247375,0.39264392852783203
1761508029844658000,6.497657958984375,-0.1595841497182846,0.5484878420829773,0.5104597210884094
1761508029854630000,6.5076298828125,-0.10430549085140228,0.40277838706970215,0.5783125162124634
1761508029864600800,6.517600830078125,-0.06695172935724258,0.23638515174388885,0.5896487832069397
1761508029874573000,6.527572998046875,-0.055137548595666885,0.05018673464655876,0.5402272343635559
1761508029884544500,6.53754443359375,-0.027638278901576996,-0.14833034574985504,0.418796181678772
1761508029894516500,6.5475166015625,0.0016516055911779404,-0.2956840991973877,0.2626776099205017
1761508029904487700,6.55748779296875,0.028769509866833687,-0.3955441117286682,0.09851741790771484
1761508029914459400,6.56745947265625,0.04802687466144562,-0.41828852891921997,-0.016376398503780365
1761508029924430600,6.5774306640625,0.07803323864936829,-0.36029818654060364,-0.07042179256677628
1761508029934402600,6.587402587890625,0.11784164607524872,-0.2272682636976242,-0.051577966660261154
1761508029944373500,6.59737353515625,0.14759846031665802,-0.05115820840001106,0.04982827976346016
1761508029954345500,6.607345458984375,0.17804336547851562,0.11450430750846863,0.23228205740451813
1761508029964316700,6.617316650390625,0.2050294429063797,0.22762632369995117,0.4539998173713684
1761508029974288400,6.627288330078125,0.22355200350284576,0.2729170620441437,0.6623284220695496
1761508029984259600,6.637259521484375,0.21325728297233582,0.26573237776756287,0.8170410394668579
1761508029994231600,6.6472314453125,0.1745557337999344,0.2159675508737564,0.9097275733947754
1761508030004202500,6.657202392578125,0.13144342601299286,0.11982184648513794,0.9323007464408875
1761508030014174500,6.667174560546875,0.09499282389879227,0.020526045933365822,0.8777400255203247
1761508030024145700,6.677145751953125,0.08220486342906952,-0.0816916674375534,0.7159503698348999
1761508030034117400,6.687117431640625,0.09401101619005203,-0.1631210595369339,0.4811103641986847
1761508030044088600,6.697088623046875,0.12261629104614258,-0.23124977946281433,0.23790490627288818
1761508030054060500,6.707060546875,0.12483567744493484,-0.3107474446296692,0.07605626434087753
1761508030064031500,6.717031494140625,0.08488160371780396,-0.39308518171310425,0.008147786371409893
1761508030074003500,6.72700341796875,0.05063464120030403,-0.49103835225105286,-0.015167324803769588
1761508030083974700,6.736974609375,0.028282996267080307,-0.5466216802597046,-0.031066661700606346
1761508030093946400,6.7469462890625,0.02167995274066925,-0.5667077302932739,-0.04053858667612076
1761508030103917600,6.75691748046875,-0.00033932924270629883,-0.5882015824317932,-0.04774909466505051
1761508030113889500,6.7668896484375,-0.060073766857385635,-0.7146363258361816,-0.09707541018724442
1761508030123860500,6.776860595703125,-0.13137830793857574,-0.91910719871521,-0.211809441447258
1761508030133832400,6.78683251953125,-0.21509228646755219,-1.1292364597320557,-0.41587865352630615
1761508030143803600,6.7968037109375,-0.3131629228591919,-1.279094934463501,-0.714526891708374
1761508030153775600,6.806775634765625,-0.4076927900314331,-1.273706078529358,-1.0915493965148926
1761508030163747600,6.81674755859375,-0.46933192014694214,-1.0987496376037598,-1.4905822277069092
1761508030173718800,6.82671875,-0.4964780807495117,-0.8107675313949585,-1.8338205814361572
1761508030183689500,6.836689453125,-0.47284090518951416,-0.44300201535224915,-2.0448999404907227
1761508030193661700,6.84666162109375,-0.35984987020492554,0.011357896029949188,-2.087977170944214
1761508030203633700,6.856633544921875,-0.21136106550693512,0.5579836964607239,-1.9107903242111206
1761508030213604600,6.8666044921875,-0.05868496745824814,1.0076909065246582,-1.527907133102417
1761508030223575600,6.876575439453125,0.03709562122821808,1.2553672790527344,-1.038593053817749
1761508030233547800,6.8865478515625,0.1001829281449318,1.2779436111450195,-0.569424569606781
1761508030243518500,6.8965185546875,0.11700025945901871,1.1532062292099,-0.17986615002155304
1761508030253490700,6.90649072265625,0.11282140016555786,0.9483142495155334,0.05605436861515045
1761508030263462700,6.916462646484375,0.10560557246208191,0.7419579029083252,0.10511858016252518
1761508030273433600,6.92643359375,0.13249528408050537,0.6239771842956543,0.039273250848054886
1761508030283405600,6.936405517578125,0.1960151344537735,0.6730371117591858,-0.044363319873809814
1761508030293376800,6.946376708984375,0.2797313332557678,0.8478353023529053,-0.0843333750963211
1761508030303348500,6.956348388671875,0.3745715618133545,0.9394205808639526,-0.03734296187758446
1761508030313319700,6.966319580078125,0.4370788037776947,0.8382899761199951,0.09969175606966019
1761508030323291600,6.976291748046875,0.43255433440208435,0.5419446229934692,0.31152915954589844
1761508030333262600,6.9862626953125,0.3907110095024109,0.19345279037952423,0.49953195452690125
1761508030343234600,6.996234619140625,0.33663976192474365,-0.0998360738158226,0.5770339369773865
1761508030353205800,7.006205810546875,0.28280556201934814,-0.28750160336494446,0.5392874479293823
1761508030363177500,7.016177490234375,0.22397713363170624,-0.3751118779182434,0.4313199520111084
1761508030373148700,7.026148681640625,0.15028589963912964,-0.3439684212207794,0.319854199886322
1761508030383120600,7.03612060546875,0.0793832466006279,-0.21289190649986267,0.22946491837501526
1761508030393091600,7.046091552734375,0.0418044850230217,0.017393305897712708,0.21375152468681335
1761508030403063600,7.0560634765625,0.043290264904499054,0.25444021821022034,0.2928615212440491
1761508030413034800,7.06603466796875,0.06747408211231232,0.4109002947807312,0.4636937379837036
1761508030423006500,7.07600634765625,0.10106852650642395,0.43500056862831116,0.6612339615821838
1761508030432977700,7.085977783203125,0.12048616260290146,0.33091217279434204,0.8296668529510498
1761508030442949600,7.09594970703125,0.12138178199529648,0.16890117526054382,0.9071347117424011
1761508030452920600,7.105920654296875,0.11792784184217453,0.018687713891267776,0.8879819512367249
1761508030462892500,7.115892578125,0.12725183367729187,-0.05888138338923454,0.7936387062072754
1761508030472863700,7.12586376953125,0.14246757328510284,-0.06647586077451706,0.6675668358802795
1761508030482835500,7.13583544921875,0.16052700579166412,0.007029249332845211,0.6092023253440857
1761508030492806700,7.145806640625,0.16474585235118866,0.03195235878229141,0.6204077005386353
1761508030502778600,7.155778564453125,0.12956710159778595,-0.10530323535203934,0.634560763835907
1761508030512749600,7.16574951171875,0.056199584156274796,-0.4021773338317871,0.5929399728775024
1761508030522721500,7.175721435546875,-0.02128242328763008,-0.8623409867286682,0.42092108726501465
1761508030532692700,7.185692626953125,-0.08859248459339142,-1.3535232543945312,0.1287233680486679
1761508030542664400,7.19566455078125,-0.11754877120256424,-1.6158620119094849,-0.19101601839065552
1761508030552635600,7.2056357421875,-0.1709037870168686,-1.5510011911392212,-0.5330849289894104
1761508030562607600,7.215607666015625,-0.24659721553325653,-1.3087172508239746,-0.9552574753761292
1761508030572578600,7.22557861328125,-0.309019535779953,-0.9673227667808533,-1.3128867149353027
1761508030582550500,7.235550537109375,-0.24794846773147583,-0.4962082803249359,-1.3573609590530396
1761508030592521700,7.245521728515625,-0.007580282632261515,0.06118382513523102,-0.981277346611023
1761508030602493400,7.255493408203125,0.2704457640647888,0.4958801567554474,-0.2926405668258667
1761508030612464600,7.265464599609375,0.44319385290145874,0.6768765449523926,0.48925507068634033
1761508030622436600,7.2754365234375,0.4433472454547882,0.5519136190414429,1.0109670162200928
1761508030632407600,7.285407470703125,0.2757367789745331,0.24495436251163483,1.1480733156204224
1761508030642379500,7.295379638671875,0.04490649327635765,-0.042214032262563705,0.9445851445198059
1761508030652350700,7.305350830078125,-0.13174289464950562,-0.10338759422302246,0.4838055670261383
1761508030662322400,7.315322509765625,-0.1997072994709015,0.06947579979896545,-0.028790628537535667
1761508030672293600,7.325293701171875,-0.23903508484363556,0.4185817241668701,-0.343409925699234
1761508030682265600,7.335265625,-0.27295175194740295,0.763788640499115,-0.4328540563583374
1761508030692236500,7.345236572265625,-0.2694106996059418,1.0208783149719238,-0.3434250056743622
1761508030702208500,7.35520849609375,-0.21851475536823273,1.1447821855545044,-0.18878056108951569
1761508030712179700,7.3651796875,-0.16699573397636414,1.1116267442703247,-0.08823173493146896
1761508030722151400,7.3751513671875,-0.14693547785282135,0.9632615447044373,-0.04218035563826561
1761508030732122600,7.38512255859375,-0.16451166570186615,0.7722197771072388,-0.0536518432199955
1761508030742094600,7.395094482421875,-0.21652880311012268,0.5917314887046814,-0.14183256030082703
1761508030752065500,7.4050654296875,-0.27358362078666687,0.4737362563610077,-0.2874649465084076
1761508030762037500,7.41503759765625,-0.31435877084732056,0.4260781705379486,-0.44281646609306335
1761508030772008700,7.4250087890625,-0.320755273103714,0.4227215051651001,-0.5650851130485535
1761508030781980400,7.43498046875,-0.27490976452827454,0.3686862289905548,-0.6387603878974915
1761508030791951600,7.44495166015625,-0.21744829416275024,0.23626862466335297,-0.6336896419525146
1761508030801923600,7.454923583984375,-0.11639917641878128,0.02731088548898697,-0.5713301301002502
1761508030811894500,7.46489453125,-0.0074678086675703526,-0.23273199796676636,-0.4807325303554535
1761508030821866500,7.474866455078125,0.10308453440666199,-0.49042239785194397,-0.3829742670059204
1761508030831837700,7.484837646484375,0.18549631536006927,-0.7117923498153687,-0.3024463951587677
1761508030841809400,7.494809326171875,0.23517856001853943,-0.8635130524635315,-0.22417981922626495
1761508030851780600,7.504780517578125,0.24572978913784027,-0.9164784550666809,-0.15400637686252594
1761508030861752600,7.514752685546875,0.245356947183609,-0.8659015893936157,-0.09486875683069229
1761508030871723800,7.524723876953125,0.2363061010837555,-0.7295765280723572,-0.03449211269617081
1761508030881695200,7.5346953125,0.21846504509449005,-0.5386356115341187,0.03626301884651184
1761508030891666400,7.54466650390625,0.1965402215719223,-0.33181142807006836,0.11564291268587112
1761508030901638100,7.55463818359375,0.15171203017234802,-0.15994006395339966,0.20440848171710968
1761508030911609300,7.564609375,0.09754245728254318,-0.02852068468928337,0.2834203839302063
1761508030921581300,7.574581298828125,0.04432769864797592,0.05814656615257263,0.3374607264995575
1761508030931552500,7.584552490234375,-0.02737613581120968,0.13006946444511414,0.35084596276283264
1761508030941524200,7.594524169921875,-0.1016722023487091,0.1994360238313675,0.32947009801864624
1761508030951495400,7.604495361328125,-0.16259485483169556,0.27579525113105774,0.2767278552055359
1761508030961467400,7.61446728515625,-0.20201656222343445,0.3521566092967987,0.23071163892745972
1761508030971438300,7.624438232421875,-0.21756303310394287,0.42807257175445557,0.2002495527267456
1761508030981410300,7.634410400390625,-0.22797679901123047,0.4940108358860016,0.1909622997045517
1761508030991381500,7.644381591796875,-0.2259540855884552,0.5389641523361206,0.20729902386665344
1761508031001353200,7.654353271484375,-0.21202442049980164,0.5622804164886475,0.24514652788639069
1761508031011324400,7.664324462890625,-0.19824402034282684,0.5495808720588684,0.2967491149902344
1761508031021296400,7.67429638671875,-0.207307830452919,0.4624375104904175,0.32700181007385254
1761508031031267300,7.684267333984375,-0.23911280930042267,0.3050674796104431,0.32316523790359497
1761508031041239300,7.6942392578125,-0.25254231691360474,0.1057242751121521,0.2502146065235138
1761508031051210500,7.70421044921875,-0.25080516934394836,-0.12251409888267517,0.11458711326122284
1761508031061182200,7.71418212890625,-0.24506820738315582,-0.358938604593277,-0.03897315263748169
1761508031071153400,7.7241533203125,-0.24013479053974152,-0.5403152704238892,-0.17977626621723175
1761508031081125400,7.73412548828125,-0.224518284201622,-0.6406424045562744,-0.3286248743534088
1761508031091096300,7.744096435546875,-0.22957339882850647,-0.6794513463973999,-0.49942746758461
1761508031101068300,7.754068359375,-0.24705491960048676,-0.6793045997619629,-0.6722522377967834
1761508031111039500,7.76403955078125,-0.2621987462043762,-0.5836837291717529,-0.8030593991279602
1761508031121011200,7.77401123046875,-0.2899174094200134,-0.3876926302909851,-0.8975856304168701
1761508031130982400,7.783982421875,-0.3072963058948517,-0.13906626403331757,-0.9461825489997864
1761508031140954400,7.793954345703125,-0.2981368899345398,0.13462306559085846,-0.9294254183769226
1761508031150925300,7.80392529296875,-0.29306134581565857,0.36601269245147705,-0.8427177667617798
1761508031160897300,7.813897216796875,-0.26161500811576843,0.5132985711097717,-0.723533570766449
1761508031170868500,7.823868408203125,-0.18491321802139282,0.5753023028373718,-0.6333242058753967
1761508031180840200,7.833840087890625,-0.0974760428071022,0.5657045245170593,-0.5692530870437622
1761508031190811400,7.843811279296875,-0.02126467041671276,0.528471827507019,-0.5022668838500977
1761508031200783400,7.853783447265625,0.07161706686019897,0.43728309869766235,-0.4278927743434906
1761508031210754300,7.86375439453125,0.16144636273384094,0.3435724079608917,-0.3452865481376648
1761508031220726300,7.873726318359375,0.234624445438385,0.24542295932769775,-0.21222782135009766
1761508031230697500,7.883697509765625,0.28299909830093384,0.14784568548202515,-0.09928453713655472
1761508031240669200,7.893669189453125,0.327673077583313,0.1004539281129837,-0.03093744069337845
1761508031250640400,7.903640380859375,0.38954058289527893,0.14297446608543396,0.0008932255441322923
1761508031260612400,7.9136123046875,0.4413081705570221,0.2546282708644867,-0.00548557797446847
1761508031270583300,7.923583251953125,0.46304851770401,0.4427309036254883,-0.0074935914017260075
1761508031280555300,7.93355517578125,0.49250760674476624,0.6230564713478088,-0.000205851043574512
1761508031290526500,7.9435263671875,0.49153563380241394,0.6674965620040894,-0.016167782247066498
1761508031300498200,7.953498291015625,0.432352751493454,0.5680626630783081,-0.05822495371103287
1761508031310469400,7.963469482421875,0.23346175253391266,0.3816817104816437,-0.1346207857131958
1761508031320441300,7.97344140625,-0.0044509475119411945,0.15465547144412994,-0.2569890320301056
1761508031330412300,7.983412353515625,-0.16572251915931702,-0.09415024518966675,-0.38060179352760315
1761508031340384300,7.99338427734375,-0.27330195903778076,-0.30032527446746826,-0.43803873658180237
1761508031350355500,8.00335546875,-0.32630211114883423,-0.4020460844039917,-0.3468995690345764
1761508031360327200,8.0133271484375,-0.30016371607780457,-0.44395437836647034,-0.09585773199796677
1761508031370298400,8.02329833984375,-0.14691407978534698,-0.528920590877533,0.25289803743362427
1761508031380270300,8.033270263671875,0.07671981304883957,-0.5891602039337158,0.6439384818077087
1761508031390241300,8.0432412109375,0.2756417989730835,-0.5624790191650391,0.9863404035568237
1761508031400213200,8.053213134765626,0.41130775213241577,-0.45415017008781433,1.2193608283996582
1761508031410184400,8.063184326171875,0.4672119915485382,-0.3201987147331238,1.3324781656265259
1761508031420156200,8.07315625,0.44204431772232056,-0.18206560611724854,1.3498072624206543
1761508031430127400,8.08312744140625,0.37783899903297424,-0.0666973888874054,1.3037854433059692
1761508031440099300,8.093099365234375,0.28277453780174255,0.009479936212301254,1.2121270895004272
1761508031450070300,8.1030703125,0.20087580382823944,0.047273024916648865,1.1148630380630493
1761508031460042200,8.113042236328125,0.14802244305610657,0.08434609323740005,1.0174199342727661
1761508031470013400,8.123013427734374,0.10121463984251022,0.14632250368595123,0.9224573969841003
1761508031479985200,8.132985107421876,0.019935231655836105,0.20478953421115875,0.8414714932441711
1761508031489956400,8.142956298828125,-0.06904137879610062,0.2730018198490143,0.7696424126625061
1761508031499928300,8.15292822265625,-0.1397096961736679,0.32391613721847534,0.7264984250068665
1761508031509899300,8.162899169921875,-0.18226514756679535,0.3817596733570099,0.7115821838378906
1761508031519871200,8.172871337890625,-0.24122487008571625,0.3756554424762726,0.6445469856262207
1761508031529842400,8.182842529296876,-0.4552193880081177,0.1824854612350464,0.3623582422733307
1761508031539814100,8.192814208984375,-0.752046525478363,-0.22707967460155487,-0.20953507721424103
1761508031549785300,8.202785400390624,-0.7805710434913635,-0.5054212212562561,-0.7709622979164124
1761508031559757300,8.21275732421875,-0.5128783583641052,-0.24349743127822876,-1.0339754819869995
1761508031569728300,8.222728271484375,-0.13817012310028076,0.5577266216278076,-0.8951166868209839
1761508031579700200,8.2327001953125,0.19274921715259552,1.4537522792816162,-0.3466644585132599
1761508031589671400,8.24267138671875,0.4471127688884735,1.8607183694839478,0.3822280168533325
1761508031599643100,8.25264306640625,0.5948761105537415,1.532492995262146,0.9159119129180908
1761508031609614300,8.2626142578125,0.5701285004615784,0.7707124352455139,1.241204857826233
1761508031619586300,8.27258642578125,0.4379728138446808,0.06816786527633667,1.4110194444656372
1761508031629557200,8.28255712890625,0.3497112989425659,-0.2631235122680664,1.4126988649368286
1761508031639529200,8.292529296875,0.35574018955230713,-0.14801345765590668,1.2446904182434082
1761508031649500400,8.30250048828125,0.41767624020576477,0.292781263589859,1.0348838567733765
1761508031659472100,8.31247216796875,0.46907180547714233,0.7860305905342102,0.8906699419021606
1761508031669443300,8.322443359375,0.503612220287323,1.1253206729888916,0.8413903117179871
1761508031679415300,8.332415283203124,0.5347563028335571,1.2663534879684448,0.8730475902557373
1761508031689386200,8.34238623046875,0.5350301265716553,1.2561233043670654,0.9643728733062744
1761508031699358200,8.352358154296875,0.4989203214645386,1.1643332242965698,1.0771862268447876
1761508031709329400,8.362329345703126,0.4711489677429199,1.0508739948272705,1.1980743408203125
1761508031719301000,8.372301025390625,0.449924111366272,0.9201372861862183,1.2967817783355713
1761508031729272300,8.382272216796874,0.4109155237674713,0.7879739999771118,1.3160920143127441
1761508031739244300,8.392244384765625,0.3418823778629303,0.6146107316017151,1.2147678136825562
1761508031749215500,8.402215576171875,0.28410109877586365,0.4649241268634796,1.0172957181930542
1761508031759187200,8.412187255859376,0.2270711064338684,0.35108810663223267,0.7253170609474182
1761508031769159400,8.422159423828125,0.21875672042369843,0.26208212971687317,0.3996162712574005
1761508031779130000,8.432130126953124,0.24768316745758057,0.16221703588962555,0.09712967276573181
1761508031789102300,8.442102294921876,0.2916776239871979,-0.0068082502111792564,-0.11965437978506088
1761508031799073300,8.4520732421875,0.3205218017101288,-0.2567232847213745,-0.22431766986846924
1761508031809045200,8.462045166015624,0.30756133794784546,-0.5539263486862183,-0.24408942461013794
1761508031819016200,8.47201611328125,0.2705465853214264,-0.7918065190315247,-0.2579794228076935
1761508031828988400,8.481988525390625,0.21313992142677307,-0.8571247458457947,-0.31233417987823486
1761508031838959000,8.491958984375,0.13992111384868622,-0.7543142437934875,-0.3937518298625946
1761508031848931300,8.501931396484375,0.10041297972202301,-0.5215505361557007,-0.45606815814971924
1761508031858902300,8.51190234375,0.12639132142066956,-0.27430450916290283,-0.4693666696548462
1761508031868874200,8.521874267578125,0.17069301009178162,-0.09135591983795166,-0.4045811593532562
1761508031878845400,8.531845458984375,0.20108100771903992,-0.048412445932626724,-0.27599096298217773
1761508031888817700,8.541817626953126,0.2034452259540558,-0.12875965237617493,-0.13055245578289032
1761508031898788400,8.551788330078125,0.17884081602096558,-0.22844070196151733,-0.024921901524066925
1761508031908760600,8.561760498046874,0.16485469043254852,-0.27572306990623474,0.023120082914829254
1761508031918731500,8.5717314453125,0.18471494317054749,-0.27039834856987,0.03361719846725464
1761508031928703500,8.581703369140625,0.166839137673378,-0.3571541905403137,0.047394074499607086
1761508031938674400,8.59167431640625,-0.1356418877840042,-0.48697182536125183,0.13334015011787415
1761508031948646700,8.601646728515625,-0.2937048375606537,-0.29248514771461487,-0.008503471501171589
1761508031958617300,8.611617431640624,-0.28074243664741516,0.059362392872571945,-0.26762479543685913
1761508031968589600,8.621589599609376,-0.28145575523376465,0.4441288709640503,-0.48456278443336487
1761508031978560500,8.631560546875,-0.28515034914016724,0.6424805521965027,-0.5570976734161377
1761508031988532500,8.641532470703124,-0.3088766038417816,0.6579203009605408,-0.4613155424594879
1761508031998503400,8.65150341796875,-0.29948896169662476,0.5941098928451538,-0.31460943818092346
1761508032008475600,8.6614755859375,-0.22539331018924713,0.5105231404304504,-0.16133160889148712
1761508032018446300,8.6714462890625,-0.17485183477401733,0.34635284543037415,-0.04221639782190323
1761508032028418600,8.68141845703125,-0.14828285574913025,0.13964127004146576,0.05822579562664032
1761508032038390500,8.691390625,-0.10781452059745789,-0.023329799994826317,0.12663014233112335
1761508032048361500,8.701361572265625,-0.04331311210989952,-0.0877077504992485,0.17008598148822784
1761508032058332400,8.71133251953125,0.016763539984822273,-0.15325665473937988,0.20130914449691772
1761508032068304600,8.7213046875,0.04428309202194214,-0.19392172992229462,0.23446500301361084
1761508032078275300,8.731275390625,0.06729760020971298,-0.19353610277175903,0.24670489132404327
1761508032088247600,8.74124755859375,0.08105655014514923,-0.1342822164297104,0.23630520701408386
1761508032098219500,8.751219482421876,0.0730564147233963,-0.08164405077695847,0.21659035980701447
1761508032108190500,8.7611904296875,0.02330719120800495,-0.08724129945039749,0.18786874413490295
1761508032118162700,8.77116259765625,-0.04432138800621033,-0.11947993189096451,0.14582888782024384
1761508032128133600,8.781133544921875,-0.09124784171581268,-0.12144340574741364,0.06179341673851013
1761508032138105600,8.791105712890625,-0.10824333131313324,-0.05882583186030388,-0.041675716638565063
1761508032148076500,8.80107666015625,-0.12098949402570724,0.02390686608850956,-0.12138492614030838
1761508032158048500,8.811048583984375,-0.1317840814590454,0.08836308866739273,-0.14423751831054688
1761508032168019500,8.82101953125,-0.11001433432102203,0.11337044835090637,-0.1135244369506836
1761508032177991700,8.83099169921875,-0.07669419795274734,0.10698631405830383,-0.05492929741740227
1761508032187962600,8.840962646484375,-0.06370870769023895,0.08411999046802521,0.08668696880340576
1761508032197934600,8.8509345703125,-0.07845942676067352,-0.049541402608156204,0.2233518660068512
1761508032207905500,8.860905517578125,-0.09667682647705078,-0.1339513659477234,0.2832171618938446
1761508032217877500,8.87087744140625,-0.09205757081508636,-0.12921440601348877,0.24056102335453033
1761508032227848400,8.880848388671875,-0.07304499298334122,0.006729251239448786,0.11032461374998093
1761508032237820700,8.890820556640625,-0.039833251386880875,0.15743513405323029,-0.055236127227544785
1761508032247791600,8.90079150390625,0.0005495939403772354,0.331186980009079,-0.17400512099266052
1761508032257763600,8.910763671875,0.02098323032259941,0.4882391691207886,-0.16964979469776154
1761508032267734500,8.920734619140624,-0.02881535328924656,0.5817427635192871,-0.0837349146604538
1761508032277706500,8.93070654296875,-0.11619659513235092,0.5298137664794922,0.045120272785425186
