time,seconds_elapsed,z,y,x
1761507112717395000,0.08139501953125,-0.23638649740815162,-0.15130729053765535,-0.16837079967185853
1761507112727367000,0.091366943359375,-0.13980360748767853,-0.16379823105931282,-0.16309859488997608
1761507112737339100,0.101339111328125,-0.013180384090542792,-0.17042670928835868,-0.09224610282517968
1761507112747309800,0.111309814453125,0.10819266369342803,-0.1898221685014665,-0.02984181522987783
1761507112757282000,0.121281982421875,0.13030454225838184,-0.2288037871941924,-0.00923197525832802
1761507112767253000,0.1312529296875,0.09320902957320212,-0.2618513396628201,-0.006312142288871109
1761507112777225000,0.141224853515625,0.019238368955254555,-0.2695196823336184,-0.026706293683126568
1761507112787196000,0.15119580078125,-0.07654372597634791,-0.23601474148631094,0.007017367948777973
1761507112797168000,0.161168212890625,-0.13306114749014378,-0.19266820558235048,0.06607530425824225
1761507112807140000,0.17114013671875,-0.11865560551881789,-0.15710910868421196,0.1211500526830554
1761507112817111000,0.181111083984375,-0.06248305191993713,-0.15890505219027398,0.13870952864065766
1761507112827083000,0.1910830078125,0.01988251207768917,-0.1869429598033428,0.10031772906724364
1761507112837054000,0.201053955078125,0.06934416986107826,-0.22305165340825914,0.04413078161682933
1761507112847026200,0.211026123046875,0.09380465737879276,-0.220968709654361,0.02413739304319024
1761507112856997000,0.2209970703125,0.13688158256113528,-0.2004690885916352,0.06006714988462627
1761507112866969000,0.230968994140625,0.17151684261262415,-0.16477423648461698,0.13339582280460743
1761507112876941000,0.240941162109375,0.17898235618770122,-0.11404840398430824,0.20693521586582064
1761507112886912000,0.250912109375,0.19795418316125868,-0.0878749750688672,0.2845688194381073
1761507112896884000,0.260884033203125,0.26420389413833617,-0.07301496732831,0.3393289489557966
1761507112906855200,0.270855224609375,0.3076408848047256,-0.07576368151456117,0.36692572520524264
1761507112916827000,0.280826904296875,0.3212368639588356,-0.07566168244481086,0.39601960814464837
1761507112926799000,0.290799072265625,0.34468788217306134,-0.09178834912031889,0.4202063202222809
1761507112936770000,0.30077001953125,0.3810591722369194,-0.09985767380744218,0.4403715582314878
1761507112946742000,0.310741943359375,0.40651977670788764,-0.09172653593048453,0.41814065639674663
1761507112956713000,0.320712890625,0.4587304409384727,-0.10817059799209236,0.4083038105804473
1761507112966685200,0.330685302734375,0.4528671018630266,-0.1409491242609918,0.39730840584617105
1761507112976656000,0.34065576171875,0.4116957180410623,-0.162099756578356,0.34890597479213026
1761507112986627800,0.3506279296875,0.35830315054953094,-0.1962812815129757,0.3855615982227027
1761507112996598800,0.360598876953125,0.26913258271217344,-0.19826646398082373,0.4297042164077982
1761507113006570800,0.37057080078125,0.2085106484889984,-0.22017332149296998,0.4693074375975877
1761507113016542700,0.380542724609375,0.1542214244186878,-0.24696298261061309,0.4550382353570312
1761507113026514000,0.390513916015625,0.09239069892764092,-0.2668368729904294,0.43364553791210053
1761507113036485600,0.400485595703125,-0.019159458500146866,-0.252766992714256,0.41287323738783593
1761507113046456800,0.410456787109375,-0.15317396119236945,-0.19965937964394687,0.38160719804111864
1761507113056428500,0.420428466796875,-0.3465893318802118,-0.12982201943844557,0.344644444890134
1761507113066400800,0.43040087890625,-0.5222410823404788,-0.07348243870958686,0.30763222657423467
1761507113076371700,0.440371826171875,-0.6026444063544273,-0.05564034641832113,0.29053181949574497
1761507113086343700,0.45034375,-0.5560258630424738,-0.06630217181667686,0.3357771016931161
1761507113096314600,0.460314697265625,-0.4478051422983408,-0.10215944794379174,0.37998146000280975
1761507113106286800,0.470286865234375,-0.3300222279608249,-0.1312357586938888,0.4321068205701187
1761507113116257800,0.4802578125,-0.21151158387064933,-0.15862345876991749,0.46934601604230697
1761507113126229800,0.490229736328125,-0.07044248649179935,-0.16469949074797333,0.50482558143083
1761507113136202000,0.500201904296875,-0.0037953006297349926,-0.15499145894311367,0.5444690980983897
1761507113146172700,0.510172607421875,0.04032967230081558,-0.15669139472879468,0.46636257978472856
1761507113156145000,0.520144775390625,0.11363280892074107,-0.17366985592804848,0.3655733242155984
1761507113166115800,0.53011572265625,0.14315817861258984,-0.19750892361178993,0.33304457145668565
1761507113176087800,0.540087890625,0.10590542953908443,-0.1916354284685105,0.347481823740527
1761507113186058800,0.550058837890625,0.04646539857685566,-0.15527590190768242,0.3684457743793726
1761507113196031000,0.560031005859375,-0.028256957191228865,-0.1118717175323516,0.36898623793162405
1761507113206002700,0.570002685546875,-0.04592705391645431,-0.09859276843816041,0.383690908979997
1761507113215974000,0.579973876953125,-0.01497603533565998,-0.07555873352698982,0.37296281341239806
1761507113225945600,0.589945556640625,0.012694646400213241,-0.06502382244393229,0.3230739431928843
1761507113235916800,0.599916748046875,-0.03225391787290573,-0.04752922841608524,0.24131323148692024
1761507113245888800,0.609888671875,-0.04198211568295956,-0.04163995118178427,0.09777759786406531
1761507113255860700,0.61986083984375,-0.057550856214761734,-0.06127820617482066,-0.06520336199561133
1761507113265831700,0.629831787109375,-0.10903963591158389,-0.031186215576156973,-0.2476550930606201
1761507113275804000,0.639803955078125,-0.16843991938531397,0.005693170140311121,-0.40950869285818187
1761507113285774600,0.649774658203125,-0.17175182041227816,0.05013225052133202,-0.5296041949870065
1761507113295746800,0.659746826171875,-0.18638766400814055,0.0991374697741121,-0.5980401639619842
1761507113305717800,0.6697177734375,-0.15822656840682028,0.1483150499191135,-0.6171992936685681
1761507113315689700,0.679689697265625,-0.004562193349003791,0.1675171054519713,-0.617837299311161
1761507113325661700,0.68966162109375,0.20356793138980864,0.125871601312235,-0.5954025089347734
1761507113335633000,0.6996328125,0.45555824064314365,0.05985621054768562,-0.5286865686854347
1761507113345604600,0.7096044921875,0.6261462779730558,0.026895167318731546,-0.4929878075882792
1761507113355575800,0.719575927734375,0.6203489898711443,0.013545710271596907,-0.45610981011129914
1761507113365547800,0.7295478515625,0.5159112947970629,0.018479221151024103,-0.363958874756284
1761507113375518700,0.739518798828125,0.4221937311798334,0.07590747389942407,-0.318176088148728
1761507113385490700,0.74949072265625,0.33201427856087684,0.11693331177085638,-0.2623976849665865
1761507113395462700,0.759462646484375,0.24043957219123838,0.17941819032169878,-0.18399901530593632
1761507113405433600,0.76943359375,0.16650982810556889,0.22294841222949324,-0.12655227705277503
1761507113415405800,0.77940576171875,0.08356967909038067,0.19673728165216742,-0.06082216950301081
1761507113425376800,0.789376708984375,-0.007148118188977241,0.17702048153020442,0.025387685365229843
1761507113435348700,0.7993486328125,-0.08722001829147338,0.13542970325239,0.11568645351491867
1761507113445321000,0.809321044921875,-0.10456745893359183,0.046090866176038976,0.23932700783945618
1761507113455291600,0.819291748046875,-0.05759352631270885,-0.06319945656098425,0.40374530702587214
1761507113465263900,0.829263916015625,-0.011337386572360992,-0.1873378774050623,0.5311585117569193
1761507113475234800,0.83923486328125,-0.0013876549661159514,-0.3393558004301041,0.6145448336370289
1761507113485206800,0.849206787109375,0.013072247540950774,-0.5048683611266315,0.6015332302421331
1761507113495177700,0.859177734375,0.01610240901708603,-0.6923940161887556,0.540275664996542
1761507113505150000,0.86914990234375,0.06428454838395119,-0.8723269510995596,0.4290081239024177
1761507113515121700,0.87912158203125,0.13885200585126875,-1.059587525484711,0.3199838316904381
1761507113525092900,0.8890927734375,0.15391162781715392,-1.1773529772307723,0.22283786452710627
1761507113535064600,0.899064697265625,0.029991818159818648,-1.2207812000688165,0.13410042741000652
1761507113545035800,0.909035888671875,-0.19498422743976115,-1.1910655685018747,0.06919160964787006
1761507113555007700,0.9190078125,-0.4054050934642553,-1.109524399564415,0.08511866209805011
1761507113564979000,0.92897900390625,-0.5445896922707557,-1.0493964594032614,0.13479114962052552
1761507113574950700,0.93895068359375,-0.5850637414783239,-1.0000717989377677,0.17397537821326403
1761507113584923000,0.9489228515625,-0.5582388629168271,-0.9748187728028744,0.20480207629464567
1761507113594893600,0.9588935546875,-0.44046763901710506,-0.9652961805675179,0.23276878183502703
1761507113604865800,0.96886572265625,-0.28749007717967034,-0.9595060528587549,0.24520075871106237
1761507113614836700,0.978836669921875,-0.1376087277919054,-0.9385788540337234,0.2404484130848199
1761507113624808700,0.98880859375,-0.020026304462552068,-0.8925403756320476,0.20372206250559538
1761507113634779600,0.998779541015625,-0.012789923468232154,-0.8355107668124139,0.12340853566695004
1761507113644752000,1.008751953125,-0.01960486418008804,-0.7720056783683598,0.04493647197652608
1761507113654723600,1.0187236328125,-0.00852758984863758,-0.717305023952946,-0.012878186273574828
1761507113664694800,1.02869482421875,-0.005582768568396568,-0.6663626991577446,-0.0742361066211015
1761507113674666800,1.038666748046875,-0.0005050269126892089,-0.6133740362919866,-0.12400741487555206
1761507113684637700,1.0486376953125,0.030436054795980452,-0.5780437066484242,-0.15565613339692352
1761507113694609700,1.058609619140625,0.12478081040084361,-0.5703290406178683,-0.1685621575254947
1761507113704580900,1.068580810546875,0.2745879255086183,-0.6135990041542798,-0.1365420484084636
1761507113714552600,1.078552490234375,0.4116530479431152,-0.6546936694782227,-0.14169000575616955
1761507113724524800,1.08852490234375,0.5062275206506252,-0.714580275164172,-0.1476576089236885
1761507113734495700,1.098495849609375,0.5685901610612869,-0.75906896684058,-0.14951847089212386
1761507113744467700,1.1084677734375,0.5979296527922153,-0.8094290347684174,-0.15572123452238737
1761507113754438700,1.118438720703125,0.6180915663331746,-0.8175563732530922,-0.1449551084993407
1761507113764410600,1.12841064453125,0.5675614025354385,-0.8415286388624459,-0.10871752781774847
1761507113774382800,1.1383828125,0.45473932547569273,-0.8506493722986429,-0.07582914796620607
1761507113784353800,1.148353759765625,0.3455973982334137,-0.866888705568388,-0.02723192499242723
1761507113794325800,1.15832568359375,0.2601537419646978,-0.8779531204182655,0.038624987274780864
1761507113804296700,1.168296630859375,0.2523001058548689,-0.9241350989438593,0.0879093887951225
1761507113814269000,1.17826904296875,0.310294029662013,-0.9961869933936744,0.12878036489840597
1761507113824239600,1.188239501953125,0.3712000415235758,-1.0742129938170313,0.1381940899318084
1761507113834211800,1.1982119140625,0.38198096325695513,-1.1323504908133297,0.10682440754752605
1761507113844183800,1.208183837890625,0.3249035697728395,-1.150557763155177,0.11315649664588272
1761507113854154800,1.21815478515625,0.22429332403242586,-1.1654616831026972,0.1598220209047198
1761507113864126700,1.228126708984375,0.15906477279663084,-1.1434363868426531,0.2137648061575368
1761507113874098000,1.238097900390625,0.08978022416830063,-1.0639236549928783,0.2528227414894849
1761507113884069600,1.248069580078125,-0.00402852486371994,-1.0438735312633216,0.2569523155748844
1761507113894040800,1.258040771484375,-0.07973872262537479,-0.9801285696487874,0.19697368422392755
1761507113904012800,1.2680126953125,-0.17766192123889923,-0.9060876933388411,0.10431615105364471
1761507113913984800,1.27798486328125,-0.051635494691133495,-0.8439630994677543,0.10796809768993407
1761507113923955700,1.287955810546875,0.30542671588659287,-0.8261863274976611,0.27706600605994464
1761507113933927700,1.297927734375,0.6579150426775217,-0.7696236055374145,0.5167493895890191
1761507113943898600,1.307898681640625,0.6700503016293049,-0.6668789050515741,0.7211340076565742
1761507113953870800,1.317870849609375,0.2933189294636249,-0.506450661882013,0.7402594177566468
1761507113963841800,1.327841796875,-0.3387169910699129,-0.3118338064499199,0.5352283550117165
1761507113973813800,1.337813720703125,-1.1006085410505533,-0.11404029374308884,0.2682872909944504
1761507113983785500,1.347785400390625,-1.7645237009257078,0.13064809499904512,0.0549340247798711
1761507113993756400,1.35775634765625,-2.1384540441960094,0.3336609497893602,-0.085790971869044
1761507114003728400,1.367728271484375,-2.2001614355683325,0.4311280021332204,-0.1493551700891927
1761507114013699600,1.377699462890625,-2.019032715001702,0.42676783416233954,-0.1853659928102046
1761507114023671300,1.38767138671875,-1.649831153818965,0.3376606138847768,-0.23712522347886114
1761507114033642500,1.397642578125,-1.1746809084773062,0.1940961925588548,-0.3064206588273868
1761507114043614500,1.407614501953125,-0.6439765336960553,0.020165420672297478,-0.35443540573809296
1761507114053586400,1.41758642578125,-0.18137188167273996,-0.13589695543795824,-0.32997846188433466
1761507114063557400,1.427557373046875,0.04383797268271446,-0.22826091248914598,-0.29719072939567265
1761507114073529600,1.437529541015625,0.04430851280391216,-0.25792729808688164,-0.3365241937333718
1761507114083500300,1.447500244140625,0.03453472228646278,-0.20980229573473333,-0.35104159858133643
1761507114093472500,1.457472412109375,0.136540806299448,-0.11435995415151119,-0.2978872968250885
1761507114103443500,1.467443359375,0.3422773138999939,-0.014964783289283513,-0.23454386521615087
1761507114113415400,1.47741552734375,0.5275216530919075,0.04037745696529746,-0.19995723007936028
1761507114123387400,1.487387451171875,0.6316027898132801,0.0953894423522055,-0.2101261208616197
1761507114133358600,1.497358642578125,0.6264093128234147,0.17416180416345595,-0.21104959238208829
1761507114143330300,1.507330322265625,0.5365396568059921,0.28331074566841125,-0.1692670178592205
1761507114153301500,1.517301513671875,0.482743769210577,0.3793555831894278,-0.058380037047900256
1761507114163273200,1.527273193359375,0.4461714036166668,0.5048451263815165,0.12304755686745047
1761507114173245400,1.537245361328125,0.4131839107722044,0.6153115802258253,0.31785365126132964
1761507114183216400,1.54721630859375,0.4104945255577564,0.6974845442607999,0.49542712703179564
1761507114193188400,1.557188232421875,0.4561503613173961,0.7190789748229086,0.6164622115656733
1761507114203159300,1.5671591796875,0.4575023604482412,0.728008861862123,0.715282432084158
1761507114213131500,1.577131591796875,0.3774088330358267,0.7659393640667199,0.7647406558014452
1761507114223102200,1.587102294921875,0.17657471052408216,0.7834830579333006,0.7301729810934513
1761507114233074400,1.597074462890625,-0.056688101905584334,0.7877602968610823,0.6915531814504414
1761507114243045400,1.60704541015625,-0.25012743799090387,0.8224643843650817,0.6241976281233131
1761507114253017300,1.617017333984375,-0.3575087853014469,0.7869948654465377,0.5377525397270918
1761507114262989600,1.626989501953125,-0.24999650508761403,0.7151533258117735,0.4386833128836006
1761507114272960500,1.63696044921875,-0.06058627838790416,0.6162609899051487,0.3213307527873665
1761507114282932500,1.646932373046875,0.09053484192788601,0.515374849832803,0.16868015788197516
1761507114292903400,1.6569033203125,0.18628011198043823,0.4468231455236673,-0.03476896943375468
1761507114302875400,1.66687548828125,0.15568331366479396,0.3727582307510078,-0.25313860250562426
1761507114312847400,1.676847412109375,0.0016080197185277937,0.3590865560121834,-0.4012647787891328
1761507114322818600,1.686818603515625,-0.20935820522904394,0.37777605891302224,-0.4824929362546652
1761507114332790300,1.696790283203125,-0.3583510813444853,0.3425143375262618,-0.516414933470264
1761507114342761500,1.706761474609375,-0.42495851971805093,0.3002249094597995,-0.5203894631244241
1761507114352733400,1.7167333984375,-0.38519583365023136,0.2855078173212707,-0.4885691874284297
1761507114362704600,1.72670458984375,-0.26603812382817266,0.2579207222156226,-0.4607433151308447
1761507114372676400,1.73667626953125,-0.06840367414057254,0.22885259477198122,-0.41993645377233624
1761507114382648600,1.746648681640625,0.15720073249042033,0.1606068876720965,-0.40908305132463574
1761507114392619300,1.756619384765625,0.33766426714658737,0.10331848178580402,-0.37952706729881464
1761507114402591500,1.766591552734375,0.4194494009077549,0.09023074441477656,-0.3321113091945648
1761507114412562400,1.7765625,0.4539548970997333,0.14854469395652412,-0.2330811722524464
1761507114422534400,1.786534423828125,0.4901368020713329,0.24986776414141057,-0.10050335129983723
1761507114432505300,1.79650537109375,0.5216062915682792,0.36477249269410966,0.02912826013304293
1761507114442477600,1.8064775390625,0.5573334385097026,0.43468686365857717,0.1612538072735071
1761507114452449300,1.81644921875,0.6942687970846891,0.5142475993685424,0.25000549211166795
1761507114462420500,1.82642041015625,0.8479992231160401,0.6059253277212381,0.3316767171695828
1761507114472392400,1.836392333984375,0.9826748200654983,0.6866824336089193,0.44624205770008263
1761507114482363400,1.84636328125,1.1492349170535803,0.7691323148891329,0.5343632626149803
1761507114492335400,1.85633544921875,1.3299632401257753,0.823076524914056,0.6061334175139665
1761507114502306600,1.866306640625,1.5382348191618918,0.7839620736218988,0.682826342702657
1761507114512278300,1.8762783203125,1.660090097504854,0.6678332101017236,0.6882915493059903
1761507114522250500,1.88625048828125,1.6171943741083143,0.5033293149910867,0.70787690506801
1761507114532221400,1.896221435546875,1.4787825132399797,0.3711046183250844,0.7172431376978755
1761507114542193400,1.906193359375,1.294308573898673,0.2838647993545979,0.6992065457478165
1761507114552164400,1.916164306640625,1.0294447545468806,0.2041273188382387,0.6409630310937762
1761507114562136300,1.92613623046875,0.6739730280309915,0.13028627594932912,0.49041861468739806
1761507114572107300,1.936107177734375,0.3043751610070467,0.01485891176201403,0.3055537032671273
1761507114582079500,1.94607958984375,-0.018648001846671102,-0.1339787737917155,0.19648776387050745
1761507114592051500,1.956051513671875,-0.2968541178524494,-0.27041042062826454,0.14506803082190453
1761507114602022400,1.9660224609375,-0.4579641327410936,-0.4105369764599949,0.17150803825166075
1761507114611994600,1.97599462890625,-0.5621113204360008,-0.5678357624974102,0.22992318314556032
1761507114621965300,1.98596533203125,-0.7542395739227533,-0.7088203964632004,0.28626711125597354
1761507114631937500,1.9959375,-0.992858360427618,-0.8318168076653033,0.3070599796442315
1761507114641908500,2.005908447265625,-1.205554770168662,-0.9440127887159585,0.3415571829319
1761507114651880400,2.01588037109375,-1.3557780648618936,-1.0039958405137062,0.39494543957449496
1761507114661852400,2.025852294921875,-1.4041267929673193,-1.0490578750986606,0.46738731972258535
1761507114671823600,2.03582373046875,-1.3725328003078698,-1.0857344317194073,0.5125945714645087
1761507114681795300,2.04579541015625,-1.2397609911531209,-1.130183083646372,0.4480171776138246
1761507114691766500,2.0557666015625,-1.0075579169094562,-1.2058493692010641,0.29957393473777916
1761507114701738200,2.06573828125,-0.7134136425375938,-1.2712874715343117,0.14863540444727985
1761507114711709400,2.07570947265625,-0.4276356299728155,-1.2968608887299895,0.07363156485669314
1761507114721681400,2.085681396484375,-0.19563012412786482,-1.2949562241524457,0.046735009298473594
1761507114731653400,2.0956533203125,-0.037545594540238376,-1.2225178876683116,0.033879838574305175
1761507114741624300,2.105624267578125,0.0592208352535963,-1.1395627602797,0.007266155078075826
1761507114751596500,2.115596435546875,0.03488309733271599,-1.0558741309847681,0.0008478124683722853
1761507114761567200,2.125567138671875,0.03896422916650772,-0.9296599267799407,0.012547091155685483
1761507114771539500,2.13553955078125,0.03170797442793846,-0.8011400759812444,0.08593849058095365
1761507114781510400,2.145510498046875,-0.018299042278528212,-0.6522500026531517,0.15502218287494032
1761507114791482400,2.155482421875,-0.05620879395604133,-0.5054049522213637,0.2142198564486578
1761507114801454300,2.165454345703125,-0.0004395604610443115,-0.42702538911998267,0.23860589049067346
1761507114811425500,2.175425537109375,0.10212415743470192,-0.3715365069363266,0.2581749527050182
1761507114821397200,2.185397216796875,0.2112941417276859,-0.3387473131429404,0.24870697673372924
1761507114831368400,2.195368408203125,0.3178717714399099,-0.34800869715884325,0.20522293205522
1761507114841340400,2.20534033203125,0.3874468274474144,-0.3279824657615274,0.2398542465839535
1761507114851311400,2.215311279296875,0.4625760104507208,-0.2591283444397151,0.24780871271975338
1761507114861283300,2.225283447265625,0.5484159725606441,-0.20702289414927363,0.2218781526494771
1761507114871255300,2.23525537109375,0.5123036256939173,-0.11594093973264097,0.1839604003285989
1761507114881226200,2.245226318359375,0.3891711670219898,-0.006380348686873912,0.1763527383364737
1761507114891198500,2.255198486328125,0.3046703445613384,0.10585852165743707,0.09700440326817333
1761507114901169400,2.26516943359375,0.2111339827299118,0.22072262593880296,-0.04287548432610929
1761507114911141400,2.275141357421875,0.0012888707667589186,0.3221091898139566,-0.15254815744422376
1761507114921112300,2.2851123046875,-0.27947277494072914,0.4376509741611779,-0.22359657393991947
1761507114931084300,2.295084228515625,-0.36265257793068884,0.48336131658703085,-0.21225041953921317
1761507114941056500,2.305056396484375,-0.2700929521769285,0.44348932492583987,-0.16696195578724146
1761507114951027500,2.31502734375,-0.12992109589874742,0.31748576779700816,-0.022839389121904967
1761507114960999400,2.32499951171875,0.06303834771513939,0.20334303659275174,0.1317079062502831
1761507114970970400,2.334970458984375,0.15281681831777094,0.12034260875768958,0.15419534012936054
1761507114980943000,2.344943115234375,0.03788227914869785,0.08600034030340611,0.1810546324171126
1761507114990914300,2.354914306640625,-0.22107962268292902,0.10627126717679201,0.1598442327365279
1761507115000886300,2.36488623046875,-0.5203647670745849,0.13380546305142343,0.12305055254213511
1761507115010858200,2.374858154296875,-0.7075520570278168,0.17197868797071278,0.11908957648929208
1761507115020829200,2.3848291015625,-0.7318243284970521,0.16498407984301447,0.21989859620481728
1761507115030801400,2.394801513671875,-0.6947673942565917,0.17538586606569587,0.3492185478726402
1761507115040772000,2.404772216796875,-0.6559007802456617,0.1960734109159559,0.509653330380842
1761507115050744300,2.414744384765625,-0.625584552437067,0.19638156354967504,0.5612630695762112
1761507115060715300,2.42471533203125,-0.6285936711251735,0.18481939177811144,0.5222324971752241
1761507115070687200,2.434687255859375,-0.6989046401917934,0.17568799081742761,0.38474973385054617
1761507115080659200,2.4446591796875,-0.7539823842912912,0.16395787860043345,0.23010946296527982
1761507115090630400,2.45463037109375,-0.7251122636377811,0.13988492909558117,0.08425528673436493
1761507115100602000,2.46460205078125,-0.5842664536207914,0.1049884608246386,-0.010453151083737611
1761507115110573300,2.4745732421875,-0.4510065686881542,0.09510836038850247,-0.04944722739923745
1761507115120545000,2.484544921875,-0.3312140680938959,0.08668678819760679,-0.0638080534460023
1761507115130516200,2.49451611328125,-0.30248423269391056,0.08945252658389508,-0.07797310119234024
1761507115140488200,2.50448828125,-0.36483050649166104,0.1252607028722763,-0.13379293236341327
1761507115150460200,2.514460205078125,-0.44643736107647414,0.16570786407291888,-0.18460355707034468
1761507115160431000,2.52443115234375,-0.5561234781980514,0.19165873627886176,-0.2558222886316478
1761507115170403300,2.5344033203125,-0.696976886999607,0.2576603907790035,-0.3242534718336537
1761507115180374300,2.544374267578125,-0.8253168511867522,0.3394312768191099,-0.37712902971375734
1761507115190346200,2.55434619140625,-0.8681348331719636,0.3981883670184761,-0.42161479878071695
1761507115200317200,2.564317138671875,-0.7848024699687958,0.4263710899297148,-0.4724293690104037
1761507115210289200,2.5742890625,-0.5943325050830841,0.4206047814879566,-0.532721450224705
1761507115220261400,2.584261474609375,-0.3422860817283392,0.39056649383790787,-0.5829156235337257
1761507115230232300,2.594232421875,-0.09368833752274512,0.3760455087933689,-0.6331058878526091
1761507115240204300,2.604204345703125,0.08617080149948596,0.38253282498605545,-0.6891394713722169
1761507115250175200,2.61417529296875,0.20452713181078433,0.4124021858099848,-0.7115348430536687
1761507115260147500,2.6241474609375,0.2480593995451927,0.45296113682202993,-0.711160310652852
1761507115270118100,2.6341181640625,0.27342764955759047,0.5087654416304082,-0.6858918677531183
1761507115280090400,2.64409033203125,0.3744996675908565,0.5244863039840012,-0.6122306384105235
1761507115290062000,2.65406201171875,0.5242576828598976,0.49931291895657776,-0.5182222020879388
1761507115300033300,2.664033203125,0.6432528955966234,0.44748511656373735,-0.43081663462910796
1761507115310005200,2.674005126953125,0.6972136183649301,0.37208785720877346,-0.36867961966786533
1761507115319976400,2.6839765625,0.7029103687018156,0.28951223065704107,-0.32274142330288885
1761507115329948200,2.6939482421875,0.7208785715907812,0.22558109882064162,-0.2545538761310279
1761507115339919400,2.70391943359375,0.7290472649991512,0.15493052253611386,-0.20137509752064942
1761507115349891000,2.71389111328125,0.6613420945167541,0.12931896528713405,-0.15158453657645732
1761507115359863300,2.72386328125,0.4492395590156317,0.1559123731803149,-0.13728621783927084
1761507115369834200,2.733834228515625,0.21010756229162214,0.19884528678208588,-0.09710252988040446
1761507115379806200,2.74380615234375,0.09939444020986557,0.18362682099267838,-0.10142656709197909
1761507115389777200,2.753777099609375,0.07593933034241199,0.08855703904889524,-0.13372596807442605
1761507115399749400,2.763749267578125,0.09639233578443526,-0.011248173918947576,-0.12922598977405578
1761507115409720000,2.773719970703125,0.136110013666749,-0.09464183885529637,-0.11463924601692706
1761507115419692300,2.7836923828125,0.2042582517415285,-0.1863926324442029,-0.07984788208827376
1761507115429664300,2.793664306640625,0.2984446019142866,-0.2676247354324907,-0.03847812614999711
1761507115439635200,2.80363525390625,0.43662616115808484,-0.34034714955501255,-0.024519779956899582
1761507115449607200,2.813607177734375,0.559056024518609,-0.4176761806901544,-0.01892444416787475
1761507115459578400,2.823578369140625,0.6676251203089952,-0.5181036902748049,-0.04643609941713512
1761507115469550000,2.833550048828125,0.6939490636110306,-0.5589185157440603,-0.06679276834521443
1761507115479521300,2.843521240234375,0.6020213060200214,-0.5637221896987408,-0.05585563313681632
1761507115489493200,2.8534931640625,0.5007698397666216,-0.5563818368732929,-0.0620325682060793
1761507115499465200,2.86346533203125,0.4362082280069589,-0.5400993951141834,-0.08787380602508783
1761507115509436200,2.873436279296875,0.38936931994259355,-0.5647748405568301,-0.10199556261897086
1761507115519408000,2.883408203125,0.3962853829413652,-0.6104664782822131,-0.09531155481040478
1761507115529379000,2.893379150390625,0.39908699635863304,-0.641555955485627,-0.08549622670616953
1761507115539351300,2.903351318359375,0.40057986526489253,-0.678658117107302,-0.04030884870849549
1761507115549322200,2.913322265625,0.3837514800608158,-0.709701928538084,0.02079896933548152
1761507115559294200,2.923294189453125,0.3282639861166477,-0.7092076422151178,0.07149429709967225
1761507115569266400,2.933266357421875,0.21594225979447362,-0.7227749797966331,0.1159398072214797
1761507115579237000,2.943237060546875,0.10775134966671467,-0.7235517363227904,0.1474872938580811
1761507115589209300,2.953209228515625,-0.026129297512769697,-0.7101835015099496,0.15555764145851134
1761507115599180300,2.96318017578125,-0.14379004677534102,-0.7148485707115382,0.17279471706133334
1761507115609152300,2.97315234375,-0.1707832676410675,-0.7238497694212943,0.19977065799869595
1761507115619123200,2.983123291015625,-0.11412380730807781,-0.7298038555201143,0.2210004564994946
1761507115629095400,2.993095458984375,-0.017799276062846182,-0.7618290792036801,0.23413528441525994
1761507115639067100,3.003067138671875,0.15542963116466998,-0.7966286629714071,0.21788875421974807
1761507115649038300,3.013038330078125,0.33091946906149383,-0.8516108377419411,0.16298921623136847
1761507115659010000,3.023010009765625,0.4629074343621731,-0.8786240784823894,0.10187774492558091
1761507115668981200,3.032981201171875,0.5550497114866971,-0.8631144477266818,0.02245217990260571
1761507115678953200,3.042953125,0.5718213980674743,-0.8553374570496379,-0.01653743943348527
1761507115688924400,3.05292431640625,0.39215456674695015,-0.79390493709594,-0.10417418529968708
1761507115698896100,3.062896240234375,0.1297393095910549,-0.778058621731773,-0.23778156849574297
1761507115708868400,3.072868408203125,-0.05444821402430534,-0.7409547796096653,-0.37936997704096137
1761507115718839300,3.08283935546875,-0.16982757435142992,-0.7786707622807473,-0.41257089344039555
1761507115728811300,3.092811279296875,-0.2046457897543907,-0.7971884888112545,-0.42836303093191236
1761507115738782200,3.1027822265625,-0.13889993664622305,-0.8490455903638153,-0.4338848630933091
1761507115748754200,3.112754150390625,-0.03661795830130577,-0.8889522880122065,-0.3856936271045357
1761507115758725000,3.12272509765625,0.09169628692269324,-0.9333540320575237,-0.26698567034397275
1761507115768697300,3.132697265625,0.09688391869366168,-0.9326524596594273,-0.1669076683167368
1761507115778669300,3.14266943359375,-0.167276136302948,-0.8816627885911613,-0.1403157582608983
1761507115788640300,3.15264013671875,-0.5992325520843267,-0.7423937994368374,-0.15637604516930878
1761507115798612500,3.162612548828125,-0.9669628716707229,-0.5445531596526503,-0.17367109803706407
1761507115808583200,3.172583251953125,-1.1801023490041493,-0.3616124942932278,-0.15482706216163933
1761507115818555400,3.182555419921875,-1.3072469659268855,-0.20180508643575013,-0.14815985935740172
1761507115828526300,3.1925263671875,-1.346290105548501,-0.14123890098780392,-0.12076141869165002
1761507115838498300,3.202498291015625,-1.2260001768261193,-0.11426606532298028,-0.07987878868319094
1761507115848470300,3.21247021484375,-1.043942650976777,-0.06721000737659633,-0.014414675125852226
1761507115858441500,3.22244140625,-0.8485270463824272,-0.0014545096572488546,0.06448145919553935
1761507115868413200,3.2324130859375,-0.6004506957024336,0.06116722008101642,0.08804945485293865
1761507115878384400,3.24238427734375,-0.40995968802869315,0.10260960286408662,0.13012107545025645
1761507115888356000,3.252356201171875,-0.24509821165204046,0.147124744156003,0.1678061515264213
1761507115898327300,3.262327392578125,-0.11459668551683425,0.20715601900964975,0.23497666714284568
1761507115908299300,3.27229931640625,-0.032145781323313714,0.2973933392956853,0.3343717649398371
1761507115918271200,3.282271240234375,0.06066518884301185,0.3529888967242092,0.39730036867018786
1761507115928242200,3.2922421875,0.12754150728583336,0.385554072503373,0.44147791203819214
1761507115938214400,3.30221435546875,0.17195815663933753,0.40848603527955707,0.42046643246319143
1761507115948185000,3.31218505859375,0.21027005937695503,0.4093008587937802,0.3884426335517317
1761507115958157300,3.3221572265625,0.1752268030464649,0.4408552500952035,0.32284243599195034
1761507115968128300,3.332128173828125,0.014383330139517782,0.49230946993529795,0.2626775978865102
1761507115978100200,3.342100341796875,-0.15830664790570734,0.5772546751625836,0.21750742675196377
1761507115988072000,3.352072021484375,-0.260423791077733,0.6369280034240334,0.1821599633105099
1761507115998043100,3.362043212890625,-0.2918114475101232,0.6646283496458083,0.1483466506337747
1761507116008014800,3.372014892578125,-0.28912673847079273,0.7078044974189251,0.16276494248881934
1761507116017986000,3.381986083984375,-0.25355624339580535,0.7369665867563336,0.19450280059836803
1761507116027958000,3.3919580078125,-0.17395137628316878,0.762130181042105,0.2373827784365043
1761507116037929000,3.401928955078125,-0.19703356118500231,0.7971628429133445,0.266619430847466
1761507116047901000,3.41190087890625,-0.2571177352696657,0.8472852296277881,0.2549391856541857
1761507116057873000,3.421872802734375,-0.3279676335185766,0.8698034239713102,0.18587649961560965
1761507116067843800,3.43184375,-0.3572445814073086,0.9108895406626164,0.1707233541473746
1761507116077816000,3.441816162109375,-0.21363748998343943,0.9110849901694804,0.18980463284477592
1761507116087787000,3.451787109375,0.18373451915085315,0.851301990988478,0.24604656188543886
1761507116097759000,3.461759033203125,0.6421300290465355,0.7829611529510467,0.3289537219464779
1761507116107730000,3.47172998046875,1.0878069271445274,0.7179422989431768,0.3540312819166109
1761507116117702000,3.481701904296875,1.4124819488584994,0.6591571516931056,0.38723011595681306
1761507116127674000,3.491674072265625,1.5372621747374533,0.6286300576128065,0.4115686575952917
1761507116137645000,3.50164501953125,1.4977543402135371,0.6592680647216737,0.37331820272132754
1761507116147617000,3.511616943359375,1.3436089036405086,0.6888343509458005,0.2344131880411878
1761507116157588000,3.521587890625,1.1407406449526547,0.6753669666074216,-0.003794241183809936
1761507116167560200,3.531560302734375,0.8425362815350294,0.6470521417491137,-0.22626429531183093
1761507116177531000,3.54153076171875,0.5776116719067096,0.6840763427637517,-0.32233298863247034
1761507116187503000,3.551503173828125,0.4147305556923151,0.6968481460534036,-0.35737102079857136
1761507116197475000,3.56147509765625,0.3168266463011503,0.6779631205804646,-0.4095473078355193
1761507116207446000,3.571446044921875,0.2660574130505323,0.6387303036056459,-0.48358095068708057
1761507116217418000,3.58141796875,0.08092179493010043,0.6055826517634093,-0.4795886661805212
1761507116227389200,3.59138916015625,-0.2488742230594158,0.6066206895742565,-0.4319895508660003
1761507116237361000,3.60136083984375,-0.5632113906323909,0.6458960305165499,-0.32882249678224323
1761507116247332000,3.61133203125,-0.7396002231955527,0.6680264676515013,-0.14651892374996095
1761507116257304000,3.621303955078125,-0.6756839236021042,0.6295022373374551,0.0799960583873093
1761507116267276000,3.631276123046875,-0.4592962581276893,0.5408402766093612,0.27173618933930993
1761507116277247000,3.6412470703125,-0.18967793772518635,0.4129180994428694,0.41477746357396245
1761507116287219000,3.651218994140625,0.03338672129511833,0.2711887845896184,0.5406788389699533
1761507116297190000,3.66118994140625,0.1780588116019964,0.20508345051929353,0.6232490221615881
1761507116307162000,3.671162109375,0.22866788585484027,0.10908500942327082,0.6280544496819377
1761507116317133000,3.681133056640625,0.1741331625908613,0.0398950072105974,0.5662172579174861
1761507116327105000,3.69110498046875,0.06056465107798576,0.0038435967508703467,0.5022452826140448
1761507116337077000,3.701076904296875,-0.06341361076831817,-0.037635757041722534,0.43893023684937504
1761507116347048000,3.7110478515625,-0.15579846447706222,-0.04549808791466057,0.420414300417155
1761507116357020000,3.72102001953125,-0.09929156435728073,-0.08916830281503497,0.45512233344390984
1761507116366991000,3.7309912109375,0.054096916368603705,-0.16991883283145726,0.4909858566487208
1761507116376962800,3.740962890625,0.17717209189534186,-0.24803083103783427,0.4991386583682149
1761507116386934000,3.75093408203125,0.2789034506201744,-0.3322214185055345,0.45842064433693885
1761507116396906000,3.760906005859375,0.3549246140271425,-0.38143816161714494,0.44254462795425203
1761507116406878000,3.7708779296875,0.3523895425915718,-0.4004290586173534,0.40584958582874386
1761507116416849000,3.780848876953125,0.27303309728205205,-0.4101327795732766,0.3271952243739739
1761507116426821000,3.790821044921875,0.09816285258829593,-0.3792114254783839,0.27997929969076063
1761507116436791800,3.800791748046875,-0.16304244425594805,-0.32926147272139783,0.2397671528223902
1761507116446764000,3.810763916015625,-0.30522914748787877,-0.2644303233053535,0.23363292438369243
1761507116456735000,3.82073486328125,-0.3326870632559061,-0.2430994390502572,0.2586095081973821
1761507116466707000,3.83070703125,-0.23194588461220264,-0.26560389712937177,0.2757197790827602
1761507116476679200,3.84067919921875,-0.059978960144519804,-0.3200920047726482,0.28453944721315055
1761507116486650000,3.850650146484375,0.08055003900825977,-0.3984609734147787,0.27143819277342407
1761507116496622000,3.8606220703125,0.19159984569847582,-0.45443383972309526,0.2348707956155762
1761507116506593000,3.870593017578125,0.25950375362336636,-0.4833990913141519,0.21553572482019662
1761507116516565000,3.88056494140625,0.27868776204288004,-0.5114443785160779,0.19766148382499812
1761507116526536000,3.890535888671875,0.22906477621793744,-0.5264554851651191,0.17361381489187477
1761507116536508200,3.900508056640625,0.11287234594225883,-0.5195839188951998,0.13435838422644883
1761507116546479900,3.91047998046875,0.0004874912559986114,-0.4930293817076832,0.1000927612049505
1761507116556451000,3.920451171875,-0.11565467013716697,-0.47007769131772215,0.020968261487782
1761507116566423000,3.930423095703125,-0.20110241805911064,-0.46533992220610376,-0.054493258742429315
1761507116576394000,3.94039404296875,-0.258721078813076,-0.48767852219901975,-0.09181490833368151
1761507116586366000,3.950365966796875,-0.30353286496400833,-0.4899520931541919,-0.10081548598892986
1761507116596337200,3.960337158203125,-0.2789011125326156,-0.49953138401284813,-0.09216010504215955
1761507116606308900,3.970308837890625,-0.25413082841336726,-0.5393335983734577,-0.06969517525583505
1761507116616281000,3.980281005859375,-0.21416414420604704,-0.526895922408998,-0.014966792583279312
1761507116626252000,3.990251953125,-0.18930618180334566,-0.5087354848835617,0.02808901674579829
1761507116636224000,4.00022412109375,-0.15670447340607643,-0.48757981106489895,0.047472675923258066
1761507116646195000,4.01019482421875,-0.07515724005401134,-0.49156040513366456,0.05990096300486475
1761507116656166100,4.020166259765625,0.1230342589944601,-0.5591620421763509,0.10086016538087278
1761507116666137900,4.030137939453125,0.4596025475978851,-0.644157662416622,0.14642638662829993
1761507116676110000,4.040110107421875,0.5949509292423725,-0.6172445941150189,0.15269655293896794
1761507116686081000,4.0500810546875,0.30655659669935703,-0.5205146969392895,0.060315315959416325
1761507116696053000,4.060052978515625,-0.16621756716072558,-0.35078795261383056,-0.10755100478902459
1761507116706024000,4.07002392578125,-0.5832797806710004,-0.12534348578490317,-0.2511086675805971
1761507116715996000,4.079995849609375,-0.9556114565730094,0.11603365951739252,-0.27283878028634934
1761507116725966800,4.089966796875,-1.1820698496848343,0.3073861063260585,-0.1578890800807625
1761507116735939000,4.09993896484375,-1.1489993547320365,0.38741942798383533,0.06858038241434843
1761507116745910000,4.109909912109375,-0.9041028031319379,0.3745730981532484,0.32570290345698594
1761507116755882000,4.119882080078125,-0.520621956706047,0.3171061208296567,0.48240058179609474
1761507116765854000,4.12985400390625,-0.1126993274629116,0.2195586236607283,0.5940724659074097
1761507116775825000,4.139824951171875,0.27838673326969143,0.14242387298867107,0.7226897857312112
1761507116785796900,4.149796875,0.619185791310668,0.06027772389538586,0.7999487473048269
1761507116795768000,4.15976806640625,0.7551379840672016,0.00382701094225049,0.8359013004999607
1761507116805739800,4.16973974609375,0.6555073970139026,0.0358782458499074,0.7972413149770349
1761507116815711000,4.1797109375,0.3004968582689762,0.08454765727706252,0.7230996086411178
1761507116825683200,4.18968310546875,-0.2899573440760374,0.23129392350949346,0.5960957884285598
1761507116835655000,4.199655029296875,-0.8645517139881849,0.3742584792461246,0.42897458695899693
1761507116845626000,4.209626220703125,-1.1549638160943985,0.3907064137652516,0.2638978969290852
1761507116855598000,4.21959814453125,-1.176341535165906,0.3373492829132825,0.06934435252416879
1761507116865569000,4.229569091796875,-1.0389508340388536,0.2488654552310705,-0.05882153373770416
1761507116875541000,4.239541015625,-0.8409487200826405,0.18075148475207387,-0.1144437965100631
1761507116885512200,4.24951220703125,-0.6779653125375509,0.18045162502266465,-0.0623096863807179
1761507116895484000,4.25948388671875,-0.5912988364756107,0.21547909926213324,-0.026470621763728556
1761507116905456000,4.2694560546875,-0.6800169843703509,0.22639847961813211,-0.057726011852268125
1761507116915427000,4.279427001953125,-0.8630939163953065,0.3478559177499264,-0.11471408308511599
1761507116925399000,4.28939892578125,-0.9478536820530891,0.4650936192948371,-0.11273591487994417
1761507116935370000,4.299369873046875,-0.9205196849256754,0.5615458685729652,-0.08120828372128307
1761507116945342000,4.309342041015625,-0.768162300813198,0.6161594292268157,-0.09239080852549522
1761507116955313000,4.31931298828125,-0.46383974677622314,0.5626168588053435,-0.1592974855739623
1761507116965285000,4.32928515625,-0.07753916675448418,0.48760582228898997,-0.23509044798193499
1761507116975256800,4.3392568359375,0.3243172943174839,0.4430488146167248,-0.3107193424019962
1761507116985227800,4.349227783203125,0.6299480083435773,0.35688780385889113,-0.41353546415623277
1761507116995200000,4.359199951171875,0.8633715642929076,0.32032457141950726,-0.45570009679924695
1761507117005171000,4.3691708984375,1.0599170497000217,0.30846666810438034,-0.49075343613233413
1761507117015143000,4.379142822265625,1.2242904502987861,0.2961258766431361,-0.5155662076864391
1761507117025115100,4.389115234375,1.283073478657007,0.3046087505672127,-0.5359636835489422
1761507117035085800,4.3990859375,1.3435492824077606,0.33048765351548787,-0.5422295755432919
1761507117045058000,4.40905810546875,1.3415280057132244,0.33366949842199684,-0.5444565308777615
1761507117055029800,4.41902978515625,1.280692136478424,0.33930998852699995,-0.5801816685251892
1761507117065001000,4.4290009765625,1.1443237641364334,0.3514790036179125,-0.581550253464654
1761507117074973000,4.438972900390625,0.9597709143400192,0.36402708115428684,-0.5849727752592414
1761507117084944100,4.448944091796875,0.6258931799948215,0.3905558993786573,-0.5862285840066149
1761507117094915800,4.458915771484375,0.2616197228640318,0.44646549119241535,-0.5610992207840084
1761507117104887000,4.468886962890625,0.013472645035386085,0.471515907427296,-0.4760214021530002
1761507117114858800,4.478858642578125,-0.08543956461548805,0.45316228541731834,-0.37089546908643095
1761507117124831000,4.4888310546875,-0.11655892550051211,0.43380723127983506,-0.3277627951288596
1761507117134802000,4.498802001953125,-0.09446633615791797,0.38905338586121796,-0.31778409315645695
1761507117144774000,4.50877392578125,-0.023739772027730942,0.3111721276707947,-0.31703086363635957
1761507117154744800,4.518744873046875,-0.005520224726200103,0.21769560626782475,-0.3740836341358721
1761507117164717000,4.528717041015625,0.0014554595053195953,0.10575827615335583,-0.46766807289272544
1761507117174687700,4.538687744140625,0.005959785187244415,0.010055676198750734,-0.44383521575406193
1761507117184660000,4.548659912109375,-0.05125321737527847,-0.07173179564997553,-0.3910971666485071
1761507117194632000,4.5586318359375,-0.08707797947227955,-0.1107260546285659,-0.2907340640695765
1761507117204603000,4.568602783203125,-0.11869301491975784,-0.1513440423514694,-0.167070622059796
1761507117214574800,4.578574951171875,-0.11679156521260738,-0.18222089971750974,-0.0601014722793363
1761507117224546000,4.588546142578125,-0.07728373068869114,-0.22372465729899704,-0.0388611523845233
1761507117234517800,4.598517822265625,-0.030572248396277427,-0.31555699169151485,-0.08303158102515153
1761507117244489000,4.608489013671875,0.06753741270005703,-0.39692682265006,-0.164509119275026
1761507117254461000,4.6184609375,0.21816870367228983,-0.4916097241681069,-0.23064492154885083
1761507117264433000,4.628432861328125,0.33843583604097366,-0.5726874403122812,-0.2837238017150201
1761507117274403800,4.63840380859375,0.38640579396188257,-0.6236433552414179,-0.2901108176046982
1761507117284375800,4.648375732421875,0.36468320697546003,-0.6351872241713106,-0.2721817411497235
1761507117294346800,4.6583466796875,0.3533727084100246,-0.6195212338101118,-0.25856064582066607
1761507117304319000,4.668319091796875,0.34730537119507787,-0.6284009980972856,-0.19254613183895125
1761507117314290000,4.6782900390625,0.3365788099974394,-0.6317079306881874,-0.10983246678970754
1761507117324262000,4.688261962890625,0.3055459583520889,-0.6127419489335268,-0.03647031172523275
1761507117334234000,4.698234130859375,0.2579594467908144,-0.6059111530654132,0.017710848860722033
1761507117344204800,4.708204833984375,0.23439444680809973,-0.6373701211683451,0.018102588124666363
1761507117354177000,4.718177001953125,0.23400106357634065,-0.6946211176536977,-0.02398731704801321
1761507117364148000,4.72814794921875,0.17013269477784632,-0.7285241179078817,-0.06700325102442875
1761507117374120000,4.738119873046875,0.09145078772902489,-0.7381742820456624,-0.06879437222490087
1761507117384091000,4.7480908203125,0.04211597119569778,-0.7370442551024258,-0.04050380502501502
1761507117394063000,4.75806298828125,0.01758241844177246,-0.7306824649855495,0.027549265579599885
1761507117404034800,4.768034912109375,0.02303483862876892,-0.7346017573211342,0.10524846346769481
1761507117414006000,4.778006103515625,0.06943126362264156,-0.7571936744879931,0.14000238146279007
1761507117423977700,4.787977783203125,0.17281506572961805,-0.7892647100746631,0.12949755499074234
1761507117433949000,4.797948974609375,0.23224925147294997,-0.793966969481483,0.20380630672294645
1761507117443921000,4.8079208984375,0.14696458515822886,-0.785354989285022,0.25509664123822
1761507117453892000,4.81789208984375,0.06929507002234458,-0.7572940661225468,0.23609688507812096
1761507117463863800,4.82786376953125,-0.015987842726707457,-0.7821372693475336,0.1935305215001106
1761507117473836000,4.8378359375,-0.07618482953608036,-0.821993844243884,0.10297936775824054
1761507117483807000,4.847806884765625,-0.14476795189678668,-0.8661513312045485,-0.05554554427433759
1761507117493779000,4.857779052734375,-0.19231822310090063,-0.8867175146974623,-0.19916193324951453
1761507117503750000,4.86775,-0.2511433370351791,-0.8659972366213798,-0.30325859633358193
1761507117513721900,4.877721923828125,-0.3135772891163826,-0.8159875895664095,-0.3769643406713381
1761507117523692800,4.88769287109375,-0.37095103519856926,-0.7827632192261517,-0.38979331750832497
1761507117533665000,4.8976650390625,-0.3939174847662449,-0.7988770264200866,-0.4202572832245379
1761507117543636700,4.90763671875,-0.44263796879351136,-0.8036845728322863,-0.4413360924147069
1761507117553608000,4.91760791015625,-0.6459171463698148,-0.755708915822953,-0.44451136144995684
1761507117563580000,4.927579833984375,-0.9599848493516444,-0.6130917852845043,-0.40235666567906736
1761507117573550800,4.93755078125,-1.2817653186678886,-0.43728031421788033,-0.37025976499877866
1761507117583522800,4.947522705078125,-1.4708680868536232,-0.2508393125873059,-0.38094460594654084
1761507117593494000,4.957493896484375,-1.5561059914171695,-0.12038440207280218,-0.4942135865235701
1761507117603466000,4.967466064453125,-1.4478116209149359,-0.06725647686682641,-0.5574521695185453
1761507117613438000,4.97743798828125,-1.107356846266985,-0.04847381578981876,-0.4811403891345486
1761507117623409200,4.9874091796875,-0.6285305427610873,-0.023995208093523977,-0.31992132438085974
1761507117633380900,4.997380859375,-0.13012450951635837,-0.0014171002563089132,-0.16121062571890651
1761507117643352000,5.00735205078125,0.2729769831806421,0.010754179856926203,-0.04579314360478893
1761507117653323800,5.01732373046875,0.575576366686821,0.0011835106961429118,0.05237555420240387
1761507117663295000,5.027294921875,0.8105459830343723,0.00407375224493444,0.1372398670800496
1761507117673267000,5.037266845703125,0.8942775746881961,0.058320744608715176,0.22785525429770348
1761507117683239000,5.047239013671875,0.831274298286438,0.1542206207010895,0.26153321362435816
1761507117693209900,5.0572099609375,0.687379622092843,0.27821006152853367,0.2584087249282747
1761507117703182000,5.06718212890625,0.48866965212821956,0.4125968315992504,0.25113076981455085
1761507117713152800,5.07715283203125,0.3005132248818874,0.4863717504493892,0.19348350402060896
1761507117723125000,5.087125,0.18783318664133547,0.5217629434347152,0.1285974186800886
1761507117733096000,5.097095947265625,0.1716366696000099,0.5065872208084911,0.08142763469354249
1761507117743068000,5.10706787109375,0.22104396684765815,0.485358993210271,0.06335109432558529
1761507117753040000,5.117039794921875,0.2231014838993549,0.47832419920265673,0.0356246272818651
1761507117763011000,5.127010986328125,0.17082126156389713,0.4691455250341445,0.02365042237699963
1761507117772982800,5.136982666015625,-0.017461422410607337,0.5143645037464797,0.03511500639244914
1761507117782954000,5.1469541015625,-0.24980945808291433,0.5840520071525126,0.03506666460554115
1761507117792926000,5.156926025390625,-0.43375849676728245,0.6721957892253995,0.032097896194132045
1761507117802897000,5.16689697265625,-0.5820967083662748,0.7402624864965677,0.006733409041399136
1761507117812868900,5.176868896484375,-0.6575368570148944,0.7884590927802025,0.004218996801367029
1761507117822840800,5.1868408203125,-0.6435346351474523,0.8171276995122432,0.0020994473641272634
1761507117832811800,5.196811767578125,-0.539057777106762,0.8205963985361159,0.0066665269508026535
1761507117842784000,5.206783935546875,-0.40393092925846574,0.7974096572812646,0.024525305515388025
1761507117852755000,5.2167548828125,-0.27454876254200933,0.7835469900149852,0.0641305725317914
1761507117862727000,5.226726806640625,-0.11513269208967684,0.7674666466992348,0.1179306522451341
1761507117872697900,5.23669775390625,0.07390577868819237,0.7316663614563643,0.16123250875715164
1761507117882669800,5.246669921875,0.2605786893785,0.6924710269477218,0.18853879589373246
1761507117892642000,5.25664208984375,0.43739363839924333,0.6385623996928333,0.19817851170273496
1761507117902613000,5.266613037109375,0.6574976940482854,0.5859410357695073,0.20501705248588695
1761507117912585000,5.2765849609375,0.8639566707044839,0.5043325737494975,0.19734699278203768
1761507117922556000,5.286555908203125,1.0393769504964352,0.41846857317686076,0.19373081157887354
1761507117932528000,5.296528076171875,1.1818687741547822,0.35819771741367873,0.18762544390847904
1761507117942498800,5.306498779296875,1.2206138076126574,0.3334292599253356,0.23809479916337875
1761507117952471000,5.316470947265625,1.133977726688981,0.3501205747462809,0.2774863686301745
1761507117962442800,5.32644287109375,0.9277718480110168,0.40434981225766237,0.32820984477661547
1761507117972414000,5.3364140625,0.687622198677063,0.47931496380567545,0.33841318581774826
1761507117982386000,5.346385986328125,0.4766483749449253,0.523032671109587,0.2909268466953188
1761507117992357000,5.356357177734375,0.29100422278046606,0.5355905393876135,0.20641086319815366
1761507118002329000,5.3663291015625,0.1443751531869173,0.5318492339674383,0.11315682543944566
1761507118012300000,5.376300048828125,0.004234861090779305,0.5119285818364471,0.012545483720488845
1761507118022272000,5.38627197265625,-0.1483434722959995,0.4854313277941197,-0.07292045744527131
1761507118032244200,5.396244140625,-0.31863749511539935,0.47259135463908314,-0.12058730423375963
1761507118042215200,5.406215087890625,-0.46311961580812927,0.45615372231826185,-0.1410348297830671
1761507118052187100,5.416187255859375,-0.5593669901639223,0.4264341452285647,-0.1341632269805297
1761507118062158000,5.426157958984375,-0.5404752426892518,0.36620252549722787,-0.08330430615246295
1761507118072130300,5.43613037109375,-0.4233317952990532,0.29680187620855863,-0.0015492022033780813
1761507118082101000,5.44610107421875,-0.27209552417099475,0.22616781266741454,0.14290928188543767
1761507118092073200,5.4560732421875,-0.16845920860767363,0.15953334015645085,0.30933154130540785
1761507118102045200,5.466045166015625,-0.2140437326967716,0.16120478050000964,0.417064697728306
1761507118112016100,5.47601611328125,-0.27631811030209064,0.17784326915517448,0.4508221520319581
1761507118121988000,5.485988037109375,-0.2251630926042795,0.12956563352458178,0.4707683039303869
1761507118131959300,5.495959228515625,-0.0416968690007925,0.030429844250902532,0.45703759248070414
1761507118141931000,5.505930908203125,0.20114625720083712,-0.10325571874789893,0.428128637654148
1761507118151902200,5.515902099609375,0.3570429213553667,-0.2377838700506836,0.42084743113741274
1761507118161874200,5.525874267578125,0.4793313304185867,-0.32483759186454114,0.4342901924911886
1761507118171846100,5.53584619140625,0.5329840101510286,-0.3889624927073717,0.4443853969827294
1761507118181817000,5.545817138671875,0.5048100550681353,-0.4080830074366182,0.459824665915966
1761507118191789000,5.5557890625,0.3623275837600231,-0.39844446067139505,0.47791050383523104
1761507118201760000,5.565760009765625,0.16287176386415958,-0.3691557492796331,0.4911177028674632
1761507118211732200,5.575732177734375,0.008646832314133643,-0.33794118439182635,0.48987237898148595
1761507118221703200,5.585703125,-0.04768120410740375,-0.33957813794389363,0.4849352513728663
1761507118231675100,5.595675048828125,-0.02002279733121395,-0.3942181482132524,0.44800143205542114
1761507118241647000,5.605647216796875,0.10956862822175026,-0.4511761531013995,0.4122673804491758
1761507118251618000,5.6156181640625,0.2744844651341438,-0.5315392181701958,0.36839207143075764
1761507118261590300,5.62559033203125,0.3740571845203638,-0.608931816060841,0.31157219637166705
1761507118271561200,5.635561279296875,0.3388251276195049,-0.6399948436487466,0.2357714342497289
1761507118281533200,5.645533203125,0.177597039309144,-0.6220744254242628,0.18814391482463105
1761507118291504000,5.655504150390625,-0.03141922061443329,-0.5835164389710873,0.19170705066630617
1761507118301476400,5.665476318359375,-0.13366320503652096,-0.5367726618442684,0.2664886075420305
1761507118311448000,5.675447998046875,-0.07620178067088126,-0.5248489998165518,0.3729575161827728
1761507118321419300,5.685419189453125,0.028052959051728246,-0.5437841480415314,0.3919467692151665
1761507118331391000,5.695390869140625,0.14272621693611146,-0.5623093272261321,0.3754352679405361
1761507118341362200,5.705362060546875,0.1274181731671095,-0.5919242748975754,0.33239933235570784
1761507118351334100,5.715334228515625,0.002391279050707817,-0.5711189488865435,0.21619515684330834
1761507118361305300,5.725305419921875,-0.07308627899885177,-0.5362682925187051,0.13199211175283415
1761507118371277000,5.735277099609375,-0.15292729295492172,-0.5125291780781001,0.039163952989690005
1761507118381249300,5.745249267578125,-0.2038449947655201,-0.4567864672638476,-0.07860279566431418
1761507118391220000,5.755219970703125,-0.33824937355816365,-0.4029448408305645,-0.17941638195710255
1761507118401192200,5.765192138671875,-0.5200169765502214,-0.2971045854821801,-0.23690540671572088
1761507118411163100,5.7751630859375,-0.6585100859612226,-0.18238288534618913,-0.20147835696572436
1761507118421135000,5.785135009765625,-0.6442302161961794,-0.07012582175806165,-0.10140380727089941
1761507118431106000,5.79510595703125,-0.4388157801568508,-0.03078106884136796,0.04555778221264481
1761507118441078300,5.805078369140625,-0.155655256614089,-0.0542838903080672,0.20692513286322353
1761507118451049200,5.81504931640625,0.1644347753971815,-0.08837656791545451,0.31823870505616064
1761507118461021200,5.825021240234375,0.4505541487455368,-0.13557313031107188,0.3885644698331132
1761507118470993200,5.8349931640625,0.753065269446373,-0.2418134178277105,0.43869343241881575
1761507118480964000,5.844964111328125,1.0122083730638027,-0.3566799332618713,0.4619031892230734
1761507118490936000,5.85493603515625,0.9858861833274364,-0.41463462103717025,0.3999192459316924
1761507118500907300,5.8649072265625,0.7688684032559394,-0.4296001349788159,0.27052818352272734
1761507118510879000,5.87487890625,0.5823059672027826,-0.4067896796904504,0.1336894171900116
1761507118520850200,5.88485009765625,0.3031891660928726,-0.3012853052329272,0.014941493745241313
1761507118530822100,5.894822265625,-0.15986206065416336,-0.10717756836675107,-0.031092746872734278
1761507118540794000,5.904794189453125,-0.6682704324752092,0.10364143012985587,-0.02974644683031365
1761507118550765000,5.91476513671875,-1.0432143367022275,0.25511362890563904,0.07622543554110452
1761507118560737000,5.924737060546875,-1.2111620886564254,0.3293074307549745,0.2551865114787593
1761507118570708000,5.9347080078125,-1.1067799231618642,0.35035047451201823,0.41374760906957087
1761507118580680200,5.94468017578125,-0.8681465236097574,0.3081335636924952,0.5691378580719232
1761507118590651100,5.954651123046875,-0.5779191304206848,0.2192917528854683,0.6105921504884958
1761507118600623000,5.964623046875,-0.28608605560064315,0.09209880330897867,0.5673267535293475
1761507118610595300,5.97459521484375,-0.07659399485886097,0.001828457536175847,0.5546315226072445
1761507118620566000,5.98456591796875,0.10730360589921474,-0.016561697091907263,0.5056104481982067
1761507118630538200,5.994538330078125,0.241729027479887,-0.024894933412224055,0.4736083496619016
1761507118640509200,6.00450927734375,0.25198212594687935,-0.052058907734975214,0.40232912008501587
1761507118650481200,6.014481201171875,0.21254034239649772,-0.037207594757527114,0.262884098510351
1761507118660452000,6.0244521484375,0.17824468956291675,-0.06870689487084745,0.13788199177533386
1761507118670424300,6.03442431640625,0.08537292912006378,-0.10230324032865463,0.00531666497811675
1761507118680396000,6.04439599609375,-0.028149405163526535,-0.09271423179358243,-0.14807338665034622
1761507118690367200,6.0543671875,-0.15967618269324302,-0.07509564605988561,-0.28993882203865795
1761507118700339200,6.064339111328125,-0.29652035585343833,-0.08048070009909569,-0.4162125378783792
1761507118710310100,6.07431005859375,-0.3705231651753187,-0.06144691380523145,-0.5147155822064727
1761507118720282000,6.0842822265625,-0.3700982177615165,-0.0546383297689259,-0.5122471097337081
1761507118730253300,6.09425341796875,-0.3499415649175644,-0.02082278860248625,-0.4680876865442842
1761507118740225000,6.10422509765625,-0.3196025407552719,0.022265023300051687,-0.4424900847554207
1761507118750197200,6.114197265625,-0.4151695316314697,0.08105630802996457,-0.42417617370132354
1761507118760168200,6.124168212890625,-0.6190840845018625,0.16999964298270642,-0.3839805761089548
1761507118770140200,6.13414013671875,-0.8715870194524526,0.32368703358992934,-0.33915417691078037
1761507118780111000,6.144111083984375,-1.0171382306814194,0.48392749910242855,-0.2545504055323079
1761507118790083000,6.1540830078125,-0.9448568383246659,0.6045693100024014,-0.1696846770157106
1761507118800054000,6.164053955078125,-0.7467723067820071,0.6032531128372997,-0.060932753738015884
1761507118810026200,6.174026123046875,-0.4710030625343323,0.5991066606823354,-0.02869425262995064
1761507118819998000,6.183998046875,-0.21828911518156527,0.5466639412615448,-0.1394601826111786
1761507118829969200,6.19396923828125,-0.005198737686872482,0.4682989181421697,-0.3235915373262018
1761507118839941000,6.203941162109375,0.1307417646318674,0.44257089490666984,-0.5307137271314859
1761507118849912000,6.213912109375,0.20662907252609727,0.45229346669353543,-0.655102031083405
1761507118859884000,6.223884033203125,0.29903847615420814,0.48912799035497007,-0.6305976313587278
1761507118869855200,6.233855224609375,0.41996027303934097,0.47236266044974323,-0.5617189235849306
1761507118879827000,6.243826904296875,0.5693389336019754,0.45316104330830276,-0.4818209918098524
1761507118889799200,6.253799072265625,0.6753028153300284,0.4446675749249756,-0.4285941362740472
1761507118899770000,6.26377001953125,0.7467816591322421,0.38147973573654886,-0.3789977096624672
1761507118909742000,6.2737421875,0.8009259217739104,0.33718839326314626,-0.3489684090364724
1761507118919713000,6.283713134765625,0.7927852854162454,0.3094284258086234,-0.31482323405686763
1761507118929685000,6.29368505859375,0.6917869171410799,0.2973973578836769,-0.2513957408936694
1761507118939656000,6.303656005859375,0.5505108990132809,0.31548473017290235,-0.18743364766342566
1761507118949628200,6.313628173828125,0.4720920268148184,0.3088217651523649,-0.10849672467391937
1761507118959600000,6.32360009765625,0.49002223578095433,0.2770757968015969,-0.03426365939327516
1761507118969571000,6.333571044921875,0.5169494056731462,0.24483554212786257,0.010008932713884859
1761507118979543300,6.343543212890625,0.5205447998166084,0.18430698527656494,-0.003202029178012162
1761507118989513500,6.353513427734375,0.4817798926144838,0.12266747150868176,-0.04827242973251268
1761507118999485400,6.3634853515625,0.3625760055631399,0.08302928860336542,-0.12683308502184226
1761507119009456400,6.373456298828125,0.25247078624665736,0.07038359591141342,-0.16875446522720158
1761507119019428600,6.3834287109375,0.12954115667045116,0.06418868679404259,-0.1587087259005755
1761507119029400300,6.393400390625,0.04106850796937942,0.04641184175871312,-0.15757458903780205
1761507119039371500,6.40337158203125,0.04221767800450325,-0.024404227285832164,-0.17299296131348235
1761507119049343200,6.41334326171875,0.10115618918538093,-0.10850867084003984,-0.17866355429580433
1761507119059314400,6.423314453125,0.10761340250074863,-0.184993213975057,-0.15902502530813217
1761507119069286400,6.433286376953125,0.08413783436715602,-0.24308409535065292,-0.11712211234122515
1761507119079257600,6.443257568359375,0.08003098357021808,-0.3015139994222671,-0.08753765113959089
1761507119089229300,6.453229248046875,0.055094695234298705,-0.3346209539279342,-0.07773331935340538
1761507119099200500,6.463200439453125,0.018408347871899603,-0.38058644015863535,-0.08853844394627958
1761507119109172200,6.473172119140625,-0.006631400838494301,-0.41135684147551654,-0.12448255810663103
1761507119119144400,6.48314453125,0.02926934910416603,-0.46382476840279996,-0.1561685946973972
1761507119129115400,6.493115478515625,0.057931964486837385,-0.5087593041505665,-0.1727879402606748
1761507119139087400,6.50308740234375,0.090818335044384,-0.5471168726608157,-0.23384598261248318
1761507119149058300,6.513058349609375,0.14442834467887877,-0.601632672028616,-0.23905209988821297
1761507119159030500,6.523030517578125,0.1537637437790632,-0.638833617849648,-0.22863599287923425
1761507119169001200,6.533001220703125,0.20374679508805274,-0.6616631431646645,-0.16126842032074928
1761507119178973400,6.542973388671875,0.26265315756499763,-0.7170817365910858,-0.09336031114477664
1761507119188945400,6.5529453125,0.2659142051875591,-0.7566424703460186,-0.05267868360113352
1761507119198916400,6.562916259765625,0.25455694487094876,-0.7808589930400252,-0.05810889195632189
1761507119208888600,6.572888671875,0.2562900522738695,-0.8066650499477982,-0.04639702778207138
1761507119218859500,6.582859619140625,0.2674643572390079,-0.8405475919358432,-0.0359285695313476
1761507119228831500,6.59283154296875,0.26634441329836844,-0.8644418238729238,-0.0009967559523880482
1761507119238802400,6.602802490234375,0.21180559838116167,-0.8596905376926064,0.04578075904725119
1761507119248774700,6.612774658203125,0.1519470497459173,-0.8746241951912641,0.08973212897656485
1761507119258746400,6.622746337890625,0.07493629077970981,-0.8827565751772374,0.11957374327704309
1761507119268717600,6.632717529296875,-0.062086746078729625,-0.8740580126758665,0.14746930154366417
1761507119278689300,6.642689208984375,-0.19843524467647075,-0.8383056582279503,0.1556578138973564
1761507119288660500,6.652660400390625,-0.2576858905464411,-0.8236366430148482,0.16632100926889107
1761507119298632400,6.662632568359375,-0.2522556821912527,-0.8472496468577534,0.16629466925123706
1761507119308603600,6.672603759765625,-0.2287923890173435,-0.8600444656968116,0.1526736652537249
1761507119318575400,6.682575439453125,-0.3014022826761007,-0.8779908220801502,0.13273242699243126
1761507119328547600,6.692547607421875,-0.4100245699584484,-0.8598625332586467,0.10151901288209482
1761507119338518300,6.702518310546875,-0.45553544428944587,-0.8479169516600668,0.03551333979396149
1761507119348490500,6.712490478515625,-0.46303369109034537,-0.8240971001334488,-0.04987573674330487
1761507119358461400,6.72246142578125,-0.38078561599254607,-0.8361230534918606,-0.13155591229265556
1761507119368433400,6.732433349609375,-0.12674597299396992,-0.9070072193365544,-0.19392500071041285
1761507119378404400,6.742404296875,0.13163432955741883,-0.9963249405596405,-0.19505922890473157
1761507119388376600,6.75237646484375,0.07305120768547058,-0.9757808227680623,-0.2055663203991018
1761507119398348300,6.762348388671875,-0.3938812444090843,-0.8227025039698929,-0.244863416515477
1761507119408319500,6.772319580078125,-1.0411591577380894,-0.578784953469783,-0.2832955115666613
1761507119418291500,6.78229150390625,-1.657290822175145,-0.27123631352577354,-0.3505088434115052
1761507119428262400,6.792262451171875,-2.0887685145288706,0.008462342592701315,-0.4790949643794447
1761507119438234400,6.802234375,-2.1260271088212725,0.1545419250773266,-0.515788691330701
1761507119448205600,6.81220556640625,-1.6848247257888316,0.21192980928272007,-0.350204818963632
1761507119458177300,6.82217724609375,-0.9951339041441678,0.17362294804640113,-0.0842148999250494
1761507119468149500,6.8321494140625,-0.27082652714848515,0.1339739514861256,0.08776344098579138
1761507119478120400,6.842120361328125,0.3236585381478071,0.10354834501892328,0.2079675363219343
1761507119488092400,6.852092529296875,0.698159374782443,0.06905702348276972,0.2539541018732823
1761507119498063400,6.8620634765625,0.8885574434757232,0.023239275159686802,0.15634128438318148
1761507119508035300,6.872035400390625,0.8942354891121387,0.02940868450962007,0.03938009822471067
1761507119518006300,6.88200634765625,0.9125532360911369,0.0919707199499011,-0.00686902725296095
1761507119527978500,6.891978515625,0.9753525143533944,0.1447578688941896,0.04115613145390525
1761507119537950500,6.901950439453125,0.9849819279640912,0.2221574810475111,0.1111135926414281
1761507119547921400,6.91192138671875,0.9349556220352649,0.301255786877498,0.14892808551723136
1761507119557893600,6.9218935546875,0.7773977466702461,0.35808497775420545,0.11695972485374659
1761507119567864300,6.9318642578125,0.5382563975960016,0.4235081747792661,0.05476453169817105
1761507119577836500,6.94183642578125,0.32751696714162826,0.48499308250732714,0.03554112285003066
1761507119587807500,6.951807373046875,0.2201741982758045,0.5489869773816317,0.06755021738270298
1761507119597779500,6.961779541015625,0.16195347997546194,0.6078110684026032,0.10914512384636327
1761507119607751400,6.97175146484375,0.0982902783602476,0.6457687508750707,0.12715809745881707
1761507119617722600,6.98172265625,-0.002122398981451988,0.6873565334782004,0.08703631402133032
1761507119627694300,6.9916943359375,-0.17953999007046223,0.7181210165109485,0.008617661018576472
1761507119637665500,7.00166552734375,-0.37550621428489683,0.7755608135666697,-0.057902720126044
1761507119647637200,7.01163720703125,-0.5578291130721569,0.8208437974259257,-0.10254083021050318
1761507119657608400,7.0216083984375,-0.626934798002243,0.8357605768550187,-0.07439657614612952
1761507119667580400,7.031580322265625,-0.5803752914011479,0.8305301288556307,-0.005274104478023946
1761507119677551600,7.041551513671875,-0.4664554822325706,0.7980784233883023,0.08023923775972798
1761507119687523300,7.0515234375,-0.29956220776736736,0.7366962453823536,0.13940593167329207
1761507119697495600,7.06149560546875,-0.09792845931053161,0.679585241889581,0.16146759615465997
1761507119707466200,7.07146630859375,0.13761983370780945,0.5868364502392709,0.1679503640363924
1761507119717438500,7.0814384765625,0.32787469453811646,0.5058873289108277,0.1671117577877827
1761507119727409400,7.091409423828125,0.44540977159440515,0.4578722897391766,0.1661510047305375
1761507119737381400,7.10138134765625,0.4529623789310455,0.44666722430959344,0.13235606796070934
1761507119747352300,7.111352294921875,0.3596265081077814,0.48117586230672893,0.10523971390565856
1761507119757324500,7.121324462890625,0.18884967020750046,0.5445143620122224,0.06253817964065819
1761507119767296300,7.131296142578125,0.04227028497457504,0.6274876826446503,0.05430688759116455
1761507119777267500,7.141267333984375,0.06471767910420895,0.6617694530833512,0.07915228277323767
1761507119787239400,7.151239501953125,0.21343699897527693,0.6314330592695623,0.12341189666781574
1761507119797210400,7.16121044921875,0.3660965809047222,0.6010268150899559,0.15617465911200268
1761507119807182300,7.171182373046875,0.4921124860584736,0.5823787401780486,0.1663183606540784
1761507119817153500,7.181153564453125,0.57712593421638,0.5531064684644341,0.16880047805970533
1761507119827125200,7.191125244140625,0.5285644401431083,0.5479216131724417,0.1538746385413222
1761507119837097500,7.201097412109375,0.39182957257628437,0.570623201258853,0.08814765453040599
1761507119847068400,7.211068359375,0.24089257665574548,0.5713511502072215,0.009017017333395778
1761507119857040400,7.221040283203125,0.1076584106862545,0.5632427356187254,-0.06900134777277708
1761507119867011300,7.23101123046875,0.01201017126739025,0.5607808024846017,-0.08585652965223416
1761507119876983300,7.2409833984375,0.009190437671542167,0.5297869676753878,-0.044134380079712716
1761507119886954200,7.250954345703125,0.0392874697715044,0.4960675072945654,0.008943002249114216
1761507119896926500,7.260926513671875,0.017660159853100776,0.45964602141343053,0.05928505959622562
1761507119906898400,7.2708984375,-0.0502718051224947,0.4285882545225322,0.11089556597657502
1761507119916869400,7.280869384765625,-0.12923311363458634,0.3968476199340075,0.14326584023814648
1761507119926841600,7.290841552734375,-0.2273193938553333,0.3819411427032202,0.15674644938427953
1761507119936812300,7.300812255859375,-0.2777104414433241,0.37742227703928943,0.14174732543397695
1761507119946784500,7.310784423828125,-0.2193430081486702,0.3420230468779802,0.16110369474571198
1761507119956755500,7.32075537109375,-0.13508242418467997,0.2523651339150965,0.17601225433573126
1761507119966727400,7.3307275390625,-0.09217267226278782,0.17546265762895344,0.1957973704535514
1761507119976699400,7.340699462890625,-0.03229074275195598,0.1244046705648303,0.2581494529375806
1761507119986670600,7.350670654296875,0.06610124241709708,0.09507102405279874,0.36668965142704546
1761507119996642600,7.360642578125,0.15462182191312313,0.06443506277054548,0.48385735647566613
1761507120006613500,7.370613525390625,0.23340894290208816,0.040714726095646615,0.5656345991913229
1761507120016585500,7.38058544921875,0.27013094609975813,-0.0006197393335402011,0.61732401602678
1761507120026556400,7.390556396484375,0.23650690891742704,-0.018352452966198324,0.6243386440292
1761507120036528600,7.400528564453125,0.28661270982325077,-0.049457931456342336,0.6483955191820859
1761507120046500400,7.410500244140625,0.38350481182336804,-0.10313516110815107,0.6728937814269215
1761507120056471600,7.420471435546875,0.4737327797591686,-0.19266652508191764,0.6572345861326903
1761507120066443500,7.430443603515625,0.49706630907356736,-0.2628789291448891,0.5937746154719963
1761507120076414500,7.44041455078125,0.480455366012454,-0.31714838906880466,0.4885577161863446
1761507120086386400,7.450386474609375,0.4155237518966198,-0.3583277004688978,0.3988564755383879
1761507120096357600,7.460357666015625,0.3216822696387768,-0.3696829149588942,0.3422369453569874
1761507120106329300,7.470329345703125,0.22759587270915507,-0.364276672001183,0.3375788173528388
1761507120116300500,7.480300537109375,0.11478022539019583,-0.3641678047992289,0.35036556248329576
1761507120126272500,7.4902724609375,0.02417465631365776,-0.34579598954543467,0.35305432664323594
1761507120136244500,7.500244384765625,-0.008289104917645455,-0.35920229134634135,0.37170627401266243
1761507120146215400,7.51021533203125,-0.011597498813271523,-0.4000656686650589,0.3705203521637246
1761507120156187600,7.520187744140625,0.003242342922091484,-0.42486459435690194,0.35590430924687533
1761507120166158300,7.530158447265625,-0.005014613291621208,-0.4527860725160688,0.3062371920192614
1761507120176130600,7.540130615234375,-0.011450199297070503,-0.476962957319431,0.2946911311322823
1761507120186101500,7.5501015625,-0.06652443626523018,-0.5158458283454179,0.2595826275458559
1761507120196073500,7.560073486328125,-0.11024141291677951,-0.5331160025002435,0.2158954615106806
1761507120206045700,7.570045654296875,-0.14857260487675666,-0.5381557502331212,0.20113705098107457
1761507120216016600,7.5800166015625,-0.1655021123677492,-0.536114380598627,0.13504026554338633
1761507120225988600,7.589988525390625,-0.2027554459631443,-0.5180622988184914,0.05865406821630895
1761507120235959600,7.59995947265625,-0.23539982445836066,-0.5183802056612447,0.009402107660844922
1761507120245931500,7.609931640625,-0.24514848053455351,-0.5197128425044939,-0.02986958001963794
1761507120255902500,7.61990234375,-0.32065877180993557,-0.5062613498549908,-0.04959328480642289
1761507120265874700,7.629874755859375,-0.4207148907989263,-0.47593924029488116,-0.030488552168197926
1761507120275846400,7.639846435546875,-0.47656186570525166,-0.4580511169048026,0.00011284925732761621
1761507120285817600,7.649817626953125,-0.4531313057571649,-0.45252789650391784,0.06857303935810923
1761507120295789600,7.65978955078125,-0.3098252431064844,-0.469079839386791,0.17927019668575375
1761507120305760500,7.669760498046875,0.02529576929807663,-0.5653390503108501,0.279116106990166
1761507120315732500,7.679732421875,0.47889644613265986,-0.6752117760457098,0.32787480413597075
1761507120325703700,7.68970361328125,0.6210398947447539,-0.7097855151683091,0.21243322876021264
1761507120335675400,7.69967529296875,0.354049000236392,-0.6196455908421427,0.045822278367727995
1761507120345647600,7.709647705078125,-0.23572189601957796,-0.4811283699031919,-0.12727167736850678
1761507120355618600,7.71961865234375,-0.8415876025080681,-0.2415264906451106,-0.29264661969263106
1761507120365590500,7.729590576171875,-1.3721937776118516,0.06282565481252968,-0.35179325719885524
1761507120375561500,7.7395615234375,-1.7048662278205156,0.28780897040311243,-0.2625142240183428
1761507120385533700,7.74953369140625,-1.6246359222859144,0.37620091855078935,-0.07851360127720981
1761507120395504400,7.75950439453125,-1.112925586310029,0.2756908817818388,0.20252426755577324
1761507120405476600,7.7694765625,-0.4251303691536188,0.16662512504830956,0.4301889677174389
1761507120415448300,7.7794482421875,0.2405664134413004,0.044793337178789076,0.6007971710525453
1761507120425419500,7.78941943359375,0.8505746265619992,-0.10952146461177617,0.7168245469596236
1761507120435391500,7.7993916015625,1.2545219224333763,-0.22632037288062273,0.7105158752694726
1761507120445362700,7.80936279296875,1.3719915330380201,-0.2964708541559055,0.5721040144011378
1761507120455334400,7.81933447265625,1.1851730763971804,-0.2738515740580857,0.332987507507205
1761507120465305600,7.8293056640625,0.8014572521716355,-0.19948033328261225,0.07871948084654286
1761507120475277300,7.83927734375,0.4181289659589529,-0.09318159357700496,-0.10487446078984067
1761507120485248500,7.84924853515625,0.09767945298552512,0.01397394562102854,-0.21026240579346195
1761507120495220500,7.859220458984375,-0.17547697841525076,0.10380246591046452,-0.25152247254587706
1761507120505192400,7.8691923828125,-0.4211550357818603,0.16367409322299062,-0.27527791706677524
1761507120515163400,7.879163330078125,-0.58715983697474,0.18351561570316552,-0.26820238918997347
1761507120525135600,7.889135498046875,-0.7068278344064951,0.1695897104749456,-0.2509280320503749
1761507120535106600,7.8991064453125,-0.7596627680152654,0.15736136641222984,-0.2772610902406275
1761507120545078500,7.90907861328125,-0.6678764647215605,0.14545041773561387,-0.2720110242253169
1761507120555050500,7.919050537109375,-0.5863882680803537,0.14923844837434588,-0.17015603912081567
1761507120565021400,7.929021484375,-0.6624076779216528,0.17978501434009522,-0.1469951994922012
1761507120574993700,7.93899365234375,-0.7020669036149978,0.27014533995129164,-0.20265987663418053
1761507120584964600,7.948964599609375,-0.7699474306643008,0.3335396614972502,-0.21985453786738215
1761507120594936600,7.9589365234375,-0.7764332855522632,0.4072567492129281,-0.23283326190598308
1761507120604907500,7.968907470703125,-0.6026794776678085,0.47096203640419987,-0.20926923003764822
1761507120614879500,7.97887939453125,-0.3451835567355156,0.4747648262206465,-0.16764705197457222
1761507120624850400,7.988850341796875,-0.12689093442261218,0.4631374437257647,-0.1506212445022538
1761507120634822700,7.99882275390625,0.058251113438606256,0.4503659326970577,-0.1774923368256539
1761507120644793600,8.008793701171875,0.20256489182710646,0.43450924206934866,-0.22867628835700451
1761507120654765600,8.018765625,0.3236585381478071,0.4250919368393719,-0.2678249889786355
1761507120664736500,8.028736572265625,0.3921867154508829,0.4287842154860496,-0.3046293366975151
1761507120674708500,8.03870849609375,0.41930268591344355,0.45004225370064377,-0.3309130393207073
1761507120684679400,8.048679443359376,0.4172475069493055,0.48742133256755765,-0.3530922840334475
1761507120694651600,8.058651611328125,0.34640345391929145,0.5296121956303715,-0.3381845646936446
1761507120704623400,8.068623291015625,0.2658627672612667,0.5747382353622466,-0.3205815418552607
1761507120714594600,8.078594482421876,0.16935528066456318,0.6048747957549989,-0.3006585333704017
1761507120724566500,8.08856640625,0.13656418717503546,0.6100082861859351,-0.256911289444752
1761507120734537700,8.098537841796874,0.20707973890304565,0.5837093311946838,-0.2091543714863248
1761507120744509400,8.108509521484375,0.325357743281126,0.5066257992532104,-0.20741737335957586
1761507120754480600,8.118480712890625,0.45197102980613707,0.39672223998866973,-0.22200245488258077
1761507120764452400,8.128452392578126,0.5624941822737455,0.2926245174586773,-0.25340361011736096
1761507120774424600,8.138424560546875,0.5631213742613792,0.18019151278175413,-0.26197178770471363
1761507120784395500,8.1483955078125,0.47049569753408427,0.10670447096228598,-0.2331131565595977
1761507120794367500,8.158367431640626,0.3653121525287628,0.06365238796025514,-0.17150383700057864
1761507120804338400,8.16833837890625,0.25958207955658436,0.034834508950635786,-0.09699972709305583
1761507120814310700,8.178310546875,0.1556815600991249,0.004031374407932162,-0.05366440670285374
1761507120824281300,8.18828125,0.017946575579047202,-0.04731602405682206,-0.027813469473738223
1761507120834253600,8.198253662109375,-0.17007599615454672,-0.09567783083952963,-0.06882151596015319
1761507120844225500,8.2082255859375,-0.30282559347748755,-0.16159180705621837,-0.2447892918333411
1761507120854196500,8.218196533203125,-0.31763036389946936,-0.24995332353301344,-0.3844769082585349
1761507120864168700,8.228168701171874,-0.36788054171204565,-0.3388886213097721,-0.4718140866562724
1761507120874139600,8.2381396484375,-0.39409342585504054,-0.36069223764315245,-0.43330885330364105
1761507120884111600,8.248111572265625,-0.4064040413737297,-0.3806481072179973,-0.33347876162286844
1761507120894082600,8.25808251953125,-0.3347977717995643,-0.37763803868182,-0.22772183717638253
1761507120904054500,8.268054443359375,-0.18717092334032057,-0.3965335855487734,-0.10819444465856067
1761507120914026500,8.278026611328125,-0.061278936827182766,-0.4232368835572153,0.015705664784461257
1761507120923997700,8.287997802734376,0.06094751291573047,-0.42788025238364935,0.1439081841291394
1761507120933969400,8.297969482421875,0.17500643829405307,-0.4408919288437813,0.22398308903947473
1761507120943940600,8.307940673828124,0.3118307377099991,-0.47911162325330076,0.18366035793609917
1761507120953912600,8.31791259765625,0.47836160860359667,-0.5187856811895967,0.031246731858048587
1761507120963883500,8.327883544921875,0.6512269432157277,-0.5846816833581775,-0.10046796945920214
1761507120973855500,8.33785546875,0.8029793471723794,-0.6451525186728686,-0.16845005718683823
1761507120983826700,8.34782666015625,0.9061673344463109,-0.6510749675244093,-0.15367350821234285
1761507120993798700,8.357798583984374,0.9164221864789723,-0.6794906954739243,-0.1527241350656375
1761507121003770600,8.3677705078125,0.8469277944922446,-0.6959633260428905,-0.1372297566779889
1761507121013741800,8.377741943359375,0.7240338207513094,-0.7001687418434769,-0.07405817450461909
1761507121023713500,8.387713623046874,0.5735065746754408,-0.6743361622549593,0.033441081830859185
1761507121033684700,8.397684814453125,0.4080705132812261,-0.6524862225618213,0.14179103671154006
1761507121043657500,8.407657470703125,0.20977613838016987,-0.6185252085100859,0.22504083619778975
1761507121053629700,8.417629638671874,0.013056465449929236,-0.6048447294102981,0.2557423369969241
1761507121063600600,8.4276005859375,-0.20595628783106804,-0.5882876354282721,0.2576582536208443
1761507121073572600,8.437572509765625,-0.37468963720500464,-0.5731714244369417,0.296228058375977
1761507121083544800,8.447544921875,-0.3851806360810995,-0.5452628057593479,0.38192652965597806
1761507121093515500,8.457515625,-0.2732218978524208,-0.5747999024216085,0.4881310517394915
1761507121103487700,8.46748779296875,-0.11323825664520264,-0.6431527962230146,0.5418729075927287
1761507121113458700,8.477458740234376,0.02166705740690231,-0.722991545156762,0.5120060309868305
1761507121123430700,8.4874306640625,0.09548281972408294,-0.815537215450406,0.41969161216579376
1761507121133401600,8.497401611328126,0.05750818611681461,-0.8913001663126051,0.3223725169252604
1761507121143373800,8.507373779296875,-0.09052373601198196,-0.8984715192466973,0.3002808956970461
1761507121153345500,8.517345458984375,-0.31167993106245995,-0.8420525896713137,0.26805355530381203
1761507121163316700,8.527316650390626,-0.5645464386284351,-0.7878513361454009,0.24096567842457442
1761507121173288700,8.537288818359375,-0.782726248216629,-0.7433650556217879,0.19996521245641632
1761507121183259600,8.547259765625,-0.8007686853855848,-0.7451197903346269,0.19583267922895028
1761507121193231600,8.557231689453126,-0.6776666218519211,-0.7844031684529036,0.1754328652788885
1761507121203202800,8.567202880859375,-0.3830827870190143,-0.8521456022057682,0.1321894974884577
1761507121213174500,8.577174560546876,-0.010870353582501411,-0.996992976014316,0.12594821021240205
1761507121223145700,8.587145751953125,0.1441968740105629,-1.0510342897381633,0.022909129889868197
1761507121233117700,8.59711767578125,-0.02719020474255085,-1.0289172966066746,-0.11186601844392716
1761507121243089700,8.607089599609376,-0.40396073987483977,-0.9239720173366367,-0.20814725853670388
1761507121253060600,8.617060546875,-0.8894050002157687,-0.6847161750372499,-0.22516970500815658
1761507121263032600,8.627032470703124,-1.4779209279745815,-0.3716113257382065,-0.281727166271396
1761507121273003500,8.63700341796875,-1.8135083888471126,-0.050056189610436556,-0.27453871607203034
1761507121282975700,8.646975830078125,-1.852730392166972,0.16685601119473575,-0.1726768628353253
1761507121292946700,8.65694677734375,-1.5911661988824606,0.2911598517335951,-0.05861486871708184
1761507121302918700,8.666918701171875,-1.0951812553048133,0.33525888650529084,0.02714011852312833
1761507121312890600,8.676890625,-0.4652542897492647,0.30391112369187173,0.08448993574045598
1761507121322861600,8.686861572265625,0.1537783568263054,0.24106924839690327,0.10339231420699506
1761507121332833500,8.69683349609375,0.6823521493196487,0.17874613627903163,0.1365989662274718
1761507121342804700,8.7068046875,1.0573439843416212,0.12993958140350878,0.17180658280681818
1761507121352776400,8.7167763671875,1.1801467726677655,0.15879004750847817,0.19130886339526623
1761507121362747600,8.72674755859375,1.075274777829647,0.23788133907578884,0.153914769622311
1761507121372719600,8.7367197265625,0.8164876480430364,0.36356808534041046,0.10160912058465182
1761507121382691600,8.746691650390625,0.653785395526886,0.45095447317473586,0.06313618206642568
1761507121392662500,8.75666259765625,0.5384861146986484,0.5258426139637827,0.06883636646941303
1761507121402634500,8.766634521484375,0.45320904716849325,0.5766936072137206,0.08470726828556507
1761507121412605400,8.77660546875,0.380725994759798,0.6148069917045533,0.0689373791584745
1761507121422577700,8.78657763671875,0.2996469634413719,0.6241616800270974,0.026893413753062485
1761507121432548600,8.796548583984375,0.18868951120972632,0.6460446452070027,-0.00841653068959713
1761507121442520600,8.8065205078125,0.037788171124458314,0.6890258549299091,-0.023348379823658613
1761507121452492800,8.816492919921876,-0.0767366181999445,0.743776851293072,-0.02845837978115305
1761507121462463700,8.826463623046875,-0.20892039833366868,0.80080792141743,-0.008718253582529723
1761507121472435700,8.836435791015624,-0.3203764477372169,0.853341899318248,-0.010517247562203555
1761507121482406700,8.84640673828125,-0.3798714237570762,0.8503804191641509,-0.019932689628656953
1761507121492378600,8.856378662109375,-0.464324899944663,0.8582439190808683,-0.03316286767767742
1761507121502349600,8.866349609375,-0.45344987018704414,0.8573952663622796,-0.059170675968937575
1761507121512321800,8.87632177734375,-0.2920131075620651,0.8177184319470078,-0.07629928622860462
1761507121522293500,8.88629345703125,-0.0693254651606083,0.7589535968326032,-0.09981272042086348
1761507121532264700,8.8962646484375,0.1789133826047182,0.6768208917427808,-0.09646818663277663
1761507121542236700,8.906236572265625,0.4167512478649616,0.5977069499522447,-0.09704313697651959
1761507121552207600,8.91620751953125,0.5912959138661623,0.5461799571368843,-0.08921949414615518
1761507121562179600,8.9261796875,0.716080231398344,0.5148896235991269,-0.0680334525886923
1761507121572150800,8.93615087890625,0.7892372375458478,0.48110645033232863,-0.045350176477106284
1761507121582122500,8.94612255859375,0.8201520157694816,0.4255415803030133,-0.03237082225084305
1761507121592094700,8.9560947265625,0.7967097653836012,0.39716099673211575,-0.016268495432147756
1761507121602065700,8.966065673828124,0.6958265479207039,0.3883736599687487,-0.028899282815912735
1761507121612037600,8.97603759765625,0.5976145954936742,0.38147418277859685,-0.04973371619042009
1761507121622008600,8.986008544921875,0.5260580102801322,0.38279790566302835,-0.0909034195119515
1761507121631980500,8.99598046875,0.4214350217670202,0.380338164485991,-0.11727087316215037
1761507121641951500,9.005951416015625,0.2942962500631809,0.39819801162965596,-0.17567261058520525
1761507121651923700,9.015923828125,0.14106968190073965,0.42257169764675195,-0.20841060391431673
1761507121661895400,9.0258955078125,0.011734861457347869,0.4347026457495987,-0.23381679305061698
1761507121671866600,9.03586669921875,-0.14073416633605956,0.4538107393886894,-0.2600735346016474
1761507121681838600,9.045838623046874,-0.30802374664247034,0.4747280013415962,-0.2704335275092162
1761507121691809500,9.0558095703125,-0.40348201644718645,0.47215172111280257,-0.28631252130027857
1761507121701781500,9.065781494140625,-0.429783163395524,0.4397927354302257,-0.2612051689800806
1761507121711752700,9.075752685546876,-0.42663492849767204,0.39229558265283704,-0.22378035127529874
1761507121721724400,9.085724365234375,-0.3931014922082424,0.33208946268893774,-0.14397727644313127
1761507121731696600,9.095696533203125,-0.415873880508542,0.32761282873153685,-0.061002384908124804
1761507121741667600,9.10566748046875,-0.44061260044574735,0.31130064942128954,-0.01604145434377715
1761507121751639600,9.1156396484375,-0.4406196147084236,0.2731915757793933,0.136061845409777
1761507121761610500,9.125610595703124,-0.3569382919371128,0.28937530640438197,0.27164752467516806
1761507121771582700,9.135582763671875,-0.28566636888384817,0.2096395063884556,0.3550635475737974
1761507121781553400,9.145553466796875,-0.14847557424306868,0.1260593059040606,0.40009566194452345
1761507121791525600,9.155525634765626,0.09109890555143356,0.04652056283019483,0.4492375131890177
1761507121801497600,9.16549755859375,0.30411504876613615,-0.05807042310945689,0.49501171463131904
1761507121811468500,9.175468505859374,0.4190039952278137,-0.10422441764958203,0.5030874690592289
1761507121821440800,9.185440673828126,0.3980605759203434,-0.10529664999097585,0.550667623944953
1761507121831411700,9.19541162109375,0.3309977949947119,-0.11979191607236861,0.5768745898038149
1761507121841383700,9.2053837890625,0.30677696145176886,-0.12404606638550758,0.5623141129991039
1761507121851354600,9.215354736328125,0.3230219938099384,-0.14528985687904059,0.5441172524534166
1761507121861326600,9.22532666015625,0.3498614854186773,-0.17957659575380383,0.5221093457195908
1761507121871297500,9.235297607421876,0.3726882342547178,-0.20317958965934813,0.49519642354846
1761507121881269800,9.245269775390625,0.3816799344837665,-0.23554843914881346,0.4425404267031699
1761507121891241500,9.255241455078124,0.38014673356711864,-0.2644338304366916,0.39942492307610805
1761507121901212700,9.265212646484375,0.3877688990086317,-0.2846946012422442,0.3651564870430156
1761507121911184600,9.2751845703125,0.37929859230518337,-0.3053499973885715,0.3309486951559782
1761507121921155600,9.285155517578126,0.3478320254176855,-0.311137567814067,0.2885687027292326
1761507121931127600,9.29512744140625,0.2619453015565872,-0.3043233577545732,0.2724743856870569
1761507121941098800,9.3050986328125,0.19456161811351774,-0.2916808068677783,0.25393216403611
1761507121951070500,9.315070556640626,0.14212065225839615,-0.2914872570570558,0.23667495896071195
1761507121961042700,9.325042724609375,0.0551385343760252,-0.2939979247037321,0.23690151599189266
1761507121971013600,9.335013671875,-0.07064882271885871,-0.30080146723873913,0.2242839168832637
1761507121980985600,9.344985595703125,-0.2313724686384201,-0.2924556636977941,0.18131143845608458
1761507121990957300,9.354957275390625,-0.3563227903872728,-0.26200974509492514,0.1494398161653429
1761507122000929300,9.36492919921875,-0.37020226265788075,-0.24471133122630415,0.16204375207480043
1761507122010900200,9.374900146484375,-0.3046411184668541,-0.24694939247667788,0.19057196395546197
1761507122020872400,9.38487255859375,-0.17295067480802534,-0.2701362798620015,0.17535327897034583
1761507122030844400,9.394844482421876,-0.0502495932906866,-0.30643786569051445,0.13953551286971197
1761507122040815400,9.4048154296875,-0.04840425768494606,-0.32421982529237864,0.08808606053628026
1761507122050787300,9.414787353515624,-0.1225724867016077,-0.30750271844305094,-0.005192965533211827
1761507122060758300,9.42475830078125,-0.290426130631566,-0.27441052311509845,-0.03795949083706364
1761507122070730500,9.43473046875,-0.4823077158808708,-0.19446962898112832,-0.05079690670883283
1761507122080701400,9.444701416015626,-0.601990326359868,-0.11684884835779666,-0.012902516997233033
1761507122090673400,9.45467333984375,-0.5543120448619127,-0.11559570649154484,0.05370742386067286
1761507122100645400,9.464645263671875,-0.27542437633275985,-0.14668964067436754,0.0965025912258774
1761507122110616300,9.4746162109375,0.08432137424051761,-0.20630152107216418,0.1440638587480411
1761507122120588300,9.48458837890625,0.2036094324439764,-0.22362492325156927,0.12854217222835868
1761507122130559500,9.4945595703125,0.04668927046060562,-0.20272117836736142,0.019082411208562553
1761507122140531200,9.50453125,-0.18809037627279757,-0.13066248885057866,-0.1189989207974635
1761507122150502400,9.51450244140625,-0.46596156123578547,0.0005604834269732237,-0.2579494368534535
1761507122160474400,9.524474365234376,-0.6616232495456934,0.13767463263496757,-0.2918534234883264
1761507122170446300,9.5344462890625,-0.7411439455062151,0.21056845780164002,-0.2526424530191347
1761507122180417300,9.544417236328124,-0.7196569208413363,0.22502368413358925,-0.16419400717755778
1761507122190389500,9.554389404296876,-0.6245832664400339,0.23579006588496265,-0.03557525344849564
1761507122200360200,9.564360107421875,-0.48869244848191734,0.24338716995045542,0.1418066452726256
1761507122210332400,9.57433251953125,-0.33630057757794857,0.242235369566828,0.2724073118002154
1761507122220303400,9.584303466796875,-0.28188392773568627,0.22594883615449068,0.33722233206536617
1761507122230275300,9.594275390625,-0.3254039205104112,0.21111958887837826,0.29078716422999273
1761507122240247600,9.60424755859375,-0.38377310737073417,0.19651779368259012,0.14377542459494433
1761507122250218500,9.614218505859375,-0.4995657246738672,0.1937842770654708,-0.01789865620053606
1761507122260190500,9.6241904296875,-0.5763274773150682,0.22173209524229168,-0.14293648041961715
1761507122270161400,9.634161376953125,-0.5593552997261285,0.2502471919130534,-0.2300448915627785
1761507122280133400,9.64413330078125,-0.5072621243953704,0.24536869915649293,-0.29566892665587363
1761507122290104300,9.654104248046876,-0.41403555916547774,0.2504053781494498,-0.3603085720878094
1761507122300076500,9.66407666015625,-0.19607026911079883,0.20083229588083923,-0.5089620601810515
1761507122310047500,9.674047607421874,1.163456334629655,0.3876864083569497,-0.6791626325633376
1761507122320019500,9.68401953125,1.0960632988363503,0.07488857918046414,-0.37385892200190574
1761507122329991400,9.693991455078125,0.7143985619217157,0.12487542988173662,-0.11254268472963012
