time,seconds_elapsed,z,y,x
1761507112717395000,0.08139501953125,-0.008249247446656227,-0.0545404814183712,0.07041151076555252
1761507112727367000,0.091366943359375,-0.013571716845035553,-0.02865598350763321,0.05974443629384041
1761507112737339100,0.101339111328125,-0.01175171323120594,0.0051094358786940575,0.032586850225925446
1761507112747309800,0.111309814453125,-0.011897725984454155,0.0258224718272686,0.0011979523114860058
1761507112757282000,0.121281982421875,-0.017677851021289825,0.02671835944056511,-0.017183983698487282
1761507112767253000,0.1312529296875,-0.029390254989266396,0.011010607704520226,-0.013493028469383717
1761507112777225000,0.141224853515625,-0.03851903975009918,-0.008844856172800064,0.0011655426351353526
1761507112787196000,0.15119580078125,-0.044421110302209854,-0.02895500138401985,0.026643812656402588
1761507112797168000,0.161168212890625,-0.0372883677482605,-0.04099941626191139,0.05085620656609535
1761507112807140000,0.17114013671875,-0.026119237765669823,-0.049083612859249115,0.061998628079891205
1761507112817111000,0.181111083984375,-0.023292556405067444,-0.05923211947083473,0.06229370832443237
1761507112827083000,0.1910830078125,-0.03264712169766426,-0.06283129006624222,0.055980134755373
1761507112837054000,0.201053955078125,-0.0492551252245903,-0.04472764953970909,0.04497009515762329
1761507112847026200,0.211026123046875,-0.06427216529846191,-0.018070252612233162,0.028400462120771408
1761507112856997000,0.2209970703125,-0.07285020500421524,0.009989876300096512,0.013902748003602028
1761507112866969000,0.230968994140625,-0.0706787034869194,0.042658980935811996,-0.001359715941362083
1761507112876941000,0.240941162109375,-0.06330787390470505,0.06439889967441559,-0.0038782674819231033
1761507112886912000,0.250912109375,-0.059910085052251816,0.07453254610300064,-0.006834037601947784
1761507112896884000,0.260884033203125,-0.058526042848825455,0.07226832956075668,-0.0027993489056825638
1761507112906855200,0.270855224609375,-0.058494046330451965,0.06265709549188614,-0.00008088548202067614
1761507112916827000,0.280826904296875,-0.06478496640920639,0.04994849115610123,-0.0040380763821303844
1761507112926799000,0.290799072265625,-0.06656207889318466,0.037303730845451355,-0.006131220608949661
1761507112936770000,0.30077001953125,-0.06903588771820068,0.03150949254631996,-0.015657080337405205
1761507112946742000,0.310741943359375,-0.07688343524932861,0.025556107982993126,-0.035766467452049255
1761507112956713000,0.320712890625,-0.08002223819494247,0.030528761446475983,-0.05444134771823883
1761507112966685200,0.330685302734375,-0.08899934589862823,0.03583239018917084,-0.07232002168893814
1761507112976656000,0.34065576171875,-0.09588388353586197,0.04403306171298027,-0.09687303751707077
1761507112986627800,0.3506279296875,-0.09060648828744888,0.04680462181568146,-0.12041957676410675
1761507112996598800,0.360598876953125,-0.08587457984685898,0.04906617850065231,-0.14010460674762726
1761507113006570800,0.37057080078125,-0.08142296969890594,0.03183227404952049,-0.1628510057926178
1761507113016542700,0.380542724609375,-0.08301181346178055,0.0012442738516256213,-0.1881995052099228
1761507113026514000,0.390513916015625,-0.08584669977426529,-0.036753129214048386,-0.20255392789840698
1761507113036485600,0.400485595703125,-0.07885962724685669,-0.055997129529714584,-0.20494811236858368
1761507113046456800,0.410456787109375,-0.070823073387146,-0.06009156256914139,-0.1919417530298233
1761507113056428500,0.420428466796875,-0.06549781560897827,-0.03824352100491524,-0.15900270640850067
1761507113066400800,0.43040087890625,-0.055118124932050705,0.0017451033927500248,-0.12409336119890213
1761507113076371700,0.440371826171875,-0.04593608155846596,0.04240092262625694,-0.097336046397686
1761507113086343700,0.45034375,-0.03515592962503433,0.07206019014120102,-0.07573007792234421
1761507113096314600,0.460314697265625,-0.025483593344688416,0.09747207164764404,-0.06759465485811234
1761507113106286800,0.470286865234375,-0.017441991716623306,0.11691313982009888,-0.06139807030558586
1761507113116257800,0.4802578125,-0.007273245602846146,0.11653736978769302,-0.060509905219078064
1761507113126229800,0.490229736328125,0.0027207541279494762,0.1056123822927475,-0.0618235282599926
1761507113136202000,0.500201904296875,0.008556805551052094,0.1128133088350296,-0.062039244920015335
1761507113146172700,0.510172607421875,0.00023780716583132744,0.14311981201171875,-0.08639258146286011
1761507113156145000,0.520144775390625,-0.007066178601235151,0.1714172214269638,-0.12160783261060715
1761507113166115800,0.53011572265625,-0.016565829515457153,0.19250915944576263,-0.14075052738189697
1761507113176087800,0.540087890625,-0.013861657120287418,0.18918980658054352,-0.1409582495689392
1761507113186058800,0.550058837890625,-0.00806669145822525,0.16771715879440308,-0.12401542067527771
1761507113196031000,0.560031005859375,-0.0004694918170571327,0.12741446495056152,-0.08619613945484161
1761507113206002700,0.570002685546875,0.017460767179727554,0.06315729022026062,-0.0554942712187767
1761507113215974000,0.579973876953125,0.03860946372151375,0.001065692282281816,-0.032581765204668045
1761507113225945600,0.589945556640625,0.059375911951065063,-0.05131975933909416,-0.007024269085377455
1761507113235916800,0.599916748046875,0.07307201623916626,-0.09185360372066498,0.01083062868565321
1761507113245888800,0.609888671875,0.08035500347614288,-0.11886630952358246,0.017840631306171417
1761507113255860700,0.61986083984375,0.07591737806797028,-0.12301577627658844,0.0310235433280468
1761507113265831700,0.629831787109375,0.06871584057807922,-0.10439378768205643,0.04405767098069191
1761507113275804000,0.639803955078125,0.05856679752469063,-0.07723647356033325,0.06420262157917023
1761507113285774600,0.649774658203125,0.04706389456987381,-0.04321666806936264,0.0910249575972557
1761507113295746800,0.659746826171875,0.03718463331460953,-0.009801452979445457,0.1247301921248436
1761507113305717800,0.6697177734375,0.024138953536748886,0.008471569046378136,0.15611693263053894
1761507113315689700,0.679689697265625,0.0033846748992800713,-0.006805120967328548,0.17372068762779236
1761507113325661700,0.68966162109375,-0.02253992296755314,-0.05735025554895401,0.16414649784564972
1761507113335633000,0.6996328125,-0.05245840921998024,-0.12926597893238068,0.13012860715389252
1761507113345604600,0.7096044921875,-0.09176899492740631,-0.2108500897884369,0.095307357609272
1761507113355575800,0.719575927734375,-0.12225233763456345,-0.2657759189605713,0.05651335418224335
1761507113365547800,0.7295478515625,-0.15284736454486847,-0.28317564725875854,0.013501543551683426
1761507113375518700,0.739518798828125,-0.17441177368164062,-0.25378870964050293,-0.04056515544652939
1761507113385490700,0.74949072265625,-0.1924952268600464,-0.1743611991405487,-0.09747863560914993
1761507113395462700,0.759462646484375,-0.1998751163482666,-0.06864780932664871,-0.1638864278793335
1761507113405433600,0.76943359375,-0.19994619488716125,0.03387438505887985,-0.2178650051355362
1761507113415405800,0.77940576171875,-0.2025688737630844,0.11357533186674118,-0.24774619936943054
1761507113425376800,0.789376708984375,-0.20500807464122772,0.15379993617534637,-0.2360788881778717
1761507113435348700,0.7993486328125,-0.1996157169342041,0.14361867308616638,-0.20310336351394653
1761507113445321000,0.809321044921875,-0.1825464516878128,0.10295632481575012,-0.16566209495067596
1761507113455291600,0.819291748046875,-0.14171965420246124,0.05058472231030464,-0.13040876388549805
1761507113465263900,0.829263916015625,-0.09275492280721664,0.005889707710593939,-0.10132429748773575
1761507113475234800,0.83923486328125,-0.0394967645406723,-0.027880506590008736,-0.08614028245210648
1761507113485206800,0.849206787109375,0.006782258860766888,-0.052841972559690475,-0.07155105471611023
1761507113495177700,0.859177734375,0.03582003712654114,-0.07343459874391556,-0.06740184873342514
1761507113505150000,0.86914990234375,0.0470101423561573,-0.10195108503103256,-0.08567708730697632
1761507113515121700,0.87912158203125,0.045213840901851654,-0.1252926141023636,-0.12463673949241638
1761507113525092900,0.8890927734375,0.04064967483282089,-0.1295507550239563,-0.16334901750087738
1761507113535064600,0.899064697265625,0.03827546536922455,-0.10645768791437149,-0.18961310386657715
1761507113545035800,0.909035888671875,0.046880580484867096,-0.0593903623521328,-0.18982698023319244
1761507113555007700,0.9190078125,0.0671677440404892,-0.014646059833467007,-0.16894088685512543
1761507113564979000,0.92897900390625,0.08921831846237183,0.010943777859210968,-0.1335865557193756
1761507113574950700,0.93895068359375,0.10975661128759384,0.023125074803829193,-0.08364882320165634
1761507113584923000,0.9489228515625,0.12257333844900131,0.010996353812515736,-0.03621352091431618
1761507113594893600,0.9588935546875,0.13149333000183105,-0.013191274367272854,0.003909932915121317
1761507113604865800,0.96886572265625,0.13521155714988708,-0.0454406775534153,0.024779323488473892
1761507113614836700,0.978836669921875,0.1410694569349289,-0.06589455902576447,0.030767172574996948
1761507113624808700,0.98880859375,0.14295706152915955,-0.06931858509778976,0.035067081451416016
1761507113634779600,0.998779541015625,0.1368778645992279,-0.06312939524650574,0.04239663481712341
1761507113644752000,1.008751953125,0.13245713710784912,-0.04017331451177597,0.04843796417117119
1761507113654723600,1.0187236328125,0.12664824724197388,-0.006367946974933147,0.04970882460474968
1761507113664694800,1.02869482421875,0.12317036092281342,0.029557321220636368,0.06476063281297684
1761507113674666800,1.038666748046875,0.11176510155200958,0.07174871861934662,0.08132123947143555
1761507113684637700,1.0486376953125,0.10767855495214462,0.09655284136533737,0.0966331958770752
1761507113694609700,1.058609619140625,0.10063023120164871,0.10025650262832642,0.1004180759191513
1761507113704580900,1.068580810546875,0.09304004162549973,0.09558121860027313,0.10179750621318817
1761507113714552600,1.078552490234375,0.07799264788627625,0.08118870109319687,0.09593695402145386
1761507113724524800,1.08852490234375,0.06042749807238579,0.06986052542924881,0.08356831967830658
1761507113734495700,1.098495849609375,0.0443824864923954,0.06937422603368759,0.06553658843040466
1761507113744467700,1.1084677734375,0.029087699949741364,0.07583126425743103,0.04757419973611832
1761507113754438700,1.118438720703125,0.021159734576940536,0.09165922552347183,0.026981838047504425
1761507113764410600,1.12841064453125,0.022041810676455498,0.11495747417211533,0.01871556043624878
1761507113774382800,1.1383828125,0.027623264119029045,0.13102087378501892,0.016837500035762787
1761507113784353800,1.148353759765625,0.043064262717962265,0.1400904804468155,0.03475579991936684
1761507113794325800,1.15832568359375,0.0644230768084526,0.12794886529445648,0.060877151787281036
1761507113804296700,1.168296630859375,0.08899705111980438,0.09479888528585434,0.08632838726043701
1761507113814269000,1.17826904296875,0.10645274072885513,0.03674224391579628,0.11075809597969055
1761507113824239600,1.188239501953125,0.11016899347305298,-0.01528872363269329,0.11992929130792618
1761507113834211800,1.1982119140625,0.10870479047298431,-0.07114506512880325,0.13016833364963531
1761507113844183800,1.208183837890625,0.11392157524824142,-0.12393628060817719,0.14393404126167297
1761507113854154800,1.21815478515625,0.1144089326262474,-0.15374743938446045,0.1480632722377777
1761507113864126700,1.228126708984375,0.128667414188385,-0.17375417053699493,0.158558189868927
1761507113874098000,1.238097900390625,0.13510321080684662,-0.1492730677127838,0.16887180507183075
1761507113884069600,1.248069580078125,0.13112032413482666,-0.09403025358915329,0.17823423445224762
1761507113894040800,1.258040771484375,0.10676997154951096,-0.011930860579013824,0.21030375361442566
1761507113904012800,1.2680126953125,0.07120904326438904,0.08100493997335434,0.2205803543329239
1761507113913984800,1.27798486328125,0.046637654304504395,0.15046843886375427,0.1674249917268753
1761507113923955700,1.287955810546875,0.04519622027873993,0.15041017532348633,0.048637423664331436
1761507113933927700,1.297927734375,0.06635449826717377,0.08716835081577301,-0.07877751439809799
1761507113943898600,1.307898681640625,0.09564411640167236,-0.02058308757841587,-0.1649613082408905
1761507113953870800,1.317870849609375,0.11542847007513046,-0.14547760784626007,-0.1946675330400467
1761507113963841800,1.327841796875,0.11843220889568329,-0.2227421998977661,-0.1642988622188568
1761507113973813800,1.337813720703125,0.11782367527484894,-0.21168076992034912,-0.08415529131889343
1761507113983785500,1.347785400390625,0.12287729978561401,-0.13215968012809753,0.01786360703408718
1761507113993756400,1.35775634765625,0.14345447719097137,-0.02024087682366371,0.11875773221254349
1761507114003728400,1.367728271484375,0.16691331565380096,0.09691163897514343,0.19798950850963593
1761507114013699600,1.377699462890625,0.19234783947467804,0.19157449901103973,0.2540232241153717
1761507114023671300,1.38767138671875,0.20841236412525177,0.24402262270450592,0.28927838802337646
1761507114033642500,1.397642578125,0.21692542731761932,0.2434801310300827,0.30181655287742615
1761507114043614500,1.407614501953125,0.21600733697414398,0.18869709968566895,0.2894750237464905
1761507114053586400,1.41758642578125,0.20905542373657227,0.06876803189516068,0.28681480884552
1761507114063557400,1.427557373046875,0.18757790327072144,-0.05563433840870857,0.30584660172462463
1761507114073529600,1.437529541015625,0.15921497344970703,-0.15443120896816254,0.3309309184551239
1761507114083500300,1.447500244140625,0.1498079001903534,-0.1993873566389084,0.33897754549980164
1761507114093472500,1.457472412109375,0.14682036638259888,-0.19735296070575714,0.30115213990211487
1761507114103443500,1.467443359375,0.14641104638576508,-0.15853750705718994,0.22822290658950806
1761507114113415400,1.47741552734375,0.13275541365146637,-0.08984100073575974,0.13878516852855682
1761507114123387400,1.487387451171875,0.10683710873126984,-0.014626814983785152,0.04258643463253975
1761507114133358600,1.497358642578125,0.08468040823936462,0.0676850974559784,-0.03286810964345932
1761507114143330300,1.507330322265625,0.06316071003675461,0.14455275237560272,-0.09030348807573318
1761507114153301500,1.517301513671875,0.058859966695308685,0.19508729875087738,-0.13434657454490662
1761507114163273200,1.527273193359375,0.07731118053197861,0.2197638601064682,-0.15763001143932343
1761507114173245400,1.537245361328125,0.10686134546995163,0.20641742646694183,-0.16034084558486938
1761507114183216400,1.54721630859375,0.1440483033657074,0.15662598609924316,-0.15269696712493896
1761507114193188400,1.557188232421875,0.18682533502578735,0.07919858396053314,-0.1405758559703827
1761507114203159300,1.5671591796875,0.2394074946641922,-0.02142379805445671,-0.1159931942820549
1761507114213131500,1.577131591796875,0.2927676737308502,-0.13224564492702484,-0.07007469981908798
1761507114223102200,1.587102294921875,0.33578965067863464,-0.24547863006591797,0.005729896482080221
1761507114233074400,1.597074462890625,0.37424248456954956,-0.3424549698829651,0.10904695838689804
1761507114243045400,1.60704541015625,0.40817269682884216,-0.40648698806762695,0.2201577126979828
1761507114253017300,1.617017333984375,0.4351038932800293,-0.4079144299030304,0.28933998942375183
1761507114262989600,1.626989501953125,0.46579253673553467,-0.3785473704338074,0.30030593276023865
1761507114272960500,1.63696044921875,0.48556649684906006,-0.31261974573135376,0.2706409692764282
1761507114282932500,1.646932373046875,0.4948699474334717,-0.23160383105278015,0.21802684664726257
1761507114292903400,1.6569033203125,0.48136797547340393,-0.1607360541820526,0.1669018715620041
1761507114302875400,1.66687548828125,0.454922080039978,-0.11623760312795639,0.13471154868602753
1761507114312847400,1.676847412109375,0.4214666485786438,-0.09684126824140549,0.13361325860023499
1761507114322818600,1.686818603515625,0.38109391927719116,-0.11785877496004105,0.1553756594657898
1761507114332790300,1.696790283203125,0.3336414694786072,-0.1509256511926651,0.19280186295509338
1761507114342761500,1.706761474609375,0.28830984234809875,-0.1764882653951645,0.22005979716777802
1761507114352733400,1.7167333984375,0.24928389489650726,-0.17641930282115936,0.22728174924850464
1761507114362704600,1.72670458984375,0.20702891051769257,-0.14363646507263184,0.19567395746707916
1761507114372676400,1.73667626953125,0.16039137542247772,-0.08217896521091461,0.1351861208677292
1761507114382648600,1.746648681640625,0.10752439498901367,-0.006143592298030853,0.04697473347187042
1761507114392619300,1.756619384765625,0.04788822680711746,0.07492861896753311,-0.043994590640068054
1761507114402591500,1.766591552734375,-0.007764463312923908,0.1470978856086731,-0.12499948590993881
1761507114412562400,1.7765625,-0.04893107712268829,0.20448420941829681,-0.18974706530570984
1761507114422534400,1.786534423828125,-0.07226592302322388,0.25151923298835754,-0.23035795986652374
1761507114432505300,1.79650537109375,-0.08660145103931427,0.28179776668548584,-0.2502901256084442
1761507114442477600,1.8064775390625,-0.09222231805324554,0.27926188707351685,-0.26507386565208435
1761507114452449300,1.81644921875,-0.0975467711687088,0.2543770670890808,-0.2707972824573517
1761507114462420500,1.82642041015625,-0.09333370625972748,0.22849895060062408,-0.26769962906837463
1761507114472392400,1.836392333984375,-0.07329688221216202,0.20280611515045166,-0.26549267768859863
1761507114482363400,1.84636328125,-0.04474575072526932,0.1824837476015091,-0.26763519644737244
1761507114492335400,1.85633544921875,-0.016557257622480392,0.15124380588531494,-0.3021281957626343
1761507114502306600,1.866306640625,0.002264413982629776,0.11180467903614044,-0.3581703007221222
1761507114512278300,1.8762783203125,0.011238734237849712,0.06944417208433151,-0.4223894774913788
1761507114522250500,1.88625048828125,0.020182901993393898,0.02145380526781082,-0.4739561378955841
1761507114532221400,1.896221435546875,0.03317779675126076,-0.024511288851499557,-0.5151797533035278
1761507114542193400,1.906193359375,0.04266541823744774,-0.06958611309528351,-0.5379147529602051
1761507114552164400,1.916164306640625,0.0481930747628212,-0.09722252935171127,-0.5424844622612
1761507114562136300,1.92613623046875,0.03723132610321045,-0.0969146192073822,-0.5415677428245544
1761507114572107300,1.936107177734375,0.01966085471212864,-0.05602870509028435,-0.5344962477684021
1761507114582079500,1.94607958984375,-0.0009062555618584156,0.02983848564326763,-0.5310991406440735
1761507114592051500,1.956051513671875,-0.008395064622163773,0.13965287804603577,-0.536880373954773
1761507114602022400,1.9660224609375,-0.005905175115913153,0.24549762904644012,-0.5607219934463501
1761507114611994600,1.97599462890625,0.0008155778050422668,0.3238467574119568,-0.5751296877861023
1761507114621965300,1.98596533203125,0.008107926696538925,0.35103899240493774,-0.5443477630615234
1761507114631937500,1.9959375,0.017268402501940727,0.31165429949760437,-0.468688428401947
1761507114641908500,2.005908447265625,0.029708951711654663,0.226832777261734,-0.3538082242012024
1761507114651880400,2.01588037109375,0.055055584758520126,0.10189776867628098,-0.21406763792037964
1761507114661852400,2.025852294921875,0.0915268212556839,-0.03990554437041283,-0.05850638821721077
1761507114671823600,2.03582373046875,0.12939351797103882,-0.15694481134414673,0.08931370079517365
1761507114681795300,2.04579541015625,0.13481974601745605,-0.22805702686309814,0.19394424557685852
1761507114691766500,2.0557666015625,0.12722761929035187,-0.2431081384420395,0.2497454583644867
1761507114701738200,2.06573828125,0.10156277567148209,-0.21705706417560577,0.26009637117385864
1761507114711709400,2.07570947265625,0.07456737756729126,-0.16415603458881378,0.23552338778972626
1761507114721681400,2.085681396484375,0.045211076736450195,-0.09690288454294205,0.1831785887479782
1761507114731653400,2.0956533203125,0.007526548113673925,-0.04125826805830002,0.12654727697372437
1761507114741624300,2.105624267578125,-0.03532138839364052,0.003734273836016655,0.09127548336982727
1761507114751596500,2.115596435546875,-0.07455774396657944,0.02199503593146801,0.06982744485139847
1761507114761567200,2.125567138671875,-0.1110915094614029,0.01901724375784397,0.06692446768283844
1761507114771539500,2.13553955078125,-0.1373681277036667,0.0103755546733737,0.08350903540849686
1761507114781510400,2.145510498046875,-0.14930401742458344,-0.0022804199252277613,0.11492762714624405
1761507114791482400,2.155482421875,-0.1582450419664383,-0.01907537877559662,0.13684223592281342
1761507114801454300,2.165454345703125,-0.16998496651649475,-0.04796545207500458,0.14909110963344574
1761507114811425500,2.175425537109375,-0.17625537514686584,-0.06202055141329765,0.1445072740316391
1761507114821397200,2.185397216796875,-0.19678854942321777,-0.06551757454872131,0.1227077841758728
1761507114831368400,2.195368408203125,-0.2092156559228897,-0.04672391712665558,0.09782054275274277
1761507114841340400,2.20534033203125,-0.21991004049777985,-0.022625908255577087,0.056265342980623245
1761507114851311400,2.215311279296875,-0.22402702271938324,-0.040128469467163086,0.00465168384835124
1761507114861283300,2.225283447265625,-0.22971604764461517,-0.08268076181411743,-0.03770024701952934
1761507114871255300,2.23525537109375,-0.2171216905117035,-0.13819195330142975,-0.06683176755905151
1761507114881226200,2.245226318359375,-0.20232319831848145,-0.1765500158071518,-0.09462650120258331
1761507114891198500,2.255198486328125,-0.18988676369190216,-0.20146682858467102,-0.12539586424827576
1761507114901169400,2.26516943359375,-0.18993060290813446,-0.20090146362781525,-0.13581590354442596
1761507114911141400,2.275141357421875,-0.19322998821735382,-0.1751588135957718,-0.1058092713356018
1761507114921112300,2.2851123046875,-0.20083339512348175,-0.1429443061351776,-0.06612782180309296
1761507114931084300,2.295084228515625,-0.2211216241121292,-0.11661656945943832,-0.047057460993528366
1761507114941056500,2.305056396484375,-0.24315543472766876,-0.0629269927740097,-0.05979974567890167
1761507114951027500,2.31502734375,-0.245521679520607,0.010803154669702053,-0.1312536746263504
1761507114960999400,2.32499951171875,-0.24755798280239105,0.13951806724071503,-0.24390313029289246
1761507114970970400,2.334970458984375,-0.2496808022260666,0.28608405590057373,-0.357428640127182
1761507114980943000,2.344943115234375,-0.25471481680870056,0.39624765515327454,-0.41004517674446106
1761507114990914300,2.354914306640625,-0.2695630192756653,0.44902271032333374,-0.3948390483856201
1761507115000886300,2.36488623046875,-0.2932416498661041,0.43999743461608887,-0.32860398292541504
1761507115010858200,2.374858154296875,-0.30998495221138,0.3668939471244812,-0.25081461668014526
1761507115020829200,2.3848291015625,-0.30625686049461365,0.2828340530395508,-0.18145444989204407
1761507115030801400,2.394801513671875,-0.2818516492843628,0.20051363110542297,-0.12302601337432861
1761507115040772000,2.404772216796875,-0.24448442459106445,0.11473765224218369,-0.0828695297241211
1761507115050744300,2.414744384765625,-0.20704808831214905,0.03426224738359451,-0.04391787201166153
1761507115060715300,2.42471533203125,-0.18851716816425323,-0.031264059245586395,0.006132625974714756
1761507115070687200,2.434687255859375,-0.1869930475950241,-0.08286945521831512,0.0577489472925663
1761507115080659200,2.4446591796875,-0.2027202993631363,-0.10685037821531296,0.10096380859613419
1761507115090630400,2.45463037109375,-0.2326563596725464,-0.11375275999307632,0.12036653608083725
1761507115100602000,2.46460205078125,-0.25451424717903137,-0.08060930669307709,0.1042846292257309
1761507115110573300,2.4745732421875,-0.27137869596481323,-0.03680136799812317,0.06525041162967682
1761507115120545000,2.484544921875,-0.2894892394542694,-0.004386657848954201,0.01833324506878853
1761507115130516200,2.49451611328125,-0.3067435920238495,0.021086743101477623,-0.007538300007581711
1761507115140488200,2.50448828125,-0.3267070949077606,0.02692919597029686,-0.019069992005825043
1761507115150460200,2.514460205078125,-0.34384799003601074,0.03006373718380928,-0.010887962765991688
1761507115160431000,2.52443115234375,-0.3540306091308594,0.0392036996781826,0.014866107143461704
1761507115170403300,2.5344033203125,-0.35117995738983154,0.04886511713266373,0.06054437905550003
1761507115180374300,2.544374267578125,-0.34817731380462646,0.053480327129364014,0.12533321976661682
1761507115190346200,2.55434619140625,-0.3439713716506958,0.04419149085879326,0.20320378243923187
1761507115200317200,2.564317138671875,-0.34615135192871094,0.025937477126717567,0.26111289858818054
1761507115210289200,2.5742890625,-0.34933942556381226,0.009502843953669071,0.290664404630661
1761507115220261400,2.584261474609375,-0.3572121858596802,0.0018149935640394688,0.28571805357933044
1761507115230232300,2.594232421875,-0.3643110990524292,0.0014575973618775606,0.26903626322746277
1761507115240204300,2.604204345703125,-0.37820473313331604,0.0022495577577501535,0.24480323493480682
1761507115250175200,2.61417529296875,-0.3863303065299988,0.0007571223541162908,0.22051040828227997
1761507115260147500,2.6241474609375,-0.3908974230289459,0.0158037431538105,0.20436811447143555
1761507115270118100,2.6341181640625,-0.3864744305610657,0.04389876127243042,0.17185090482234955
1761507115280090400,2.64409033203125,-0.3708818554878235,0.06580531597137451,0.12516659498214722
1761507115290062000,2.65406201171875,-0.35557055473327637,0.07724545896053314,0.06849053502082825
1761507115300033300,2.664033203125,-0.34262534976005554,0.07614737749099731,0.017236564308404922
1761507115310005200,2.674005126953125,-0.3255515694618225,0.05910501256585121,-0.01654456928372383
1761507115319976400,2.6839765625,-0.3152100145816803,0.025423932820558548,-0.0492209829390049
1761507115329948200,2.6939482421875,-0.3032878339290619,-0.021070066839456558,-0.07937542349100113
1761507115339919400,2.70391943359375,-0.2893611490726471,-0.0821937695145607,-0.103465735912323
1761507115349891000,2.71389111328125,-0.2716793417930603,-0.11298497021198273,-0.11856532096862793
1761507115359863300,2.72386328125,-0.23888345062732697,-0.1098618283867836,-0.11592978239059448
1761507115369834200,2.733834228515625,-0.20955006778240204,-0.0985867977142334,-0.09776196628808975
1761507115379806200,2.74380615234375,-0.1873244345188141,-0.08540362119674683,-0.08248717337846756
1761507115389777200,2.753777099609375,-0.177394300699234,-0.07211551070213318,-0.06463706493377686
1761507115399749400,2.763749267578125,-0.16871169209480286,-0.059303365647792816,-0.053061410784721375
1761507115409720000,2.773719970703125,-0.1569591611623764,-0.04332200065255165,-0.04034854471683502
1761507115419692300,2.7836923828125,-0.14633172750473022,-0.02115725912153721,-0.03520407900214195
1761507115429664300,2.793664306640625,-0.13845302164554596,-0.009600206278264523,-0.03026151843369007
1761507115439635200,2.80363525390625,-0.13466455042362213,-0.02226146310567856,-0.029851729050278664
1761507115449607200,2.813607177734375,-0.13134731352329254,-0.05138366296887398,-0.04667864739894867
1761507115459578400,2.823578369140625,-0.14313559234142303,-0.08122636377811432,-0.06836656481027603
1761507115469550000,2.833550048828125,-0.14215661585330963,-0.10610269010066986,-0.08278864622116089
1761507115479521300,2.843521240234375,-0.13667330145835876,-0.11566083133220673,-0.08399167656898499
1761507115489493200,2.8534931640625,-0.13837000727653503,-0.11265784502029419,-0.08140920847654343
1761507115499465200,2.86346533203125,-0.13786427676677704,-0.09880876541137695,-0.08238378167152405
1761507115509436200,2.873436279296875,-0.13795001804828644,-0.08317974209785461,-0.09297756850719452
1761507115519408000,2.883408203125,-0.14307580888271332,-0.05782591551542282,-0.10675410181283951
1761507115529379000,2.893379150390625,-0.14159855246543884,-0.03500582277774811,-0.12270990014076233
1761507115539351300,2.903351318359375,-0.13638031482696533,-0.023010628297924995,-0.13490530848503113
1761507115549322200,2.913322265625,-0.12459263950586319,-0.02634836919605732,-0.1445920169353485
1761507115559294200,2.923294189453125,-0.10788216441869736,-0.03534332290291786,-0.13827736675739288
1761507115569266400,2.933266357421875,-0.0887545496225357,-0.04188724234700203,-0.12403744459152222
1761507115579237000,2.943237060546875,-0.06530341506004333,-0.04017329216003418,-0.08975090831518173
1761507115589209300,2.953209228515625,-0.0402502566576004,-0.026895301416516304,-0.050491392612457275
1761507115599180300,2.96318017578125,-0.012197265401482582,-0.0056786504574120045,-0.004499387927353382
1761507115609152300,2.97315234375,0.02433890663087368,0.02126801200211048,0.030576040968298912
1761507115619123200,2.983123291015625,0.0614251084625721,0.03971695899963379,0.06434989720582962
1761507115629095400,2.993095458984375,0.0960288941860199,0.04163869470357895,0.07929689437150955
1761507115639067100,3.003067138671875,0.11988949775695801,0.013321876525878906,0.08661390841007233
1761507115649038300,3.013038330078125,0.1328686773777008,-0.020966321229934692,0.07822548598051071
1761507115659010000,3.023010009765625,0.1419299840927124,-0.062222618609666824,0.06412148475646973
1761507115668981200,3.032981201171875,0.15826794505119324,-0.09982912242412567,0.0450199618935585
1761507115678953200,3.042953125,0.17114166915416718,-0.13548043370246887,0.04542967677116394
1761507115688924400,3.05292431640625,0.17644082009792328,-0.16089843213558197,0.06702924519777298
1761507115698896100,3.062896240234375,0.1709732860326767,-0.16324017941951752,0.09875622391700745
1761507115708868400,3.072868408203125,0.1671346127986908,-0.14028878509998322,0.11807133257389069
1761507115718839300,3.08283935546875,0.16534850001335144,-0.09505045413970947,0.1374884992837906
1761507115728811300,3.092811279296875,0.15426042675971985,-0.04118962213397026,0.13236378133296967
1761507115738782200,3.1027822265625,0.1326015591621399,-0.010586651042103767,0.1158924326300621
1761507115748754200,3.112754150390625,0.10950290411710739,-0.04376138001680374,0.0848679393529892
1761507115758725000,3.12272509765625,0.09080870449542999,-0.13118864595890045,0.03331027925014496
1761507115768697300,3.132697265625,0.06870686262845993,-0.2166966199874878,-0.01001056283712387
1761507115778669300,3.14266943359375,0.054496750235557556,-0.2442924976348877,-0.025827717036008835
1761507115788640300,3.15264013671875,0.04954353719949722,-0.21371114253997803,-0.0038004438392817974
1761507115798612500,3.162612548828125,0.05028515309095383,-0.15134471654891968,0.028551312163472176
1761507115808583200,3.172583251953125,0.0428386852145195,-0.09126780182123184,0.0865728035569191
1761507115818555400,3.182555419921875,0.03442184999585152,-0.0628700852394104,0.17018719017505646
1761507115828526300,3.1925263671875,0.015862813219428062,-0.04848048835992813,0.2248065024614334
1761507115838498300,3.202498291015625,0.004383631981909275,-0.018751906231045723,0.2631817162036896
1761507115848470300,3.21247021484375,0.0006802398711442947,0.03395950794219971,0.2850364148616791
1761507115858441500,3.22244140625,-0.005278714466840029,0.08467908203601837,0.2797164022922516
1761507115868413200,3.2324130859375,-0.013373658061027527,0.12698739767074585,0.27415546774864197
1761507115878384400,3.24238427734375,-0.02554386667907238,0.1428156942129135,0.2640638053417206
1761507115888356000,3.252356201171875,-0.03607507422566414,0.14798487722873688,0.24971173703670502
1761507115898327300,3.262327392578125,-0.03750656172633171,0.14583809673786163,0.2375866174697876
1761507115908299300,3.27229931640625,-0.029484055936336517,0.12256553769111633,0.22286014258861542
1761507115918271200,3.282271240234375,-0.024646388366818428,0.09308180212974548,0.19233489036560059
1761507115928242200,3.2922421875,-0.01778635010123253,0.06139551103115082,0.16110587120056152
1761507115938214400,3.30221435546875,-0.01883647032082081,0.040031515061855316,0.11042280495166779
1761507115948185000,3.31218505859375,-0.024726316332817078,0.034185342490673065,0.057414181530475616
1761507115958157300,3.3221572265625,-0.027908634394407272,0.04495278745889664,0.014477221295237541
1761507115968128300,3.332128173828125,-0.029407992959022522,0.06537576764822006,-0.008196932263672352
1761507115978100200,3.342100341796875,-0.02798057720065117,0.08681181818246841,-0.021207569167017937
1761507115988072000,3.352072021484375,-0.027959804981946945,0.11568155139684677,-0.03153157979249954
1761507115998043100,3.362043212890625,-0.026288405060768127,0.139100581407547,-0.040873151272535324
1761507116008014800,3.372014892578125,-0.016751892864704132,0.1704861968755722,-0.056516025215387344
1761507116017986000,3.381986083984375,0.004334317985922098,0.19120995700359344,-0.06957828253507614
1761507116027958000,3.3919580078125,0.029338471591472626,0.2130201905965805,-0.07218391448259354
1761507116037929000,3.401928955078125,0.059808168560266495,0.23381590843200684,-0.05244481936097145
1761507116047901000,3.41190087890625,0.0959581807255745,0.2537153363227844,-0.0027124183252453804
1761507116057873000,3.421872802734375,0.12537914514541626,0.2650028467178345,0.0798087939620018
1761507116067843800,3.43184375,0.1505923569202423,0.2659570574760437,0.18032580614089966
1761507116077816000,3.441816162109375,0.18063388764858246,0.2386382520198822,0.2563227117061615
1761507116087787000,3.451787109375,0.20898190140724182,0.1838703453540802,0.29398059844970703
1761507116097759000,3.461759033203125,0.23167043924331665,0.11808428913354874,0.2868841886520386
1761507116107730000,3.47172998046875,0.2520042061805725,0.03627917543053627,0.23973052203655243
1761507116117702000,3.481701904296875,0.28031226992607117,-0.04078018665313721,0.17923656105995178
1761507116127674000,3.491674072265625,0.3124379813671112,-0.11520569026470184,0.12326863408088684
1761507116137645000,3.50164501953125,0.3363496959209442,-0.1793777495622635,0.08495742827653885
1761507116147617000,3.511616943359375,0.33465591073036194,-0.24620072543621063,0.05121517926454544
1761507116157588000,3.521587890625,0.3082418143749237,-0.28651508688926697,0.031121496111154556
1761507116167560200,3.531560302734375,0.2795281410217285,-0.3027462363243103,0.02122173085808754
1761507116177531000,3.54153076171875,0.25815683603286743,-0.3073960840702057,0.0014206240884959698
1761507116187503000,3.551503173828125,0.2328168749809265,-0.28604820370674133,-0.038549162447452545
1761507116197475000,3.56147509765625,0.1995987445116043,-0.24703513085842133,-0.10945542901754379
1761507116207446000,3.571446044921875,0.16292542219161987,-0.19517379999160767,-0.17917805910110474
1761507116217418000,3.58141796875,0.12637794017791748,-0.12165314704179764,-0.2268216907978058
1761507116227389200,3.59138916015625,0.09913699328899384,-0.02888885699212551,-0.23458001017570496
1761507116237361000,3.60136083984375,0.0841221809387207,0.056643787771463394,-0.21128728985786438
1761507116247332000,3.61133203125,0.08326756954193115,0.09988020360469818,-0.17294283211231232
1761507116257304000,3.621303955078125,0.0881233885884285,0.10673625767230988,-0.14505760371685028
1761507116267276000,3.631276123046875,0.08828131854534149,0.07610564678907394,-0.13940611481666565
1761507116277247000,3.6412470703125,0.08905705064535141,0.04061076045036316,-0.15008941292762756
1761507116287219000,3.651218994140625,0.09506061673164368,0.012868612073361874,-0.1729705035686493
1761507116297190000,3.66118994140625,0.09787381440401077,-0.0032180072739720345,-0.20441479980945587
1761507116307162000,3.671162109375,0.09370596706867218,0.005358170717954636,-0.22261245548725128
1761507116317133000,3.681133056640625,0.08455435186624527,0.028516609221696854,-0.2305697649717331
1761507116327105000,3.69110498046875,0.06977646797895432,0.05889448896050453,-0.21867530047893524
1761507116337077000,3.701076904296875,0.05544530600309372,0.10230932384729385,-0.18599550426006317
1761507116347048000,3.7110478515625,0.0463186539709568,0.1269206702709198,-0.161127969622612
1761507116357020000,3.72102001953125,0.037835195660591125,0.13172580301761627,-0.1523863822221756
1761507116366991000,3.7309912109375,0.026141256093978882,0.12818698585033417,-0.15139035880565643
1761507116376962800,3.740962890625,0.012164765037596226,0.1378200799226761,-0.17164860665798187
1761507116386934000,3.75093408203125,-0.010595408268272877,0.13266819715499878,-0.19818247854709625
1761507116396906000,3.760906005859375,-0.02591800130903721,0.12718135118484497,-0.2265453040599823
1761507116406878000,3.7708779296875,-0.04350072145462036,0.12708014249801636,-0.2515987157821655
1761507116416849000,3.780848876953125,-0.06724905967712402,0.1265152394771576,-0.2608168125152588
1761507116426821000,3.790821044921875,-0.08026818931102753,0.12706944346427917,-0.22574561834335327
1761507116436791800,3.800791748046875,-0.08893008530139923,0.1268967092037201,-0.17092454433441162
1761507116446764000,3.810763916015625,-0.08723125606775284,0.12032189965248108,-0.11007532477378845
1761507116456735000,3.82073486328125,-0.08472127467393875,0.11791877448558807,-0.05898752063512802
1761507116466707000,3.83070703125,-0.08507440984249115,0.10570497810840607,-0.034933850169181824
1761507116476679200,3.84067919921875,-0.08467825502157211,0.09980590641498566,-0.03152388706803322
1761507116486650000,3.850650146484375,-0.09156598895788193,0.09541488438844681,-0.03441687673330307
1761507116496622000,3.8606220703125,-0.09850641340017319,0.08232226222753525,-0.04186863824725151
1761507116506593000,3.870593017578125,-0.10681360960006714,0.04971824213862419,-0.04738244786858559
1761507116516565000,3.88056494140625,-0.11698664724826813,0.009472059085965157,-0.05108056589961052
1761507116526536000,3.890535888671875,-0.1226234957575798,-0.02624838799238205,-0.050573766231536865
1761507116536508200,3.900508056640625,-0.12460612505674362,-0.04874805361032486,-0.044931016862392426
1761507116546479900,3.91047998046875,-0.12889328598976135,-0.051262080669403076,-0.03941001743078232
1761507116556451000,3.920451171875,-0.13906337320804596,-0.03429431840777397,-0.034826431423425674
1761507116566423000,3.930423095703125,-0.14861613512039185,-0.019568905234336853,-0.03101864457130432
1761507116576394000,3.94039404296875,-0.15738779306411743,0.00006163457874208689,-0.014019010588526726
1761507116586366000,3.950365966796875,-0.16884790360927582,0.0049706390127539635,-0.0006323655252344906
1761507116596337200,3.960337158203125,-0.18208128213882446,-0.0016770866932347417,0.016557611525058746
1761507116606308900,3.970308837890625,-0.1882169395685196,-0.00853952020406723,0.03726129233837128
1761507116616281000,3.980281005859375,-0.18811161816120148,-0.019181568175554276,0.06622389703989029
1761507116626252000,3.990251953125,-0.18644048273563385,-0.028912758454680443,0.1066402941942215
1761507116636224000,4.00022412109375,-0.18894696235656738,-0.031447883695364,0.14531834423542023
1761507116646195000,4.01019482421875,-0.2019684910774231,-0.04498499631881714,0.16206537187099457
1761507116656166100,4.020166259765625,-0.22593191266059875,-0.1187649518251419,0.1155761331319809
1761507116666137900,4.030137939453125,-0.2530311644077301,-0.22441014647483826,0.012043350376188755
1761507116676110000,4.040110107421875,-0.28339508175849915,-0.277406245470047,-0.09079985320568085
1761507116686081000,4.0500810546875,-0.318815678358078,-0.24021732807159424,-0.16692844033241272
1761507116696053000,4.060052978515625,-0.35649555921554565,-0.14724084734916687,-0.21585853397846222
1761507116706024000,4.07002392578125,-0.391480952501297,-0.015226620249450207,-0.22131428122520447
1761507116715996000,4.079995849609375,-0.4006556272506714,0.1293763667345047,-0.17908193171024323
1761507116725966800,4.089966796875,-0.3871653974056244,0.2363656610250473,-0.11778635531663895
1761507116735939000,4.09993896484375,-0.35307157039642334,0.2843948304653168,-0.04556684568524361
1761507116745910000,4.109909912109375,-0.3172241151332855,0.2835695147514343,0.021373571828007698
1761507116755882000,4.119882080078125,-0.28394001722335815,0.24278409779071808,0.0747135728597641
1761507116765854000,4.12985400390625,-0.24694177508354187,0.1838051974773407,0.10279075056314468
1761507116775825000,4.139824951171875,-0.21150562167167664,0.09112853556871414,0.0999700203537941
1761507116785796900,4.149796875,-0.1792086660861969,-0.0014626455958932638,0.07187020778656006
1761507116795768000,4.15976806640625,-0.15056917071342468,-0.0847579687833786,0.03188209608197212
1761507116805739800,4.16973974609375,-0.118586465716362,-0.14229023456573486,-0.0046157268807291985
1761507116815711000,4.1797109375,-0.0972636342048645,-0.1487509161233902,-0.011812027543783188
1761507116825683200,4.18968310546875,-0.06713635474443436,-0.10181670635938644,0.020943254232406616
1761507116835655000,4.199655029296875,-0.05233676731586456,-0.041270166635513306,0.06942721456289291
1761507116845626000,4.209626220703125,-0.058353643864393234,0.02020278200507164,0.10287332534790039
1761507116855598000,4.21959814453125,-0.08467347174882889,0.06254744529724121,0.11220986396074295
1761507116865569000,4.229569091796875,-0.11602793633937836,0.10300299525260925,0.09720934927463531
1761507116875541000,4.239541015625,-0.13736796379089355,0.1283913105726242,0.05902257561683655
1761507116885512200,4.24951220703125,-0.1484120786190033,0.10424655675888062,0.025798577815294266
1761507116895484000,4.25948388671875,-0.16571864485740662,0.0640096589922905,0.03171398863196373
1761507116905456000,4.2694560546875,-0.1837625801563263,0.03682677820324898,0.07584712654352188
1761507116915427000,4.279427001953125,-0.19238856434822083,0.02311469428241253,0.1419406533241272
1761507116925399000,4.28939892578125,-0.1759306639432907,0.04272797331213951,0.21308638155460358
1761507116935370000,4.299369873046875,-0.14885994791984558,0.09088283032178879,0.2864363491535187
1761507116945342000,4.309342041015625,-0.13004843890666962,0.13132692873477936,0.33655595779418945
1761507116955313000,4.31931298828125,-0.1208280473947525,0.17740744352340698,0.36358746886253357
1761507116965285000,4.32928515625,-0.11525245755910873,0.20018333196640015,0.35834529995918274
1761507116975256800,4.3392568359375,-0.1265796273946762,0.21101194620132446,0.3449649214744568
1761507116985227800,4.349227783203125,-0.14309602975845337,0.19430513679981232,0.3231280744075775
1761507116995200000,4.359199951171875,-0.1614379733800888,0.1606627106666565,0.2963918447494507
1761507117005171000,4.3691708984375,-0.18163245916366577,0.10890764743089676,0.25006774067878723
1761507117015143000,4.379142822265625,-0.1960792988538742,0.06439093500375748,0.20975640416145325
1761507117025115100,4.389115234375,-0.20635218918323517,0.02222270518541336,0.14352838695049286
1761507117035085800,4.3990859375,-0.21634623408317566,0.0010090285213664174,0.06223779171705246
1761507117045058000,4.40905810546875,-0.2264222949743271,-0.0034573590382933617,-0.027520060539245605
1761507117055029800,4.41902978515625,-0.22697335481643677,0.005218149162828922,-0.11566352844238281
1761507117065001000,4.4290009765625,-0.22913530468940735,0.005305767059326172,-0.1878647655248642
1761507117074973000,4.438972900390625,-0.23975114524364471,-0.003527513239532709,-0.22838938236236572
1761507117084944100,4.448944091796875,-0.23851092159748077,-0.001553311594761908,-0.22621092200279236
1761507117094915800,4.458915771484375,-0.23098935186862946,-0.0034908014349639416,-0.20688168704509735
1761507117104887000,4.468886962890625,-0.2103314846754074,-0.009775062091648579,-0.18423976004123688
1761507117114858800,4.478858642578125,-0.18207158148288727,-0.017304878681898117,-0.16585779190063477
1761507117124831000,4.4888310546875,-0.14923374354839325,-0.0021445672027766705,-0.16367879509925842
1761507117134802000,4.498802001953125,-0.11517025530338287,0.013476934283971786,-0.18026189506053925
1761507117144774000,4.50877392578125,-0.09562691301107407,0.02885003201663494,-0.19844329357147217
1761507117154744800,4.518744873046875,-0.08457732200622559,0.058924101293087006,-0.22018899023532867
1761507117164717000,4.528717041015625,-0.08338502794504166,0.0568993017077446,-0.2283521145582199
1761507117174687700,4.538687744140625,-0.0851534828543663,0.04718220978975296,-0.21648836135864258
1761507117184660000,4.548659912109375,-0.08450740575790405,0.020314108580350876,-0.1948951929807663
1761507117194632000,4.5586318359375,-0.06666898727416992,-0.02372034266591072,-0.1589772254228592
1761507117204603000,4.568602783203125,-0.04239001125097275,-0.0851253792643547,-0.11362172663211823
1761507117214574800,4.578574951171875,-0.017417632043361664,-0.13975469768047333,-0.07194424420595169
1761507117224546000,4.588546142578125,-0.0022285603918135166,-0.17110995948314667,-0.03481125086545944
1761507117234517800,4.598517822265625,0.0004608859308063984,-0.17981024086475372,-0.015584887005388737
1761507117244489000,4.608489013671875,-0.007679865229874849,-0.1662994921207428,-0.024408472701907158
1761507117254461000,4.6184609375,-0.022923056036233902,-0.1324852854013443,-0.05342081934213638
1761507117264433000,4.628432861328125,-0.040148913860321045,-0.08632044494152069,-0.08263302594423294
1761507117274403800,4.63840380859375,-0.05485879257321358,-0.04234867915511131,-0.10430339723825455
1761507117284375800,4.648375732421875,-0.06816155463457108,-0.009525218047201633,-0.11733877658843994
1761507117294346800,4.6583466796875,-0.07829601317644119,0.0003495466662570834,-0.1184837818145752
1761507117304319000,4.668319091796875,-0.08139433711767197,-0.0022174743935465813,-0.12344551831483841
1761507117314290000,4.6782900390625,-0.07365897297859192,-0.01822156086564064,-0.1171143427491188
1761507117324262000,4.688261962890625,-0.055348414927721024,-0.02495722658932209,-0.10763827711343765
1761507117334234000,4.698234130859375,-0.042642150074243546,-0.03136816248297691,-0.09871696680784225
1761507117344204800,4.708204833984375,-0.04207596182823181,-0.036977846175432205,-0.09652704745531082
1761507117354177000,4.718177001953125,-0.04446409270167351,-0.03422708436846733,-0.09365439414978027
1761507117364148000,4.72814794921875,-0.050823722034692764,-0.008454077877104282,-0.08609101176261902
1761507117374120000,4.738119873046875,-0.05151181295514107,0.03165656328201294,-0.08212731778621674
1761507117384091000,4.7480908203125,-0.044574812054634094,0.07032965868711472,-0.07227202504873276
1761507117394063000,4.75806298828125,-0.030504537746310234,0.08964301645755768,-0.06065730005502701
1761507117404034800,4.768034912109375,-0.011294623836874962,0.0881524458527565,-0.04575638100504875
1761507117414006000,4.778006103515625,-0.004679052624851465,0.09007704257965088,-0.04848335683345795
1761507117423977700,4.787977783203125,0.00969189777970314,0.04749016836285591,-0.049794431775808334
1761507117433949000,4.797948974609375,0.029993422329425812,0.0065825944766402245,-0.034059904515743256
1761507117443921000,4.8079208984375,0.04887416958808899,-0.02637961506843567,-0.018331807106733322
1761507117453892000,4.81789208984375,0.06906630098819733,-0.047806721180677414,0.0032322301995009184
1761507117463863800,4.82786376953125,0.08361195027828217,-0.06343308836221695,0.013223610818386078
1761507117473836000,4.8378359375,0.08235431462526321,-0.06428374350070953,0.014141561463475227
1761507117483807000,4.847806884765625,0.0716468095779419,-0.06109008565545082,0.010603819042444229
1761507117493779000,4.857779052734375,0.05645814538002014,-0.04343098774552345,-0.0006592935533262789
1761507117503750000,4.86775,0.042269885540008545,-0.014281623996794224,-0.011536709032952785
1761507117513721900,4.877721923828125,0.029236136004328728,0.01644456386566162,-0.02193337492644787
1761507117523692800,4.88769287109375,0.0130624920129776,0.011689755134284496,-0.04205142706632614
1761507117533665000,4.8976650390625,-0.009329397231340408,-0.016087666153907776,-0.0707269161939621
1761507117543636700,4.90763671875,-0.030948404222726822,-0.05678023770451546,-0.09704587608575821
1761507117553608000,4.91760791015625,-0.03664543852210045,-0.09095924347639084,-0.09323675185441971
1761507117563580000,4.927579833984375,-0.030322030186653137,-0.09250680357217789,-0.05045626685023308
1761507117573550800,4.93755078125,-0.01903238333761692,-0.07090358436107635,0.020746078342199326
1761507117583522800,4.947522705078125,-0.02371608465909958,-0.021451881155371666,0.11897171288728714
1761507117593494000,4.957493896484375,-0.043334539979696274,0.039809681475162506,0.2194761037826538
1761507117603466000,4.967466064453125,-0.06395486742258072,0.10474526882171631,0.2967967391014099
1761507117613438000,4.97743798828125,-0.07313136756420135,0.16621391475200653,0.3345140218734741
1761507117623409200,4.9874091796875,-0.0722448006272316,0.2174651175737381,0.3368935286998749
1761507117633380900,4.997380859375,-0.07053043693304062,0.2366613894701004,0.32040101289749146
1761507117643352000,5.00735205078125,-0.07446951419115067,0.20965692400932312,0.29516491293907166
1761507117653323800,5.01732373046875,-0.08072655647993088,0.1412225365638733,0.262039452791214
1761507117663295000,5.027294921875,-0.08322753012180328,0.059262681752443314,0.2266939878463745
1761507117673267000,5.037266845703125,-0.08273112773895264,-0.010344401001930237,0.19092774391174316
1761507117683239000,5.047239013671875,-0.07304095476865768,-0.04911176860332489,0.16367854177951813
1761507117693209900,5.0572099609375,-0.05533047765493393,-0.05734574422240257,0.14031563699245453
1761507117703182000,5.06718212890625,-0.03541349619626999,-0.04649176448583603,0.13242682814598083
1761507117713152800,5.07715283203125,-0.023165177553892136,-0.032805297523736954,0.12507113814353943
1761507117723125000,5.087125,-0.01669689267873764,-0.03170940652489662,0.11679908633232117
1761507117733096000,5.097095947265625,-0.01614277809858322,-0.03739823400974274,0.09684291481971741
1761507117743068000,5.10706787109375,-0.01650257036089897,-0.05939994007349014,0.06314114481210709
1761507117753040000,5.117039794921875,-0.02451642043888569,-0.0820150300860405,0.015075810253620148
1761507117763011000,5.127010986328125,-0.02368231676518917,-0.08578579872846603,-0.022383147850632668
1761507117772982800,5.136982666015625,-0.016753531992435455,-0.06560089439153671,-0.048641353845596313
1761507117782954000,5.1469541015625,0.0017423885874450207,-0.04392276704311371,-0.06259898096323013
1761507117792926000,5.156926025390625,0.020539460703730583,-0.013270359486341476,-0.05442335456609726
1761507117802897000,5.16689697265625,0.03996988385915756,0.006100675091147423,-0.028928913176059723
1761507117812868900,5.176868896484375,0.06639697402715683,0.013677142560482025,0.0036966544575989246
1761507117822840800,5.1868408203125,0.0896676778793335,0.009836066514253616,0.042907971888780594
1761507117832811800,5.196811767578125,0.10639605671167374,0.0009075520210899413,0.07362167537212372
1761507117842784000,5.206783935546875,0.12194625288248062,-0.011947525665163994,0.10377611964941025
1761507117852755000,5.2167548828125,0.14774954319000244,-0.02696179412305355,0.13778182864189148
1761507117862727000,5.226726806640625,0.1701911985874176,-0.040336720645427704,0.16458654403686523
1761507117872697900,5.23669775390625,0.19044336676597595,-0.04942736029624939,0.18900464475154877
1761507117882669800,5.246669921875,0.204973042011261,-0.04447920620441437,0.20736262202262878
1761507117892642000,5.25664208984375,0.21852681040763855,-0.036367807537317276,0.20802274346351624
1761507117902613000,5.266613037109375,0.21765835583209991,-0.02375108189880848,0.1943998783826828
1761507117912585000,5.2765849609375,0.21187368035316467,-0.0052079507149755955,0.15633174777030945
1761507117922556000,5.286555908203125,0.19925960898399353,0.014752708375453949,0.09956460446119308
1761507117932528000,5.296528076171875,0.19033454358577728,0.013847533613443375,0.030496535822749138
1761507117942498800,5.306498779296875,0.18195250630378723,-0.016216091811656952,-0.02844853885471821
1761507117952471000,5.316470947265625,0.18109843134880066,-0.07225912064313889,-0.06172127649188042
1761507117962442800,5.32644287109375,0.18647322058677673,-0.13799631595611572,-0.07505572587251663
1761507117972414000,5.3364140625,0.1865207701921463,-0.2130291759967804,-0.07113576680421829
1761507117982386000,5.346385986328125,0.18288449943065643,-0.2809158265590668,-0.057244185358285904
1761507117992357000,5.356357177734375,0.17149919271469116,-0.3171786963939667,-0.06309179216623306
1761507118002329000,5.3663291015625,0.1555228978395462,-0.31901758909225464,-0.08022790402173996
1761507118012300000,5.376300048828125,0.13885356485843658,-0.2792932093143463,-0.1099572405219078
1761507118022272000,5.38627197265625,0.11621002852916718,-0.2093926966190338,-0.14072473347187042
1761507118032244200,5.396244140625,0.09105944633483887,-0.11923110485076904,-0.1674620509147644
1761507118042215200,5.406215087890625,0.06903030723333359,-0.027244724333286285,-0.18012139201164246
1761507118052187100,5.416187255859375,0.04299652576446533,0.0460270456969738,-0.1845153421163559
1761507118062158000,5.426157958984375,0.023093925788998604,0.08395738899707794,-0.18697477877140045
1761507118072130300,5.43613037109375,0.0019336137920618057,0.08884411305189133,-0.19460229575634003
1761507118082101000,5.44610107421875,-0.004640132654458284,0.05983882397413254,-0.19926230609416962
1761507118092073200,5.4560732421875,0.0033904528245329857,0.04296748340129852,-0.18350568413734436
1761507118102045200,5.466045166015625,0.021965201944112778,0.03657536581158638,-0.14763769507408142
1761507118112016100,5.47601611328125,0.041368722915649414,0.044537533074617386,-0.11083371937274933
1761507118121988000,5.485988037109375,0.05554632842540741,0.051096100360155106,-0.08195146918296814
1761507118131959300,5.495959228515625,0.05636061728000641,0.0465095117688179,-0.08785492926836014
1761507118141931000,5.505930908203125,0.04834796488285065,0.05559168756008148,-0.10883983969688416
1761507118151902200,5.515902099609375,0.03939380869269371,0.06673460453748703,-0.14493319392204285
1761507118161874200,5.525874267578125,0.03191858157515526,0.07896890491247177,-0.18717092275619507
1761507118171846100,5.53584619140625,0.027244649827480316,0.08920140564441681,-0.22326545417308807
1761507118181817000,5.545817138671875,0.027100037783384323,0.08300769329071045,-0.23627153038978577
1761507118191789000,5.5557890625,0.03542204946279526,0.06731998175382614,-0.21313747763633728
1761507118201760000,5.565760009765625,0.04417292773723602,0.039070770144462585,-0.16499976813793182
1761507118211732200,5.575732177734375,0.054664645344018936,0.005882597994059324,-0.10348229855298996
1761507118221703200,5.585703125,0.059771254658699036,-0.029770202934741974,-0.04733673110604286
1761507118231675100,5.595675048828125,0.06144034489989281,-0.050010066479444504,-0.02200962044298649
1761507118241647000,5.605647216796875,0.05879556015133858,-0.0556490421295166,-0.027102116495370865
1761507118251618000,5.6156181640625,0.04322175681591034,-0.03631402179598808,-0.05884763225913048
1761507118261590300,5.62559033203125,0.028211379423737526,-0.003151007229462266,-0.09635265916585922
1761507118271561200,5.635561279296875,0.005443077068775892,0.034927837550640106,-0.11657915264368057
1761507118281533200,5.645533203125,-0.013852855190634727,0.07995124161243439,-0.10330808907747269
1761507118291504000,5.655504150390625,-0.02156159281730652,0.10641979426145554,-0.07558795064687729
1761507118301476400,5.665476318359375,-0.018105074763298035,0.09328482300043106,-0.04534003511071205
1761507118311448000,5.675447998046875,-0.011445585638284683,0.06976038962602615,-0.01992022804915905
1761507118321419300,5.685419189453125,-0.008426625281572342,0.02510157600045204,-0.01264074258506298
1761507118331391000,5.695390869140625,-0.013681082054972649,-0.035424087196588516,0.00015012314543128014
1761507118341362200,5.705362060546875,-0.023809615522623062,-0.0688595399260521,0.014344772323966026
1761507118351334100,5.715334228515625,-0.035053402185440063,-0.08910967409610748,0.02896132506430149
1761507118361305300,5.725305419921875,-0.05274238437414169,-0.07974467426538467,0.045535508543252945
1761507118371277000,5.735277099609375,-0.07167985290288925,-0.05689699575304985,0.04745124280452728
1761507118381249300,5.745249267578125,-0.09913012385368347,-0.018093671649694443,0.05855769291520119
1761507118391220000,5.755219970703125,-0.12946729362010956,0.036893900483846664,0.08467556536197662
1761507118401192200,5.765192138671875,-0.1557079553604126,0.10699868202209473,0.12753142416477203
1761507118411163100,5.7751630859375,-0.16552993655204773,0.17916420102119446,0.16829411685466766
1761507118421135000,5.785135009765625,-0.1559300422668457,0.23562374711036682,0.19532866775989532
1761507118431106000,5.79510595703125,-0.13768421113491058,0.2740895748138428,0.202423095703125
1761507118441078300,5.805078369140625,-0.11703992635011673,0.2816196382045746,0.19630634784698486
1761507118451049200,5.81504931640625,-0.09653487056493759,0.2708176076412201,0.18554987013339996
1761507118461021200,5.825021240234375,-0.09537933021783829,0.2097206860780716,0.1527423858642578
1761507118470993200,5.8349931640625,-0.10640229284763336,0.062148451805114746,0.08205325156450272
1761507118480964000,5.844964111328125,-0.12808015942573547,-0.08937156200408936,-0.012789903208613396
1761507118490936000,5.85493603515625,-0.16303573548793793,-0.17890343070030212,-0.11201144009828568
1761507118500907300,5.8649072265625,-0.20599225163459778,-0.19361312687397003,-0.23538929224014282
1761507118510879000,5.87487890625,-0.2487836629152298,-0.14580748975276947,-0.35382646322250366
1761507118520850200,5.88485009765625,-0.28448837995529175,-0.05619344487786293,-0.43519535660743713
1761507118530822100,5.894822265625,-0.3005724251270294,0.07202610373497009,-0.4569818079471588
1761507118540794000,5.904794189453125,-0.2958860695362091,0.1883460432291031,-0.42165473103523254
1761507118550765000,5.91476513671875,-0.26623252034187317,0.2733733057975769,-0.3328840732574463
1761507118560737000,5.924737060546875,-0.22020699083805084,0.31192708015441895,-0.23582036793231964
1761507118570708000,5.9347080078125,-0.1595470905303955,0.30535003542900085,-0.1356254518032074
1761507118580680200,5.94468017578125,-0.10311124473810196,0.24932536482810974,-0.04209098219871521
1761507118590651100,5.954651123046875,-0.06787162274122238,0.15823934972286224,0.040731653571128845
1761507118600623000,5.964623046875,-0.03922906517982483,0.052378956228494644,0.10468533635139465
1761507118610595300,5.97459521484375,-0.010977748781442642,-0.03508507460355759,0.13539206981658936
1761507118620566000,5.98456591796875,0.020159132778644562,-0.12282132357358932,0.14656271040439606
1761507118630538200,5.994538330078125,0.04470037296414375,-0.20154082775115967,0.14732076227664948
1761507118640509200,6.00450927734375,0.06722405552864075,-0.2825304865837097,0.15130965411663055
1761507118650481200,6.014481201171875,0.07139758765697479,-0.3599746525287628,0.1542479544878006
1761507118660452000,6.0244521484375,0.06041470915079117,-0.42636725306510925,0.15151208639144897
1761507118670424300,6.03442431640625,0.036358870565891266,-0.44115525484085083,0.14715300500392914
1761507118680396000,6.04439599609375,0.006607632152736187,-0.425675630569458,0.13831476867198944
1761507118690367200,6.0543671875,-0.0414733849465847,-0.38731649518013,0.12438319623470306
1761507118700339200,6.064339111328125,-0.10188613086938858,-0.3285357356071472,0.1053629070520401
1761507118710310100,6.07431005859375,-0.15713927149772644,-0.253962904214859,0.06904368102550507
1761507118720282000,6.0842822265625,-0.2026473730802536,-0.16189530491828918,0.024527613073587418
1761507118730253300,6.09425341796875,-0.24200907349586487,-0.07318824529647827,-0.04124019294977188
1761507118740225000,6.10422509765625,-0.2782602906227112,0.008879192173480988,-0.09435480833053589
1761507118750197200,6.114197265625,-0.3118007481098175,0.07240352034568787,-0.11618079245090485
1761507118760168200,6.124168212890625,-0.333727091550827,0.11861442774534225,-0.08607455343008041
1761507118770140200,6.13414013671875,-0.34131062030792236,0.1529075801372528,-0.014505641534924507
1761507118780111000,6.144111083984375,-0.32683899998664856,0.1600581705570221,0.06036753207445145
1761507118790083000,6.1540830078125,-0.2942599654197693,0.14349161088466644,0.1403874158859253
1761507118800054000,6.164053955078125,-0.2520483136177063,0.0974346250295639,0.1985066533088684
1761507118810026200,6.174026123046875,-0.22098545730113983,0.04384239763021469,0.24249450862407684
1761507118819998000,6.183998046875,-0.21666474640369415,-0.007500949315726757,0.2623494267463684
1761507118829969200,6.19396923828125,-0.23440800607204437,-0.026051877066493034,0.2731021046638489
1761507118839941000,6.203941162109375,-0.2622838616371155,-0.006804414093494415,0.26668494939804077
1761507118849912000,6.213912109375,-0.2766094505786896,0.02652030438184738,0.2501760721206665
1761507118859884000,6.223884033203125,-0.28668683767318726,0.06067747622728348,0.22463716566562653
1761507118869855200,6.233855224609375,-0.28509795665740967,0.09971082955598831,0.17474216222763062
1761507118879827000,6.243826904296875,-0.2786232829093933,0.12711980938911438,0.1312335729598999
1761507118889799200,6.253799072265625,-0.27362295985221863,0.12634003162384033,0.08490119874477386
1761507118899770000,6.26377001953125,-0.2716450095176697,0.10928887873888016,0.03733820840716362
1761507118909742000,6.2737421875,-0.2651362717151642,0.07599890977144241,0.0015164565993472934
1761507118919713000,6.283713134765625,-0.2557196021080017,0.04911882430315018,-0.028862223029136658
1761507118929685000,6.29368505859375,-0.23336133360862732,0.04571891203522682,-0.04577373340725899
1761507118939656000,6.303656005859375,-0.20612944662570953,0.057116176933050156,-0.05783918499946594
1761507118949628200,6.313628173828125,-0.16982905566692352,0.05194544419646263,-0.07669159770011902
1761507118959600000,6.32360009765625,-0.13017752766609192,0.02985638938844204,-0.09628740698099136
1761507118969571000,6.333571044921875,-0.0968707725405693,0.0034748392645269632,-0.11816506832838058
1761507118979543300,6.343543212890625,-0.07427145540714264,-0.03270233795046806,-0.14608991146087646
1761507118989513500,6.353513427734375,-0.0611119419336319,-0.05759904906153679,-0.16396726667881012
1761507118999485400,6.3634853515625,-0.047689080238342285,-0.07118889689445496,-0.16928480565547943
1761507119009456400,6.373456298828125,-0.033593710511922836,-0.07865247130393982,-0.16885431110858917
1761507119019428600,6.3834287109375,-0.01886962726712227,-0.07343853265047073,-0.15557898581027985
1761507119029400300,6.393400390625,-0.004609743598848581,-0.06749279797077179,-0.1493290513753891
1761507119039371500,6.40337158203125,-0.003018504474312067,-0.06631674617528915,-0.15593422949314117
1761507119049343200,6.41334326171875,0.0017789588309824467,-0.0653434693813324,-0.16462184488773346
1761507119059314400,6.423314453125,0.0042727431282401085,-0.06899785995483398,-0.1737506240606308
1761507119069286400,6.433286376953125,0.01226277370005846,-0.08695003390312195,-0.17664191126823425
1761507119079257600,6.443257568359375,0.016719840466976166,-0.11680752784013748,-0.1720713973045349
1761507119089229300,6.453229248046875,0.020441411063075066,-0.14402002096176147,-0.1560923457145691
1761507119099200500,6.463200439453125,0.02137617953121662,-0.16670428216457367,-0.14145427942276
1761507119109172200,6.473172119140625,0.020063333213329315,-0.1700662076473236,-0.13023805618286133
1761507119119144400,6.48314453125,0.015915725380182266,-0.15844735503196716,-0.12059875577688217
1761507119129115400,6.493115478515625,0.005756746977567673,-0.12866194546222687,-0.10952817648649216
1761507119139087400,6.50308740234375,-0.007426432799547911,-0.10442530363798141,-0.1124374195933342
1761507119149058300,6.513058349609375,-0.01744874194264412,-0.064858578145504,-0.11283094435930252
1761507119159030500,6.523030517578125,-0.02749684825539589,-0.02087913453578949,-0.1273568868637085
1761507119169001200,6.533001220703125,-0.023633982986211777,0.01510758325457573,-0.15302258729934692
1761507119178973400,6.542973388671875,-0.018489554524421692,0.05170181393623352,-0.17444691061973572
1761507119188945400,6.5529453125,-0.019322944805026054,0.0820118859410286,-0.18317507207393646
1761507119198916400,6.562916259765625,-0.01870082877576351,0.10148544609546661,-0.1768905371427536
1761507119208888600,6.572888671875,-0.015106645412743092,0.09926125407218933,-0.16101288795471191
1761507119218859500,6.582859619140625,-0.01638443022966385,0.09341827780008316,-0.14686670899391174
1761507119228831500,6.59283154296875,-0.008098690770566463,0.08190502971410751,-0.12140634655952454
1761507119238802400,6.602802490234375,0.0017874962650239468,0.07690788060426712,-0.10613445192575455
1761507119248774700,6.612774658203125,0.01924550160765648,0.07413140684366226,-0.09771561622619629
1761507119258746400,6.622746337890625,0.036788810044527054,0.07209542393684387,-0.07937362790107727
1761507119268717600,6.632717529296875,0.062264230102300644,0.06784579902887344,-0.044660504907369614
1761507119278689300,6.642689208984375,0.08296604454517365,0.05486927181482315,-0.004402295220643282
1761507119288660500,6.652660400390625,0.09912552684545517,0.018706850707530975,0.035466138273477554
1761507119298632400,6.662632568359375,0.10772860795259476,-0.03752153366804123,0.05425340682268143
1761507119308603600,6.672603759765625,0.11734852939844131,-0.07645222544670105,0.07649492472410202
1761507119318575400,6.682575439453125,0.13008670508861542,-0.091511070728302,0.08774758130311966
1761507119328547600,6.692547607421875,0.13953615725040436,-0.07976625114679337,0.10325627028942108
1761507119338518300,6.702518310546875,0.13933588564395905,-0.05526144430041313,0.11499547958374023
1761507119348490500,6.712490478515625,0.13115815818309784,-0.023447204381227493,0.118999183177948
1761507119358461400,6.72246142578125,0.10792634636163712,-0.01442654523998499,0.08717814087867737
1761507119368433400,6.732433349609375,0.07615257799625397,-0.04579620063304901,-0.00031504908110946417
1761507119378404400,6.742404296875,0.045882027596235275,-0.09510915726423264,-0.11090894043445587
1761507119388376600,6.75237646484375,0.022249430418014526,-0.11929868161678314,-0.18202780187129974
1761507119398348300,6.762348388671875,0.0101805180311203,-0.11349805444478989,-0.18778502941131592
1761507119408319500,6.772319580078125,0.006091471761465073,-0.07836026698350906,-0.10869745165109634
1761507119418291500,6.78229150390625,-0.01132080890238285,0.0005033868364989758,0.035667188465595245
1761507119428262400,6.792262451171875,-0.027902808040380478,0.08898591250181198,0.21644000709056854
1761507119438234400,6.802234375,-0.03772907331585884,0.1564914435148239,0.3595327138900757
1761507119448205600,6.81220556640625,-0.024305056780576706,0.1929757446050644,0.45663824677467346
1761507119458177300,6.82217724609375,-0.003232260700315237,0.21339952945709229,0.481143593788147
1761507119468149500,6.8321494140625,0.02615598775446415,0.2100822925567627,0.46272143721580505
1761507119478120400,6.842120361328125,0.05041614919900894,0.18465782701969147,0.4253217875957489
1761507119488092400,6.852092529296875,0.049214862287044525,0.13264065980911255,0.38979607820510864
1761507119498063400,6.8620634765625,0.028206253424286842,0.07313153892755508,0.3674122095108032
1761507119508035300,6.872035400390625,-0.00004007108509540558,0.02880694530904293,0.3434474766254425
1761507119518006300,6.88200634765625,-0.019573824480175972,-0.004120112396776676,0.3039802014827728
1761507119527978500,6.891978515625,-0.02171388827264309,-0.015061130747199059,0.239887535572052
1761507119537950500,6.901950439453125,-0.011782428249716759,-0.01645609550178051,0.16485537588596344
1761507119547921400,6.91192138671875,0.0007822737097740173,-0.01026642695069313,0.09968644380569458
1761507119557893600,6.9218935546875,0.005577827803790569,-0.011140210554003716,0.057388786226511
1761507119567864300,6.9318642578125,0.010920440778136253,-0.021033162251114845,0.03699764981865883
1761507119577836500,6.94183642578125,0.01842123456299305,-0.03732558339834213,0.020502297207713127
1761507119587807500,6.951807373046875,0.04030875861644745,-0.06126194819808006,-0.0025303824804723263
1761507119597779500,6.961779541015625,0.07057958096265793,-0.0816178172826767,-0.028276758268475533
1761507119607751400,6.97175146484375,0.09468377381563187,-0.09757550060749054,-0.062381260097026825
1761507119617722600,6.98172265625,0.11349128931760788,-0.1053527295589447,-0.08098743110895157
1761507119627694300,6.9916943359375,0.12578000128269196,-0.09891916066408157,-0.07528142631053925
1761507119637665500,7.00166552734375,0.13401982188224792,-0.08303926885128021,-0.04816592112183571
1761507119647637200,7.01163720703125,0.14370733499526978,-0.05000435188412666,-0.011908047832548618
1761507119657608400,7.0216083984375,0.15854033827781677,-0.008651049807667732,0.01711375080049038
1761507119667580400,7.031580322265625,0.18404275178909302,0.03262041509151459,0.047712478786706924
1761507119677551600,7.041551513671875,0.20829536020755768,0.06431069225072861,0.0691400095820427
1761507119687523300,7.0515234375,0.2218601107597351,0.07617408037185669,0.08519021421670914
1761507119697495600,7.06149560546875,0.22500848770141602,0.055802494287490845,0.0913676843047142
1761507119707466200,7.07146630859375,0.223114013671875,0.021832557395100594,0.0831068828701973
1761507119717438500,7.0814384765625,0.2160441130399704,-0.007110944017767906,0.06291346997022629
1761507119727409400,7.091409423828125,0.20560315251350403,-0.018086634576320648,0.04074741154909134
1761507119737381400,7.10138134765625,0.19671005010604858,-0.01448843814432621,0.02708938904106617
1761507119747352300,7.111352294921875,0.18891172111034393,0.010137956589460373,0.031065819784998894
1761507119757324500,7.121324462890625,0.18290601670742035,0.054623931646347046,0.0570438876748085
1761507119767296300,7.131296142578125,0.18147219717502594,0.08491457253694534,0.08711754530668259
1761507119777267500,7.141267333984375,0.1813230663537979,0.09062598645687103,0.10899727791547775
1761507119787239400,7.151239501953125,0.17560894787311554,0.0702623501420021,0.1161545068025589
1761507119797210400,7.16121044921875,0.17299185693264008,0.026212600991129875,0.11171848326921463
1761507119807182300,7.171182373046875,0.16452689468860626,-0.03925023227930069,0.08882232010364532
1761507119817153500,7.181153564453125,0.157525435090065,-0.09011527895927429,0.05244540423154831
1761507119827125200,7.191125244140625,0.1488998979330063,-0.11968832463026047,0.024359598755836487
1761507119837097500,7.201097412109375,0.1316996067762375,-0.1271054893732071,-0.005384980700910091
1761507119847068400,7.211068359375,0.11264519393444061,-0.10441943258047104,-0.03630690649151802
1761507119857040400,7.221040283203125,0.09191993623971939,-0.06943535059690475,-0.058529119938611984
1761507119867011300,7.23101123046875,0.07469954341650009,-0.041961975395679474,-0.08726390451192856
1761507119876983300,7.2409833984375,0.06263355910778046,-0.027669589966535568,-0.1176963746547699
1761507119886954200,7.250954345703125,0.054454248398542404,-0.03185774385929108,-0.14476141333580017
1761507119896926500,7.260926513671875,0.04734707251191139,-0.04256711155176163,-0.164312481880188
1761507119906898400,7.2708984375,0.04068872332572937,-0.06027830392122269,-0.18111205101013184
1761507119916869400,7.280869384765625,0.035487834364175797,-0.06775299459695816,-0.18879473209381104
1761507119926841600,7.290841552734375,0.030243538320064545,-0.052748214453458786,-0.19405926764011383
1761507119936812300,7.300812255859375,0.028877336531877518,-0.026983462274074554,-0.21047019958496094
1761507119946784500,7.310784423828125,0.02153216302394867,0.0029505188576877117,-0.23893296718597412
1761507119956755500,7.32075537109375,0.011878469958901405,0.0403817817568779,-0.26157036423683167
1761507119966727400,7.3307275390625,0.007230410352349281,0.08991216123104095,-0.28253012895584106
1761507119976699400,7.340699462890625,0.008055191487073898,0.1322481632232666,-0.29636046290397644
1761507119986670600,7.350670654296875,0.02183297462761402,0.1518290489912033,-0.2958478629589081
1761507119996642600,7.360642578125,0.04448661953210831,0.14284540712833405,-0.28270408511161804
1761507120006613500,7.370613525390625,0.06105896830558777,0.10047580301761627,-0.2534191310405731
1761507120016585500,7.38058544921875,0.07728321105241776,0.05137084424495697,-0.21105967462062836
1761507120026556400,7.390556396484375,0.09416370838880539,0.013293658383190632,-0.17053766548633575
1761507120036528600,7.400528564453125,0.12261691689491272,-0.02664283849298954,-0.14610768854618073
1761507120046500400,7.410500244140625,0.13787871599197388,-0.05913807824254036,-0.1444486379623413
1761507120056471600,7.420471435546875,0.14937585592269897,-0.0766129419207573,-0.15161067247390747
1761507120066443500,7.430443603515625,0.14858949184417725,-0.08327358216047287,-0.1599334478378296
1761507120076414500,7.44041455078125,0.1360824853181839,-0.07966286689043045,-0.16656339168548584
1761507120086386400,7.450386474609375,0.11952513456344604,-0.06836895644664764,-0.1647086888551712
1761507120096357600,7.460357666015625,0.11161874234676361,-0.0627313107252121,-0.1569003015756607
1761507120106329300,7.470329345703125,0.1024635061621666,-0.06193671375513077,-0.13782060146331787
1761507120116300500,7.480300537109375,0.09529853612184525,-0.06622067093849182,-0.1034514382481575
1761507120126272500,7.4902724609375,0.09462634474039078,-0.07892144471406937,-0.06932742148637772
1761507120136244500,7.500244384765625,0.0891207903623581,-0.09962192922830582,-0.048291370272636414
1761507120146215400,7.51021533203125,0.07635871320962906,-0.10502810031175613,-0.026871291920542717
1761507120156187600,7.520187744140625,0.06641340255737305,-0.09878112375736237,-0.01349822897464037
1761507120166158300,7.530158447265625,0.05186174809932709,-0.10631903260946274,-0.006639042869210243
1761507120176130600,7.540130615234375,0.03598051890730858,-0.125981405377388,0.008164403960108757
1761507120186101500,7.5501015625,0.012162799015641212,-0.14206571877002716,0.022720320150256157
1761507120196073500,7.560073486328125,-0.00626520998775959,-0.17106781899929047,0.030466126278042793
1761507120206045700,7.570045654296875,-0.031353700906038284,-0.1826300323009491,0.03240189328789711
1761507120216016600,7.5800166015625,-0.05454583838582039,-0.1645628809928894,0.02181955613195896
1761507120225988600,7.589988525390625,-0.0792313739657402,-0.12784963846206665,0.005737404339015484
1761507120235959600,7.59995947265625,-0.10574127733707428,-0.0841841772198677,-0.01567494310438633
1761507120245931500,7.609931640625,-0.12859439849853516,-0.032639116048812866,-0.024678947404026985
1761507120255902500,7.61990234375,-0.14960621297359467,0.016169968992471695,-0.008750581182539463
1761507120265874700,7.629874755859375,-0.17082907259464264,0.033982954919338226,0.03659900650382042
1761507120275846400,7.639846435546875,-0.1867406666278839,0.03411877527832985,0.09446949511766434
1761507120285817600,7.649817626953125,-0.1935155689716339,0.03193657472729683,0.1502152532339096
1761507120295789600,7.65978955078125,-0.2032579481601715,0.006302317604422569,0.16441522538661957
1761507120305760500,7.669760498046875,-0.22470924258232117,-0.09171012043952942,0.09651986509561539
1761507120315732500,7.679732421875,-0.26208433508872986,-0.16376513242721558,-0.025489134714007378
1761507120325703700,7.68970361328125,-0.30907660722732544,-0.19415508210659027,-0.16193561255931854
1761507120335675400,7.69967529296875,-0.35446351766586304,-0.17840887606143951,-0.2560533285140991
1761507120345647600,7.709647705078125,-0.39875805377960205,-0.08477753400802612,-0.3012055456638336
1761507120355618600,7.71961865234375,-0.4319181442260742,0.07881485670804977,-0.2845642566680908
1761507120365590500,7.729590576171875,-0.4324602484703064,0.2683934271335602,-0.19957375526428223
1761507120375561500,7.7395615234375,-0.412839412689209,0.4375499486923218,-0.06701891124248505
1761507120385533700,7.74953369140625,-0.37433451414108276,0.505803644657135,0.05791084095835686
1761507120395504400,7.75950439453125,-0.3313121795654297,0.4916337728500366,0.1501254439353943
1761507120405476600,7.7694765625,-0.2813538908958435,0.4185366928577423,0.2085227370262146
1761507120415448300,7.7794482421875,-0.23305587470531464,0.2901454269886017,0.21750478446483612
1761507120425419500,7.78941943359375,-0.19421593844890594,0.13459596037864685,0.18172675371170044
1761507120435391500,7.7993916015625,-0.1722528487443924,-0.01100598182529211,0.11339562386274338
1761507120445362700,7.80936279296875,-0.17716442048549652,-0.10667428374290466,0.038620106875896454
1761507120455334400,7.81933447265625,-0.18942216038703918,-0.14158140122890472,-0.027807651087641716
1761507120465305600,7.8293056640625,-0.20470133423805237,-0.11441998928785324,-0.08239198476076126
1761507120475277300,7.83927734375,-0.21970266103744507,-0.059992965310811996,-0.1261003166437149
1761507120485248500,7.84924853515625,-0.23400840163230896,-0.002730858512222767,-0.1468861997127533
1761507120495220500,7.859220458984375,-0.23868463933467865,0.03718753159046173,-0.13776567578315735
1761507120505192400,7.8691923828125,-0.24821136891841888,0.04622788727283478,-0.10865018516778946
1761507120515163400,7.879163330078125,-0.26136261224746704,0.026284538209438324,-0.05987892299890518
1761507120525135600,7.889135498046875,-0.275590717792511,0.005298531148582697,-0.0035596410743892193
1761507120535106600,7.8991064453125,-0.2904303967952728,0.014668330550193787,0.01748439110815525
1761507120545078500,7.90907861328125,-0.2955605983734131,-0.0038223196752369404,0.0274120531976223
1761507120555050500,7.919050537109375,-0.2931176424026489,-0.004534981679171324,0.048572998493909836
1761507120565021400,7.929021484375,-0.3004818856716156,0.007852061651647091,0.07068904489278793
1761507120574993700,7.93899365234375,-0.30530619621276855,0.022237660363316536,0.1167963519692421
1761507120584964600,7.948964599609375,-0.3038097023963928,0.048595234751701355,0.17472092807292938
1761507120594936600,7.9589365234375,-0.30333006381988525,0.07002649456262589,0.21945351362228394
1761507120604907500,7.968907470703125,-0.29597723484039307,0.07480745762586594,0.24523060023784637
1761507120614879500,7.97887939453125,-0.2893022894859314,0.062886081635952,0.25913387537002563
1761507120624850400,7.988850341796875,-0.28576719760894775,0.043223317712545395,0.25988131761550903
1761507120634822700,7.99882275390625,-0.2924618422985077,0.02121628448367119,0.24773141741752625
1761507120644793600,8.008793701171875,-0.3010390102863312,0.010863637551665306,0.2239040583372116
1761507120654765600,8.018765625,-0.3126770257949829,0.00835360772907734,0.1909133493900299
1761507120664736500,8.028736572265625,-0.3218587040901184,0.022068677470088005,0.14872336387634277
1761507120674708500,8.03870849609375,-0.32606780529022217,0.04401738569140434,0.10701505839824677
1761507120684679400,8.048679443359376,-0.32566037774086,0.06787531077861786,0.07429356873035431
1761507120694651600,8.058651611328125,-0.3194701373577118,0.08007524907588959,0.0592443123459816
1761507120704623400,8.068623291015625,-0.30563029646873474,0.07626638561487198,0.06552132219076157
1761507120714594600,8.078594482421876,-0.2890329360961914,0.06591867655515671,0.08402256667613983
1761507120724566500,8.08856640625,-0.2604651153087616,0.0435485914349556,0.09587433189153671
1761507120734537700,8.098537841796874,-0.23298129439353943,0.016712449491024017,0.09556034207344055
1761507120744509400,8.108509521484375,-0.20706523954868317,-0.003345941426232457,0.07295466959476471
1761507120754480600,8.118480712890625,-0.19314517080783844,-0.016382914036512375,0.027377860620617867
1761507120764452400,8.128452392578126,-0.18167263269424438,-0.02012474648654461,-0.022881336510181427
1761507120774424600,8.138424560546875,-0.16592589020729065,-0.027911562472581863,-0.06501973420381546
1761507120784395500,8.1483955078125,-0.14790527522563934,-0.03829045966267586,-0.09682655334472656
1761507120794367500,8.158367431640626,-0.1265118420124054,-0.06736605614423752,-0.113493412733078
1761507120804338400,8.16833837890625,-0.09144498407840729,-0.09723690897226334,-0.1304018348455429
1761507120814310700,8.178310546875,-0.0593339204788208,-0.1251702755689621,-0.1385529637336731
1761507120824281300,8.18828125,-0.026782549917697906,-0.1320546567440033,-0.1401647925376892
1761507120834253600,8.198253662109375,-0.010781743563711643,-0.07644279301166534,-0.14181995391845703
1761507120844225500,8.2082255859375,-0.017920080572366714,-0.009289850480854511,-0.16459237039089203
1761507120854196500,8.218196533203125,-0.026061099022626877,0.09061543643474579,-0.192648783326149
1761507120864168700,8.228168701171874,-0.038250427693128586,0.17544111609458923,-0.21348059177398682
1761507120874139600,8.2381396484375,-0.03332890570163727,0.23215793073177338,-0.20129822194576263
1761507120884111600,8.248111572265625,-0.02604454569518566,0.24689427018165588,-0.1725432127714157
1761507120894082600,8.25808251953125,-0.013662446290254593,0.21461275219917297,-0.12852542102336884
1761507120904054500,8.268054443359375,0.00551525829359889,0.13362357020378113,-0.07623361796140671
1761507120914026500,8.278026611328125,0.03537755087018013,0.020347604528069496,-0.01225889753550291
1761507120923997700,8.287997802734376,0.07326757907867432,-0.11027452349662781,0.05518389493227005
1761507120933969400,8.297969482421875,0.10475333034992218,-0.2231169193983078,0.11143038421869278
1761507120943940600,8.307940673828124,0.11500994861125946,-0.2854427993297577,0.13986565172672272
1761507120953912600,8.31791259765625,0.1042688861489296,-0.29028257727622986,0.13631246984004974
1761507120963883500,8.327883544921875,0.08725406229496002,-0.25976529717445374,0.10469168424606323
1761507120973855500,8.33785546875,0.07400323450565338,-0.21601219475269318,0.05617209151387215
1761507120983826700,8.34782666015625,0.05524764955043793,-0.17409823834896088,0.005104810930788517
1761507120993798700,8.357798583984374,0.029107920825481415,-0.11935961991548538,-0.051028765738010406
1761507121003770600,8.3677705078125,0.012043108232319355,-0.07664716988801956,-0.09365738928318024
1761507121013741800,8.377741943359375,0.01074694748967886,-0.052770067006349564,-0.12516552209854126
1761507121023713500,8.387713623046874,0.016001446172595024,-0.03730534762144089,-0.14229518175125122
1761507121033684700,8.397684814453125,0.026290835812687874,-0.03040110133588314,-0.13946397602558136
1761507121043657500,8.407657470703125,0.043374910950660706,-0.028195563703775406,-0.11732220649719238
1761507121053629700,8.417629638671874,0.05585741251707077,-0.01954721473157406,-0.07137522101402283
1761507121063600600,8.4276005859375,0.07251199334859848,-0.005262782331556082,-0.009102036245167255
1761507121073572600,8.437572509765625,0.09429319202899933,0.022307060658931732,0.04764646291732788
1761507121083544800,8.447544921875,0.13658730685710907,0.04207786172628403,0.08290074020624161
1761507121093515500,8.457515625,0.17036257684230804,0.05557635799050331,0.09388840943574905
1761507121103487700,8.46748779296875,0.20072171092033386,0.051590390503406525,0.0882733166217804
1761507121113458700,8.477458740234376,0.21759523451328278,0.030811075121164322,0.0662391185760498
1761507121123430700,8.4874306640625,0.22063754498958588,0.022342592477798462,0.03735269233584404
1761507121133401600,8.497401611328126,0.22421495616436005,0.021640049293637276,0.01616830937564373
1761507121143373800,8.507373779296875,0.24220195412635803,0.02172420546412468,0.020757202059030533
1761507121153345500,8.517345458984375,0.26169469952583313,0.030479613691568375,0.049902305006980896
1761507121163316700,8.527316650390626,0.28525179624557495,0.03437591344118118,0.11291032284498215
1761507121173288700,8.537288818359375,0.31103652715682983,0.021863851696252823,0.1851581484079361
1761507121183259600,8.547259765625,0.336946576833725,0.008618945255875587,0.24906106293201447
1761507121193231600,8.557231689453126,0.3498125970363617,-0.012223752215504646,0.27146169543266296
1761507121203202800,8.567202880859375,0.3504146337509155,-0.0833229050040245,0.24385255575180054
1761507121213174500,8.577174560546876,0.3354111909866333,-0.16946443915367126,0.1656094193458557
1761507121223145700,8.587145751953125,0.3055855333805084,-0.23124386370182037,0.09309910237789154
1761507121233117700,8.59711767578125,0.27208003401756287,-0.2486465573310852,0.031518563628196716
1761507121243089700,8.607089599609376,0.2428680956363678,-0.24630936980247498,0.017502879723906517
1761507121253060600,8.617060546875,0.21957075595855713,-0.2038029134273529,0.07817128300666809
1761507121263032600,8.627032470703124,0.2116139531135559,-0.11774329841136932,0.18006549775600433
1761507121273003500,8.63700341796875,0.2190697342157364,-0.013682140968739986,0.3025200664997101
1761507121282975700,8.646975830078125,0.23681846261024475,0.07366719841957092,0.4218001365661621
1761507121292946700,8.65694677734375,0.251703679561615,0.1367952972650528,0.5077968239784241
1761507121302918700,8.666918701171875,0.2597636878490448,0.17062629759311676,0.5536019802093506
1761507121312890600,8.676890625,0.25506505370140076,0.17466045916080475,0.551770806312561
1761507121322861600,8.686861572265625,0.2399638295173645,0.1491565704345703,0.5096529722213745
1761507121332833500,8.69683349609375,0.2232583463191986,0.09630241990089417,0.4334415793418884
1761507121342804700,8.7068046875,0.19864267110824585,0.04231917858123779,0.3425314724445343
1761507121352776400,8.7167763671875,0.17228803038597107,0.006958524696528912,0.26483988761901855
1761507121362747600,8.72674755859375,0.14703477919101715,0.002660930622369051,0.19899369776248932
1761507121372719600,8.7367197265625,0.12989814579486847,0.01985056884586811,0.14410914480686188
1761507121382691600,8.746691650390625,0.11498359590768814,0.05050461366772652,0.08138447999954224
1761507121392662500,8.75666259765625,0.11210206151008606,0.0846220999956131,0.01938076876103878
1761507121402634500,8.766634521484375,0.10619539022445679,0.11084933578968048,-0.03822357952594757
1761507121412605400,8.77660546875,0.10358869284391403,0.12595637142658234,-0.08891338855028152
1761507121422577700,8.78657763671875,0.09406207501888275,0.12141729146242142,-0.12414378672838211
1761507121432548600,8.796548583984375,0.08998770266771317,0.1264035403728485,-0.15112081170082092
1761507121442520600,8.8065205078125,0.09213163703680038,0.1305835247039795,-0.1560962051153183
1761507121452492800,8.816492919921876,0.10143938660621643,0.14600801467895508,-0.15401442348957062
1761507121462463700,8.826463623046875,0.1217963844537735,0.15926015377044678,-0.13476739823818207
1761507121472435700,8.836435791015624,0.1445871740579605,0.16551698744297028,-0.11490128934383392
1761507121482406700,8.84640673828125,0.1675015687942505,0.19477587938308716,-0.08284112066030502
1761507121492378600,8.856378662109375,0.19435901939868927,0.22602620720863342,-0.037800949066877365
1761507121502349600,8.866349609375,0.21720117330551147,0.24719631671905518,0.0006714576156809926
1761507121512321800,8.87632177734375,0.23148956894874573,0.25672590732574463,0.03369652107357979
1761507121522293500,8.88629345703125,0.24219456315040588,0.24434562027454376,0.06079304590821266
1761507121532264700,8.8962646484375,0.25056514143943787,0.2128787636756897,0.0792495459318161
1761507121542236700,8.906236572265625,0.25533902645111084,0.17753338813781738,0.0878087654709816
1761507121552207600,8.91620751953125,0.25679150223731995,0.1423218697309494,0.09064210206270218
1761507121562179600,8.9261796875,0.2632909417152405,0.10709886997938156,0.09223469346761703
1761507121572150800,8.93615087890625,0.2661234736442566,0.06907106190919876,0.0800749659538269
1761507121582122500,8.94612255859375,0.2657698094844818,0.0305288378149271,0.06564237177371979
1761507121592094700,8.9560947265625,0.26054760813713074,-0.0037564318627119064,0.056191083043813705
1761507121602065700,8.966065673828124,0.2550605833530426,-0.038288213312625885,0.04556698352098465
1761507121612037600,8.97603759765625,0.23777985572814941,-0.07639805227518082,0.028621558099985123
1761507121622008600,8.986008544921875,0.2179270088672638,-0.10942330956459045,0.011135640554130077
1761507121631980500,8.99598046875,0.1950179636478424,-0.1341014802455902,-0.009942480362951756
1761507121641951500,9.005951416015625,0.17019185423851013,-0.1441657394170761,-0.034876272082328796
1761507121651923700,9.015923828125,0.14678959548473358,-0.14377212524414062,-0.05667078495025635
1761507121661895400,9.0258955078125,0.12245441973209381,-0.1354457587003708,-0.0765153244137764
1761507121671866600,9.03586669921875,0.09940316528081894,-0.11220888048410416,-0.09376701712608337
1761507121681838600,9.045838623046874,0.07483680546283722,-0.07892677932977676,-0.09886383265256882
1761507121691809500,9.0558095703125,0.04829840734601021,-0.050737492740154266,-0.11098947376012802
1761507121701781500,9.065781494140625,0.020998375490307808,-0.03352445363998413,-0.12801873683929443
1761507121711752700,9.075752685546876,-0.0028856531716883183,-0.011749914847314358,-0.1531967967748642
1761507121721724400,9.085724365234375,-0.016737565398216248,0.02023594081401825,-0.17835165560245514
1761507121731696600,9.095696533203125,-0.02366098389029503,0.05948667228221893,-0.1888628900051117
1761507121741667600,9.10566748046875,-0.01946837082505226,0.10986462980508804,-0.1930568367242813
1761507121751639600,9.1156396484375,0.004010057542473078,0.13964569568634033,-0.18905383348464966
1761507121761610500,9.125610595703124,0.028866231441497803,0.15619808435440063,-0.1735382229089737
1761507121771582700,9.135582763671875,0.05133505538105965,0.14866426587104797,-0.14378830790519714
1761507121781553400,9.145553466796875,0.06331653147935867,0.1185365617275238,-0.11637312173843384
1761507121791525600,9.155525634765626,0.07314173132181168,0.07655129581689835,-0.10375240445137024
1761507121801497600,9.16549755859375,0.08507926762104034,0.055376604199409485,-0.1130312979221344
1761507121811468500,9.175468505859374,0.10711771994829178,0.04504860192537308,-0.11309335380792618
1761507121821440800,9.185440673828126,0.12842108309268951,0.03340240195393562,-0.0983254611492157
1761507121831411700,9.19541162109375,0.14614202082157135,0.013783157803118229,-0.07900236546993256
1761507121841383700,9.2053837890625,0.16395868360996246,-0.005691761150956154,-0.05686043202877045
1761507121851354600,9.215354736328125,0.17687846720218658,-0.0252849031239748,-0.0364406444132328
1761507121861326600,9.22532666015625,0.18344351649284363,-0.039393141865730286,-0.02261171117424965
1761507121871297500,9.235297607421876,0.18582651019096375,-0.04778609424829483,-0.010391530580818653
1761507121881269800,9.245269775390625,0.18133491277694702,-0.05949447676539421,-0.006491964682936668
1761507121891241500,9.255241455078124,0.17420031130313873,-0.0667760968208313,-0.007294641807675362
1761507121901212700,9.265212646484375,0.1606619954109192,-0.07707817107439041,-0.01769023947417736
1761507121911184600,9.2751845703125,0.1396949291229248,-0.08925067633390427,-0.026430999860167503
1761507121921155600,9.285155517578126,0.11888247728347778,-0.09031941741704941,-0.030291613191366196
1761507121931127600,9.29512744140625,0.10063769668340683,-0.08610523492097855,-0.03953437879681587
1761507121941098800,9.3050986328125,0.08213784545660019,-0.08158428221940994,-0.05160587280988693
1761507121951070500,9.315070556640626,0.06405206024646759,-0.06610199809074402,-0.06135091185569763
1761507121961042700,9.325042724609375,0.04685043543577194,-0.05159187316894531,-0.061116162687540054
1761507121971013600,9.335013671875,0.023461759090423584,-0.044615454971790314,-0.04049157723784447
1761507121980985600,9.344985595703125,0.0021562837064266205,-0.027501175180077553,-0.006674432661384344
1761507121990957300,9.354957275390625,-0.01926032453775406,-0.02097989246249199,0.02744412235915661
1761507122000929300,9.36492919921875,-0.03238504007458687,-0.016253484413027763,0.05615571513772011
1761507122010900200,9.374900146484375,-0.047591157257556915,-0.023680241778492928,0.06373826414346695
1761507122020872400,9.38487255859375,-0.06939908862113953,-0.034134190529584885,0.051128849387168884
1761507122030844400,9.394844482421876,-0.09251479804515839,-0.028704006224870682,0.031281109899282455
1761507122040815400,9.4048154296875,-0.12119372934103012,-0.013863297179341316,0.015212275087833405
1761507122050787300,9.414787353515624,-0.14730097353458405,0.011880948208272457,0.009750397875905037
1761507122060758300,9.42475830078125,-0.1694841831922531,0.04544706642627716,0.03155098110437393
1761507122070730500,9.43473046875,-0.18211235105991364,0.0840703621506691,0.07846469432115555
1761507122080701400,9.444701416015626,-0.189549520611763,0.11579039692878723,0.1275329738855362
1761507122090673400,9.45467333984375,-0.1948785036802292,0.10473348200321198,0.15546686947345734
1761507122100645400,9.464645263671875,-0.20990410447120667,0.0260835662484169,0.1294257789850235
1761507122110616300,9.4746162109375,-0.23176120221614838,-0.05792611464858055,0.07606268674135208
1761507122120588300,9.48458837890625,-0.2557776868343353,-0.09900882095098495,0.009955432265996933
1761507122130559500,9.4945595703125,-0.28974470496177673,-0.07971475273370743,-0.06159598380327225
1761507122140531200,9.50453125,-0.32373225688934326,0.00446122232824564,-0.11105047911405563
1761507122150502400,9.51450244140625,-0.3417682349681854,0.11913134157657623,-0.14203554391860962
1761507122160474400,9.524474365234376,-0.3454466760158539,0.22100412845611572,-0.1519223153591156
1761507122170446300,9.5344462890625,-0.34827470779418945,0.28377723693847656,-0.13283836841583252
1761507122180417300,9.544417236328124,-0.3397082984447479,0.29886576533317566,-0.09675446152687073
1761507122190389500,9.554389404296876,-0.3125493824481964,0.26998192071914673,-0.05294999107718468
1761507122200360200,9.564360107421875,-0.2754991948604584,0.21373052895069122,-0.01428766455501318
1761507122210332400,9.57433251953125,-0.23168139159679413,0.13438616693019867,0.019619170576334
1761507122220303400,9.584303466796875,-0.1995883584022522,0.05988851189613342,0.06401549279689789
1761507122230275300,9.594275390625,-0.17651312053203583,-0.00538716372102499,0.0989612266421318
1761507122240247600,9.60424755859375,-0.17601296305656433,-0.0273848008364439,0.1312093585729599
1761507122250218500,9.614218505859375,-0.17538632452487946,-0.01110250037163496,0.15289148688316345
1761507122260190500,9.6241904296875,-0.17495226860046387,0.02628914639353752,0.16368301212787628
1761507122270161400,9.634161376953125,-0.18079791963100433,0.07518424838781357,0.16835686564445496
1761507122280133400,9.64413330078125,-0.19870664179325104,0.09120582789182663,0.22903776168823242
1761507122290104300,9.654104248046876,-0.16168631613254547,-0.1616394817829132,0.5119749307632446
1761507122300076500,9.66407666015625,-0.28960713744163513,-0.3561437726020813,0.3857745826244354
1761507122310047500,9.674047607421874,-0.31412473320961,-0.20080292224884033,0.25278884172439575
1761507122320019500,9.68401953125,-0.2402830719947815,-0.002209186088293791,0.05894714593887329
1761507122329991400,9.693991455078125,-0.1805129498243332,0.2678164541721344,-0.12643682956695557
