time,seconds_elapsed,z,y,x
1761469053471539200,0.064539306640625,0.015995441511273384,-0.41045302450358867,0.03905168825425207
1761469053481494500,0.07449462890625,-0.27359540733993054,-0.25471593482494354,0.1054941087918356
1761469053491450400,0.084450439453125,-0.4220791648894548,-0.021293401788920162,0.21399587496705352
1761469053501405400,0.094405517578125,-0.5312888966709375,0.14423282210677862,0.3982632954182103
1761469053511360500,0.104360595703125,-0.5433300475984811,0.21066461165249348,0.5446465735571459
1761469053521316400,0.11431640625,-0.502397148707509,0.1938166449651122,0.6477312831196934
1761469053531271400,0.124271484375,-0.6437076536267995,0.2397799392387271,0.7649765103839338
1761469053541226500,0.1342265625,-0.7910866648048162,0.3175534992709756,0.7419606687165796
1761469053551182300,0.144182373046875,-0.8874871838957071,0.4466556800022721,0.604066621177271
1761469053561137400,0.154137451171875,-0.8966606704324483,0.5412326369278132,0.527678451088816
1761469053571092500,0.164092529296875,-0.7342524324268103,0.5977787000142037,0.5001459357146173
1761469053581048300,0.17404833984375,-0.4108446541696787,0.6466169652022421,0.4398685040801763
1761469053591003400,0.18400341796875,0.0008691840499639511,0.6350798182740807,0.3769758119134232
1761469053600958500,0.19395849609375,0.22184651540219782,0.5347415213428437,0.32538711550608274
1761469053610914600,0.20391455078125,0.3044020490139723,0.4057197123713791,0.15679901982173322
1761469053620869400,0.213869384765625,0.46858606452047824,0.34472339187785983,0.0018660496002063155
1761469053630824400,0.223824462890625,0.5668874487966299,0.3068431585557759,-0.10097597378026693
1761469053640780500,0.233780517578125,0.6544172636896372,0.26516762460395693,-0.18132099173571914
1761469053650735400,0.2437353515625,0.760254888689518,0.26201369061768054,-0.24969799706507473
1761469053660690400,0.2536904296875,0.9176531895786523,0.30071912271752954,-0.2799305286455899
1761469053670646500,0.263646484375,1.009522494980693,0.3646209553942084,-0.2537117992836982
1761469053680601300,0.273601318359375,1.001124084469676,0.37743499039039013,-0.20855938300155102
1761469053690556200,0.28355615234375,0.8639496564418077,0.3392598657749593,-0.20042331322114915
1761469053700512500,0.293512451171875,0.7461673266261816,0.29082375164702534,-0.2919400423258543
1761469053710467300,0.30346728515625,0.6074503453314304,0.2383199496887624,-0.378530092150718
1761469053720423400,0.31342333984375,0.5225117159754038,0.17222133762016892,-0.42086427267435933
1761469053730378500,0.32337841796875,0.5416226591587067,0.10756897883713244,-0.4395960438143462
1761469053740333300,0.333333251953125,0.6003665245503187,0.026506460262089967,-0.45282413950413464
1761469053750288100,0.3432880859375,0.6284259133428335,-0.07188026420995593,-0.44223830195143815
1761469053760244500,0.353244384765625,0.5663327375233173,-0.13913944449052215,-0.4448560101691633
1761469053770199300,0.36319921875,0.4563970295548439,-0.19508578811809418,-0.4647797310400754
1761469053780154400,0.373154296875,0.2680015328556299,-0.2571880240269005,-0.5304946775533259
1761469053790110500,0.3831103515625,0.08626549404561519,-0.29601547507122156,-0.5557346250109374
1761469053800065300,0.393065185546875,-0.037027123624086375,-0.29211759084984656,-0.5670216696355491
1761469053810020400,0.403020263671875,-0.08330313710868358,-0.3122771663032472,-0.577037525280565
1761469053819976400,0.4129765625,-0.08152852865159511,-0.2973684971153736,-0.5458764806782826
1761469053829931300,0.42293115234375,-0.05662088188827037,-0.2858671521529555,-0.5303326553920283
1761469053839887400,0.432887451171875,-0.015802549287676812,-0.28355069190412757,-0.5224204940279945
1761469053849842400,0.442842529296875,0.021845921105146406,-0.2958130843669176,-0.498979266555421
1761469053859797500,0.452797607421875,0.0005769231051206588,-0.25237024848163125,-0.4368378676800057
1761469053869753300,0.46275341796875,-0.1301765319645405,-0.21989567359536885,-0.3397533849129453
1761469053879708400,0.47270849609375,-0.23976328036487102,-0.1956266169965267,-0.2927125245356932
1761469053889663500,0.48266357421875,-0.29979660104513167,-0.10474763780608773,-0.24843119199965147
1761469053899619300,0.492619384765625,-0.293937938144803,-0.05087590849548578,-0.20805190840344875
1761469053909574100,0.50257421875,-0.20822949346005915,-0.08872589280977845,-0.19046368127539753
1761469053919529500,0.512529541015625,-0.09395897115767002,-0.063968760433048,-0.14890220215730368
1761469053929485300,0.5224853515625,0.04850654901564121,-0.17612199832051992,-0.14495521809719503
1761469053939440000,0.532440185546875,0.1567231781065464,-0.2595185128010809,-0.18770696644578128
1761469053949395500,0.5423955078125,0.23652327553033828,-0.3294336144179106,-0.2409311551004648
1761469053959351300,0.552351318359375,0.3316933760434389,-0.3462329196579754,-0.2839299004800617
1761469053969306400,0.562306396484375,0.3661152856051922,-0.3437237133160233,-0.25811463735252616
1761469053979261400,0.572261474609375,0.33930735817849633,-0.3433095795571804,-0.2464262453854084
1761469053989217300,0.58221728515625,0.17037527136206626,-0.3178587658278644,-0.1889627021279186
1761469053999172400,0.59217236328125,-0.03148527158796787,-0.2597811092600226,-0.09831398802939802
1761469054009127400,0.60212744140625,-0.15252046571969985,-0.14831950689852236,-0.01906524087805301
1761469054019083300,0.612083251953125,-0.20231179384887218,-0.09124474376291036,0.0972674015859142
1761469054029038300,0.622038330078125,-0.19690496636927127,-0.04436988760232925,0.19812727470584213
1761469054038993400,0.631993408203125,-0.17673837665319442,-0.003196604084223509,0.23521968211848288
1761469054048949200,0.64194921875,-0.1254091714322567,-0.027885201269388198,0.20028025148864834
1761469054058904300,0.651904296875,0.005060205999016762,-0.10561682185605167,0.12962364732213316
1761469054068859400,0.661859375,0.07177870353162288,-0.20979367403686044,0.022121705839224157
1761469054078815500,0.6718154296875,0.04965162739753723,-0.3319070187941193,-0.0903004851827398
1761469054088770300,0.681770263671875,-0.02983750438094139,-0.40316096779927607,-0.15453209780305624
1761469054098725400,0.691725341796875,-0.12594810061454773,-0.39099692114442586,-0.1894373339023441
1761469054108681500,0.701681396484375,-0.19744740268290042,-0.3540431550174951,-0.22346428932975976
1761469054118636300,0.71163623046875,-0.24174948574602603,-0.3312275120973587,-0.2363371783737093
1761469054128591400,0.72159130859375,-0.2519371177613735,-0.292006823951751,-0.2313178889069706
1761469054138547500,0.73154736328125,-0.28818215109705925,-0.22718612286448478,-0.21848050956781953
1761469054148502300,0.741502197265625,-0.3471738537698984,-0.17039456058442592,-0.22841990244314073
1761469054158457300,0.751457275390625,-0.3824351367652416,-0.1557246685884893,-0.25881452925018966
1761469054168413400,0.761413330078125,-0.3453513145178556,-0.13800006519705058,-0.2702158479042351
1761469054178368300,0.7713681640625,-0.2802197939157486,-0.15285729645863175,-0.27497590191289784
1761469054188323300,0.7813232421875,-0.26265900278389454,-0.198110250505805,-0.2588594643704593
1761469054198279400,0.791279541015625,-0.1732838522851467,-0.20726853947341442,-0.2527262953776866
1761469054208234200,0.801234130859375,-0.05810907461941242,-0.2063639918491244,-0.2820717419253662
1761469054218189600,0.811189453125,0.059146600973606106,-0.23243410652056334,-0.2731700580673292
1761469054228145400,0.8211455078125,0.12311433849334716,-0.25696020662039515,-0.2628816325586289
1761469054238100200,0.831100341796875,0.14481822077929973,-0.21757044551819563,-0.2619479319050908
1761469054248055600,0.8410556640625,0.16485621567964553,-0.1645947882644832,-0.2840342741699889
1761469054258011400,0.851011474609375,0.19021803595125675,-0.11975699088945985,-0.2335917155904695
1761469054267966200,0.86096630859375,0.20915245352387427,-0.11936579961478709,-0.14176025798078626
1761469054277921500,0.870921630859375,0.17004677006006239,-0.10959040166214108,-0.16157259089909493
1761469054287877400,0.88087744140625,0.006484101322293281,-0.1253100949719548,-0.20092779214456677
1761469054297832200,0.890832275390625,-0.18536942687630653,-0.1034141972452402,-0.26403748806286603
1761469054307787500,0.90078759765625,-0.28781974752545353,-0.0716930710747838,-0.29253735063187775
1761469054317743400,0.910743408203125,-0.25426176131665706,-0.05636150029972195,-0.3160000958165154
1761469054327698400,0.920698486328125,-0.0540840568870306,-0.09556918283328414,-0.30142069511562586
1761469054337653500,0.930653564453125,0.14630758255422113,-0.10846446637213229,-0.23337339666467158
1761469054347609300,0.940609375,0.28041268613934517,-0.11329466300755739,-0.16777802141048012
1761469054357564400,0.950564453125,0.39339083054363727,-0.09412000693827867,-0.08541084997765719
1761469054367519500,0.96051953125,0.3968085300326347,-0.08698504049181938,-0.017894699261337518
1761469054377475300,0.970475341796875,0.2271504670292139,-0.05839490582346916,-0.01909738958198577
1761469054387430400,0.980430419921875,0.03962123177051544,-0.01261018298715353,-0.03140256174057722
1761469054397385500,0.990385498046875,-0.045695583248138424,0.002434679801017046,-0.056934952806122596
1761469054407341300,1.00034130859375,-0.059039048945903776,-0.01772621082663536,-0.09124993139468134
1761469054417296400,1.01029638671875,-0.06045183835327625,-0.07211144261732697,-0.13897702047042548
1761469054427251500,1.02025146484375,-0.0670809011042118,-0.10368950705528258,-0.17693503173645586
1761469054437207600,1.03020751953125,-0.03777355807721615,-0.11545856304317711,-0.22396957197077572
1761469054447162400,1.040162353515625,0.011776362511515617,-0.12124196875020861,-0.24807211289629338
1761469054457117400,1.050117431640625,0.057118310016393656,-0.1084448848888278,-0.2613770001493394
1761469054467073500,1.060073486328125,0.08208966966569423,-0.08086874956861138,-0.21017288261279463
1761469054477028400,1.0700283203125,0.04025777610838413,-0.04299026981219649,-0.142249868128635
1761469054486983400,1.0799833984375,-0.01256663610637188,0.0007065408341586589,-0.10360942755639553
1761469054496939500,1.089939453125,-0.05702303294837475,0.015545798047631978,-0.10218385173268615
1761469054506894300,1.099894287109375,-0.07608020011782646,0.05178235581591725,-0.12724931940622627
1761469054516849200,1.10984912109375,-0.003908113354444504,0.07693067946732043,-0.09177738933488726
1761469054526805500,1.119805419921875,0.10829670858979225,0.06511252364069223,-0.060764374901168046
1761469054536760300,1.12976025390625,0.2279080073982477,0.005571808782964945,-0.00355224912147969
1761469054546715100,1.139715087890625,0.2088847424983978,0.00912321765422821,0.047088060519844294
1761469054556671500,1.14967138671875,0.12817279092669487,0.018286328927427528,0.027629399877414106
1761469054566626300,1.159626220703125,0.061701546153426164,0.031166853288561103,0.04140764026325196
1761469054576581400,1.169581298828125,-0.0038087446331977843,0.028318770381063223,0.07099840334150939
1761469054586537500,1.179537353515625,-0.10140811811983584,0.09253215322494507,0.12189999426752328
1761469054596492300,1.1894921875,-0.09157470636963844,0.05060790520906448,0.10959646607674657
1761469054606447400,1.199447265625,-0.05256079284250736,0.07024009578749538,0.12069891138207167
1761469054616403500,1.209403564453125,-0.11500234370827674,0.14019742911085487,0.15203399737700818
1761469054626358300,1.219358154296875,-0.21363865902721882,0.040072628799825906,0.11422317602932452
1761469054636313300,1.229313232421875,-0.21377193001806735,-0.04797726444453001,0.06186002465076744
1761469054646269400,1.23926953125,-0.16594927161335943,-0.10347776400074363,-0.03433415821306407
1761469054656224300,1.249224365234375,-0.10557049849629402,-0.19926906515210865,-0.1014773108985275
1761469054666179300,1.259179443359375,-0.09079670773446559,-0.2482787413842976,-0.13398060042262078
1761469054676135400,1.269135498046875,-0.13945406339764593,-0.24304902403727172,-0.13311843063533305
1761469054686090500,1.279090576171875,-0.1564882003068924,-0.22095044334530828,-0.11047434488981961
1761469054696045300,1.28904541015625,-0.1973001031666994,-0.18144801564887164,-0.11405549131222069
1761469054706001400,1.29900146484375,-0.23046295257806776,-0.19334040575549005,-0.1340058809943497
1761469054715956500,1.30895654296875,-0.24116964003145694,-0.17279577650725841,-0.16432357010766863
1761469054725911300,1.318911376953125,-0.23513035986721514,-0.17510902188569305,-0.18895313058197497
1761469054735867100,1.3288671875,-0.23931378303170203,-0.1941008687339723,-0.18377426663935184
1761469054745822500,1.338822509765625,-0.24158231248557566,-0.1991546449922025,-0.18882650852762162
1761469054755777300,1.34877734375,-0.2036100169658661,-0.17656316621676085,-0.20539989605732262
1761469054765733000,1.358733154296875,-0.1411895088881254,-0.16764219313636422,-0.1661082615673542
1761469054775688400,1.3686884765625,-0.12338964830338954,-0.13525690396875142,-0.1266094871327281
1761469054785643300,1.378643310546875,-0.08490180447697639,-0.09878259192183614,-0.10366079241745173
1761469054795599400,1.388599365234375,0.015841712254285812,-0.057874681341648096,-0.04564714099653065
1761469054805554400,1.398554443359375,0.17030980491042136,-0.02068520676270127,-0.024922552071511745
1761469054815509200,1.40850927734375,0.197884625056386,-0.04122077592164278,-0.002036364665813744
1761469054825465300,1.41846533203125,0.18584815030395985,-0.04588803708031773,-0.004353811295330524
1761469054835420400,1.42842041015625,0.2013040781110525,-0.024390637151896953,0.016298698774166405
1761469054845375200,1.438375244140625,0.2775309932231903,0.005279109446704388,0.03444781118799001
1761469054855331300,1.448331298828125,0.2704278832197189,0.036070991943031545,0.07163418049439788
1761469054865286400,1.458286376953125,0.16587386828958986,0.049694005234539505,0.09779029294885694
1761469054875241200,1.4682412109375,0.0935199952185154,0.07638532054424285,0.07920165660660713
1761469054885197300,1.478197265625,0.0884784939199686,0.0954676221549511,0.04547459744121879
1761469054895152400,1.48815234375,0.06177753399908542,0.07047478132620454,0.00306132379937917
1761469054905107200,1.498107177734375,-0.1118716444671154,0.06823343214020132,-0.04938925013430416
1761469054915063300,1.508063232421875,-0.28210955318510533,0.09421703757196664,-0.0989147304015234
1761469054925018400,1.518018310546875,-0.32450726393163204,0.11185104007050395,-0.08387286328803747
1761469054934973200,1.52797314453125,-0.29866145953536033,0.1501066825762391,-0.07883797439336776
1761469054944929300,1.53792919921875,-0.2473620649307966,0.16982056008875368,-0.06957713836673647
1761469054954884400,1.54788427734375,-0.22839491413235663,0.16658742338642477,-0.05056855957936495
1761469054964839400,1.55783935546875,-0.17413959233164786,0.14771496513411403,-0.038960210578516126
1761469054974795300,1.567795166015625,-0.10121814850568771,0.11761150329336523,-0.07016505778990685
1761469054984750300,1.577750244140625,-0.07501695480048656,0.07723799185082315,-0.1163320214094594
1761469054994705400,1.587705322265625,-0.04636076915860176,0.06443491664007306,-0.1478890795920044
1761469055004661200,1.5976611328125,0.005064297652244568,0.050922816377133126,-0.20033417363297193
1761469055014616300,1.6076162109375,0.05519757108688354,0.043281653974205254,-0.2355364564500749
1761469055024571400,1.6175712890625,0.05631809954941273,0.040812195120751855,-0.26802316016554834
1761469055034527200,1.62752734375,0.09862754749059677,0.04605652551501989,-0.2786899539999664
1761469055044482600,1.637482666015625,0.11881693356037139,0.04599763493463397,-0.2650758546672761
1761469055054437400,1.647437255859375,0.11722352688908576,0.0037561376631259917,-0.2921721705812961
1761469055064393200,1.657393310546875,0.119705406832695,-0.0030493045680224894,-0.31074513443037866
1761469055074348500,1.6673486328125,0.18954232864677906,-0.008370207329839468,-0.321879545776546
1761469055084303400,1.677303466796875,0.2823398548096418,-0.0247143161483109,-0.31254480426348746
1761469055094260200,1.68726025390625,0.30217618965804577,-0.04424202343896031,-0.29048297538533807
1761469055104215000,1.697215087890625,0.2684977919399738,-0.011123889952152967,-0.26530484111756086
1761469055114170000,1.707170166015625,0.17691899391710758,-0.0026017069309949873,-0.2517090811591595
1761469055124126200,1.717126220703125,0.07938041070699692,0.03724047411382198,-0.22878720138557254
1761469055134081000,1.7270810546875,0.05618307499289512,0.05169117040112614,-0.22542817328125236
1761469055144036000,1.7370361328125,0.05095628025531768,0.055798751850426195,-0.2048038298603147
1761469055153992200,1.7469921875,0.010539514192938804,0.0727206605568528,-0.15904723713994026
1761469055163947000,1.756947021484375,-0.01964285810291767,0.09530965511426329,-0.12628178954832256
1761469055173902000,1.766902099609375,-0.05080722717344761,0.12707988112345336,-0.1374264300275594
1761469055183858200,1.776858154296875,-0.17452303869128227,0.12735913645625113,-0.1105113889645785
1761469055193813000,1.78681298828125,-0.2368880171895027,0.1314282855913043,-0.05201704135462641
1761469055203768300,1.796768310546875,-0.20219839660227298,0.16055968752950428,-0.04482515708915889
1761469055213724200,1.80672412109375,-0.12153379130363463,0.12507409425899385,-0.05857128530368209
1761469055223679000,1.816678955078125,-0.05246376220881939,0.05310644402652979,-0.01400572899878025
1761469055233634300,1.82663427734375,0.04727320782840252,0.040438393372297286,-0.02647482301481068
1761469055243590100,1.836590087890625,0.14293664481639862,0.018130407713353634,-0.051758098157495255
1761469055253545000,1.846544921875,0.18655659083426,-0.000002922609448432922,-0.05294307015836239
1761469055263500300,1.856500244140625,0.18069325175881384,0.005858516769856215,-0.013348945590481161
1761469055273456000,1.8664560546875,0.1907429366081953,0.026970716772973535,0.01224346856661141
1761469055283411200,1.8764111328125,0.18552140256762503,0.06016074645221233,0.02307663194388151
1761469055293366300,1.8863662109375,0.13515665846467018,0.04201046499460935,0.042387920004874464
1761469055303322000,1.896322021484375,0.0945043300807476,0.0145960961073637,0.055674760144576424
1761469055313277200,1.906277099609375,0.018655016109347344,-0.010606880340725183,0.07640512122325599
1761469055323232300,1.916232177734375,-0.03344341991841793,-0.11233794680461287,0.07979037974737584
1761469055333188000,1.92618798828125,-0.0354185193836689,-0.10683920325785874,0.10064232137911021
1761469055343143200,1.93614306640625,-0.08141688497066497,-0.05260565489754081,0.10432948545925319
1761469055353098200,1.94609814453125,-0.11449264062047004,-0.12121551913470029,0.10204663521908224
1761469055363054000,1.95605419921875,-0.19435294379889964,-0.08628624457269907,0.1134912084929645
1761469055373009200,1.966009033203125,-0.26104455332458015,-0.1023988827228546,0.11555734724253415
1761469055382964200,1.975964111328125,-0.32524200794696806,-0.1338537591725588,0.0895904006846249
1761469055392920300,1.98592041015625,-0.3652636372119188,-0.12673530546948314,0.03154635412544012
1761469055402875100,1.995875244140625,-0.338534035718441,-0.13056494676023722,-0.03116027741730213
1761469055412831000,2.0058310546875,-0.18246552212834358,-0.16857304424569008,-0.04254194152280688
1761469055422786300,2.015786376953125,-0.013873042529821395,-0.21060440589785576,-0.046035336596518754
1761469055432741000,2.0257412109375,0.09749065241515636,-0.22846929454281925,-0.05859919622391462
1761469055442697000,2.035697021484375,0.09260521846115588,-0.2175339129000902,-0.050768940989673134
1761469055452652300,2.04565234375,0.07304828507602214,-0.1988635530911386,-0.06535283520258962
1761469055462607000,2.055607177734375,0.04371463856399059,-0.17776055930778384,-0.061097515845671295
1761469055472563200,2.065563232421875,-0.0275888486713171,-0.14930954084917902,-0.07397029529176652
1761469055482518300,2.075518310546875,-0.05964636718928813,-0.14494579268172383,-0.07218845337629318
1761469055492473000,2.08547314453125,-0.13867255763113498,-0.15671996323615311,-0.12494191924668847
1761469055502429200,2.09542919921875,-0.23952187282443047,-0.1845813452385366,-0.17161716118194162
1761469055512384300,2.10538427734375,-0.30963702705800533,-0.17369930121824145,-0.2195019250374287
1761469055522339000,2.115339111328125,-0.36081834824085235,-0.13908946786895393,-0.22995054607652127
1761469055532295200,2.125295166015625,-0.33919337641000746,-0.11577888103872537,-0.2319395279366523
1761469055542250200,2.135250244140625,-0.30248540173768995,-0.09488076217770576,-0.27941278838180006
1761469055552205000,2.145205078125,-0.2296241636663675,-0.1050067271336913,-0.2646826175659895
1761469055562161200,2.1551611328125,-0.15356325277090072,-0.04610694052800536,-0.2362391248267144
1761469055572116200,2.1651162109375,-0.025074235501885412,-0.05393836480602622,-0.2072125715024769
1761469055582071000,2.175071044921875,0.1141764142781496,-0.06204816763401031,-0.22087818182669577
1761469055592027100,2.185027099609375,0.20235563299059867,-0.021139964792877435,-0.22422858823314307
1761469055601982200,2.194982177734375,0.21624971830844877,-0.023348142361640928,-0.23868447215221822
1761469055611937000,2.20493701171875,0.23962241058945655,-0.021323066274821757,-0.23218086241185665
1761469055621893000,2.21489306640625,0.23597850112915036,-0.022522066801041362,-0.20487302263900636
1761469055631848200,2.22484814453125,0.16079554211199282,-0.022952859433740376,-0.18112521343529223
1761469055641803300,2.23480322265625,0.10895546475946903,-0.017994798634946345,-0.20160408397093413
1761469055651759000,2.244759033203125,0.034732290685176845,-0.023651216961443424,-0.21267332112640142
1761469055661714200,2.254714111328125,0.004723521390557289,0.014449673373997211,-0.21950923156104982
1761469055671669200,2.264669189453125,0.0295101721227169,0.015617255848646164,-0.24073490187600255
1761469055681625000,2.274625,0.0591641366302967,0.03350011854171753,-0.22337913179695604
1761469055691580200,2.284580078125,0.07211655718386173,0.03727934481948614,-0.1976010588746518
1761469055701535200,2.29453515625,0.12197276724278926,0.036863749755918974,-0.20855412230454384
1761469055711491000,2.304490966796875,0.1658732837677002,0.017613105840981004,-0.20050321005694566
1761469055721446100,2.314446044921875,0.19126082300245761,-0.038070641327649354,-0.19285707921795545
1761469055731401200,2.324401123046875,0.21136603792011738,-0.08724179173186421,-0.20066709538176655
1761469055741357000,2.334357177734375,0.2244447152018547,-0.11269362837448715,-0.2323873447693884
1761469055751312100,2.34431201171875,0.21222119344472884,-0.1796877279780805,-0.2497153500586748
1761469055761267200,2.35426708984375,0.2053255887120962,-0.21048311760574578,-0.25272519939914345
1761469055771223000,2.36422314453125,0.2093827551484108,-0.23315087648779154,-0.25850809364952143
1761469055781178000,2.37417822265625,0.18607728288471698,-0.26318039630949497,-0.24410087117776275
1761469055791133200,2.38413330078125,0.1477647956252098,-0.26875395865812896,-0.215330338441208
1761469055801089000,2.394089111328125,0.18172025671899317,-0.24940964511036873,-0.15947057711854576
1761469055811044000,2.404044189453125,0.14587912800908087,-0.23343144699484109,-0.11402334260828792
1761469055820999200,2.413999267578125,0.05764028806388378,-0.2078713276721537,-0.06862425808869302
1761469055830955300,2.423955322265625,-0.07868424513638018,-0.1805963672555983,-0.046776948744058605
1761469055840910000,2.43391015625,-0.22468495369851588,-0.11833747948035597,0.010682210599258541
1761469055850865200,2.443865234375,-0.3411515247404575,-0.06802095843330025,0.051377282146364445
1761469055860821200,2.4538212890625,-0.31119243980646133,-0.03735577105656266,0.05334522121846676
1761469055870776000,2.463776123046875,-0.28156360974013805,-0.05785816859826445,0.04749159981943667
1761469055880732200,2.473732177734375,-0.2744458866894245,-0.08752265449985862,0.024277166840061544
1761469055890687200,2.483687255859375,-0.2664408594101667,-0.0856957313336432,0.0007444616917520761
1761469055900642000,2.49364208984375,-0.3194534876734018,-0.09032514469996095,-0.03794730720892548
1761469055910598100,2.50359814453125,-0.3883113353222608,-0.059727177340537306,-0.07717559413909912
1761469055920553200,2.51355322265625,-0.3873012814968824,-0.03421528107374906,-0.08836137034632265
1761469055930508000,2.523508056640625,-0.33031390438377856,0.0015540975742042065,-0.08454970310367643
1761469055940464400,2.53346435546875,-0.19567104066014288,0.0522390135422349,-0.0792439979109913
1761469055950419200,2.543419189453125,-0.02480418638885021,0.05377776741683483,-0.07270970077142119
1761469055960374000,2.5533740234375,0.12479542344808578,0.04229819589480757,-0.07282412093132734
1761469055970330000,2.563330078125,0.24874738180935382,0.044305444063991305,-0.09330766764208674
1761469055980285200,2.57328515625,0.36003684247434137,0.04474193578511476,-0.06913593393787741
1761469055990240000,2.583239990234375,0.4728115732610225,0.06639920245036482,-0.09990012470968067
1761469056000196000,2.593196044921875,0.44085693059563635,0.06027092882841825,-0.10672317566275596
1761469056010151200,2.603151123046875,0.37691374299526215,0.05743365957587957,-0.13932181532010435
1761469056020106000,2.61310595703125,0.3049503305464983,0.06828092454373837,-0.17838256366364658
1761469056030062000,2.62306201171875,0.2315986786097288,0.04865823244601488,-0.18049487964250147
1761469056040017200,2.63301708984375,0.19147943418920038,0.06646349985823034,-0.14902290592752396
1761469056049972000,2.642971923828125,0.232269709739089,0.08660700095966457,-0.15717494046203792
1761469056059928000,2.652927978515625,0.2483727032780647,0.028944062672555445,-0.1410308842603117
1761469056069883100,2.662883056640625,0.23485505005717275,-0.014250935931503773,-0.12181180452741681
1761469056079838000,2.672837890625,0.20343758300840853,-0.0215576056830585,-0.17752770039997995
1761469056089794000,2.6827939453125,0.16828092943131923,-0.03729556530192494,-0.2018807089552283
1761469056099748400,2.692748291015625,0.1422311268955469,-0.08188903252705931,-0.22507387995086608
1761469056109703400,2.702703369140625,0.12522796964645386,-0.09757321613207459,-0.2279206476841122
1761469056119659500,2.712659423828125,0.07820259909927844,-0.08507511521726846,-0.19801051645837722
1761469056129614300,2.7226142578125,0.07776245411634444,-0.09668255090266466,-0.1740500143520534
1761469056139569400,2.7325693359375,0.03841302502453327,-0.11234160006642341,-0.1412278681371361
1761469056149525500,2.742525390625,-0.02044716022312641,-0.12769041423723101,-0.1073154424674809
1761469056159480300,2.752480224609375,-0.0884434226065874,-0.11270955659598111,-0.0763411160763353
1761469056169435100,2.76243505859375,-0.11007307061254977,-0.14158449955508112,-0.09455890981219708
1761469056179391500,2.7723916015625,-0.05561433519423008,-0.15111512896642088,-0.10978241710290312
1761469056189346300,2.78234619140625,0.011465396866202354,-0.170634068428725,-0.1447436942383647
1761469056199301000,2.792301025390625,0.05985445698201656,-0.2211900973200798,-0.14650522401817143
1761469056209257500,2.802257568359375,0.04871288524270057,-0.24339871425777673,-0.10342873722724616
1761469056219212300,2.81221240234375,-0.027858897784352302,-0.20452990828976034,-0.09656045889295638
1761469056229167400,2.82216748046875,-0.0857680659174919,-0.18678791537210343,-0.0687368516176939
1761469056239123500,2.83212353515625,-0.10597148051261901,-0.1739013996616006,-0.05209244467839599
1761469056249078300,2.842078369140625,-0.130701432621479,-0.152637662358582,-0.05242321100272238
1761469056259033300,2.852033447265625,-0.12509294508993624,-0.1652251951225102,-0.09373919092714786
1761469056268989400,2.861989501953125,-0.1396440330117941,-0.1862469403631985,-0.08763006039708852
1761469056278944300,2.8719443359375,-0.2041886936366558,-0.1824253362484276,-0.10481003551781178
1761469056288899300,2.8818994140625,-0.2554687990188598,-0.16279519149661062,-0.10810893093273043
1761469056298855400,2.89185546875,-0.3054594491124153,-0.159800247464329,-0.10992058346457778
1761469056308810500,2.901810546875,-0.33697511583864687,-0.12292480727061629,-0.08092858999706805
1761469056318765300,2.911765380859375,-0.30130408299863337,-0.10022621485888958,-0.04549297334812581
1761469056328721400,2.921721435546875,-0.2207318321585655,-0.052995530997961754,-0.013460443140938878
1761469056338676500,2.931676513671875,-0.12435235585570335,-0.016314736593514678,0.014019830589368938
1761469056348631300,2.94163134765625,-0.03341886999905109,0.023334990619122982,0.05023549170009792
1761469056358587400,2.95158740234375,0.01821077947318554,0.04396130680143833,0.07912307494506239
1761469056368542500,2.96154248046875,-0.024992986959218977,0.043312633634358645,0.0721008481580764
1761469056378498300,2.971498291015625,-0.049097500646114345,0.051353024487942454,0.03369797920137644
1761469056388453000,2.981453125,0.006595745003223419,0.03830269651785493,0.011566007696464656
1761469056398408400,2.991408447265625,0.13156009527742862,0.01345803198814392,-0.002162950187548995
1761469056408364300,3.0013642578125,0.24027532154023645,-0.024822452697902918,-0.006125497142970561
1761469056418319400,3.0113193359375,0.28112697188854213,-0.041380350397527216,-0.03782967217862606
1761469056428274400,3.0212744140625,0.2858919943332672,-0.036397155157476664,-0.043564124177396295
1761469056438230300,3.031230224609375,0.23511165516674518,-0.039090047503262754,-0.09413513144217431
1761469056448185300,3.041185302734375,0.19172201077342033,-0.00797273244485259,-0.10114785974845289
1761469056458140400,3.051140380859375,0.11039748026132583,-0.005348813682049512,-0.10691497190780937
1761469056468096300,3.06109619140625,0.030700258690118786,0.005746580827981233,-0.12281586700342595
1761469056478051300,3.07105126953125,0.021240940949320792,-0.014373393267393111,-0.157881627426669
1761469056488006400,3.08100634765625,0.0034913492470979688,-0.03246741449311375,-0.19636457588225603
1761469056497962500,3.09096240234375,0.04567980115711689,-0.07732815435230732,-0.22894904088377951
1761469056507917300,3.100917236328125,0.07507540698945522,-0.10429814047291874,-0.21122429136186838
1761469056517872400,3.110872314453125,0.11897124733924865,-0.10997764741405844,-0.19402699978016316
1761469056527828500,3.120828369140625,0.13999474614560603,-0.12594137861281632,-0.20045162600018082
1761469056537783300,3.130783203125,0.17518354842662812,-0.13215163142979144,-0.20499730660580098
1761469056547738400,3.14073828125,0.16968319744467733,-0.14699132703468204,-0.2251388349458575
1761469056557694500,3.150694580078125,0.09459434645175933,-0.17115370838865637,-0.22601137999668716
1761469056567649300,3.160649169921875,0.06507949815392494,-0.1229708383694291,-0.2154794645883143
1761469056577604400,3.170604248046875,0.03412380339801311,-0.08803513406664133,-0.19511187240742145
1761469056587560400,3.180560546875,0.06182721835970878,-0.10107201803326606,-0.17136347868181764
1761469056597515300,3.190515380859375,0.08322188856601714,-0.10008023051694034,-0.1293490681644529
1761469056607470300,3.20047021484375,0.0819692581564188,-0.09085793640241026,-0.10558584219589828
1761469056617426400,3.210426513671875,0.05232230791151523,-0.08078618585169314,-0.08442790335491299
1761469056627381200,3.22038134765625,0.019531214421987533,-0.06267682092636823,-0.09411321187131107
1761469056637336300,3.23033642578125,-0.053289107117056846,-0.07861687898859382,-0.14088066213466227
1761469056647292400,3.24029248046875,-0.14412380877435207,-0.09047507456466555,-0.17356946429349482
1761469056657247200,3.250247314453125,-0.20285656825006007,-0.08341887244284152,-0.18024945351406932
1761469056667202600,3.26020263671875,-0.21597674658596513,-0.05774301778599619,-0.178854053632915
1761469056677158400,3.270158447265625,-0.17681845615208147,-0.05771145360395312,-0.1331978525470942
1761469056687113200,3.28011328125,-0.06460428185760975,-0.06569032352864741,-0.11092172333113849
1761469056697069300,3.2900693359375,0.01402443369925022,-0.06692381084635854,-0.07317746441364288
1761469056707024400,3.3000244140625,0.036514497926831244,-0.06696969581469893,-0.07255779814533889
1761469056716979200,3.309979248046875,0.08712298765778541,-0.08822539594173431,-0.08149901029616594
1761469056726935300,3.319935302734375,0.11195347753167152,-0.13535671108141542,-0.12237192262820899
1761469056736890400,3.329890380859375,0.07225158174037932,-0.17898527879714965,-0.16783150516338646
1761469056746845200,3.33984521484375,-0.011487024176120757,-0.16269728408008813,-0.17162680579312145
1761469056756801300,3.34980126953125,-0.12214637024402618,-0.11538973559066652,-0.19124964402131736
1761469056766756400,3.35975634765625,-0.13985855254530905,-0.10226824208050965,-0.1693312422018498
1761469056776711400,3.36971142578125,-0.07129355036318302,-0.11308175090923905,-0.1432565244205296
1761469056786667300,3.379667236328125,-0.0009457564175128936,-0.1367886435806751,-0.14191278166137636
1761469056796622300,3.389622314453125,0.014119710767269134,-0.15873174144998192,-0.129013625665009
1761469056806577400,3.399577392578125,-0.0019949732095003126,-0.1815747107684612,-0.13532178589850663
1761469056816533200,3.409533203125,-0.04466565567851066,-0.17510814510285852,-0.14339827097877858
1761469056826488300,3.41948828125,-0.09879062909781933,-0.13773060060590506,-0.1352884681507945
1761469056836443400,3.429443359375,-0.16021628091931342,-0.09200476834997534,-0.1365292619921267
1761469056846399200,3.439399169921875,-0.21028525694608688,-0.0775346367098391,-0.10781119009517133
1761469056856354600,3.4493544921875,-0.22647300615906715,-0.04942950907945633,-0.09764138599745929
1761469056866309400,3.459309326171875,-0.13519172977805136,-0.04560644365996122,-0.08378894786424934
1761469056876265200,3.46926513671875,-0.010005845707654953,-0.06414470152184366,-0.04286291710548103
1761469056886220500,3.479220458984375,0.0689238986223936,-0.08690744521096348,-0.03292575271986425
1761469056896175400,3.48917529296875,0.11704933936595915,-0.05369418078660965,-0.03387735435627401
1761469056906131200,3.499131103515625,0.07509995690882205,-0.018230360956490037,-0.0014030717309564352
1761469056916086500,3.50908642578125,0.06914250980913639,0.02638867910131812,-0.00938069954663515
1761469056926041300,3.519041259765625,0.09741758717894554,-0.004456102626025677,-0.07260660572312772
1761469056935997200,3.5289970703125,0.13333411921262742,-0.06957374083325267,-0.10393507931418716
1761469056945952500,3.538952392578125,0.14740589918494224,-0.08883578292503952,-0.08620959913991391
1761469056955907300,3.5489072265625,0.1032359180688858,-0.055804158677905794,-0.07023607719950377
1761469056965863400,3.558863525390625,0.02709726576209068,-0.007590308998525142,-0.04460778801143169
1761469056975818500,3.568818603515625,-0.0423112015068531,0.017628157279640434,-0.04910612234398722
1761469056985773300,3.578773193359375,-0.08535305537581443,0.016793460021167994,-0.050919309245795005
1761469056995729400,3.5887294921875,-0.1378442901134491,-0.015936258669942617,-0.07917064041383565
1761469057005684500,3.5986845703125,-0.13429624224305153,-0.05871040151342749,-0.09441438677497208
1761469057015639300,3.608639404296875,-0.07350245858430862,-0.07137815990671514,-0.10742160625569522
1761469057025595400,3.618595458984375,-0.020533669462800025,-0.10664616490378975,-0.11155702555999158
1761469057035550500,3.628550537109375,0.0063601826816797255,-0.11955927636027336,-0.14278700721263884
1761469057045505300,3.63850537109375,-0.04387947373688221,-0.13451309986412524,-0.12487564907744526
1761469057055461400,3.64846142578125,-0.13173720541000367,-0.1212641805820167,-0.13760814327001572
1761469057065416400,3.65841650390625,-0.15232406636476517,-0.10537892144694924,-0.16416151141375301
1761469057075371300,3.668371337890625,-0.1573497855722904,-0.1189715396001935,-0.18657588005661963
1761469057085327400,3.678327392578125,-0.14564415020942686,-0.13891528034582734,-0.1963178141310811
1761469057095282400,3.688282470703125,-0.11840893728137016,-0.14596592950969933,-0.20970738399289549
1761469057105238300,3.69823828125,-0.11016074889600276,-0.15433423714339733,-0.22119703851751982
1761469057115193000,3.708193115234375,-0.10286416214704514,-0.1391829913713038,-0.24873956382907925
1761469057125148400,3.7181484375,-0.0764659845650196,-0.1419238145120442,-0.24827917977571487
1761469057135104300,3.728104248046875,-0.06751753895580768,-0.11323270368725061,-0.21707265206389129
1761469057145059300,3.738059326171875,-0.043352819514274596,-0.10162629091516137,-0.19071904427595435
1761469057155014400,3.748014404296875,0.03753273505866527,-0.0855222744628787,-0.1597651761509478
1761469057164970200,3.75797021484375,0.10546060838103294,-0.07094678275212644,-0.1337310095757246
1761469057174925300,3.76792529296875,0.1594324370652437,-0.0483829226359725,-0.1148968375071883
1761469057184880400,3.77788037109375,0.17776012091636656,-0.03725508716106415,-0.08073102159835398
1761469057194836200,3.787836181640625,0.14413725277781486,-0.042416269316524265,-0.023458105542138216
1761469057204791300,3.797791259765625,0.08499123632609844,-0.02225099477469921,-0.007848229282349347
1761469057214746000,3.80774609375,0.05511164636909961,-0.004528875601291656,-0.02375993803292513
1761469057224702200,3.8177021484375,0.07683072622418403,-0.03763941030353307,-0.01787804038748145
1761469057234657300,3.8276572265625,0.10065116227269172,-0.036979485090076925,0.006788198835402727
1761469057244612000,3.837612060546875,0.07744973490536212,-0.02758081149533391,0.03998568116873503
1761469057254568400,3.847568359375,0.05598141494095325,-0.03139554747790098,0.026973200991004705
1761469057264523300,3.857523193359375,0.07699263878762722,-0.04362929836809635,0.014139876772463322
1761469057274478000,3.86747802734375,0.07615443439781665,-0.07013897350057959,0.01911196609660983
1761469057284434400,3.877434326171875,0.09544657936692237,-0.0925863676302135,0.022921514447405932
1761469057294389200,3.88738916015625,0.09475216736197471,-0.10959683140292763,0.04000197471641004
1761469057304344000,3.897343994140625,0.08050152369141578,-0.0899839300468564,0.05405307722687721
1761469057314300400,3.907300537109375,0.029282208585739135,-0.04954261406511068,0.0322382088471204
1761469057324255200,3.917255126953125,-0.02934942860305309,-0.0309480959713459,0.04156096766144037
1761469057334210000,3.9272099609375,-0.09100421300530433,-0.016056085657328367,0.035262598169595004
1761469057344166400,3.93716650390625,-0.12728665574193,-0.002934738277643919,-0.03592069675214588
1761469057354121200,3.947121337890625,-0.11365151362121105,-0.006362228508293629,-0.14303535595051944
1761469057364076000,3.957075927734375,-0.1354915895074606,-0.07209054595977067,-0.1407018715016544
1761469057374032400,3.967032470703125,-0.221812613132596,-0.0905314809270203,-0.20655695713795721
1761469057383987200,3.9769873046875,-0.23145839335620402,-0.06695639794170856,-0.2877506278119981
1761469057393942000,3.98694189453125,-0.20868717409968374,-0.04861220134720206,-0.28793256025016306
1761469057405764400,3.998764404296875,-0.13209960898160933,-0.05671425926014781,-0.19545812856182454
1761469057415719200,4.00871923828125,-0.025550036320090293,-0.00901055105999112,-0.08772000370286405
1761469057425674200,4.01867431640625,0.13189502632021904,0.034214696551859373,0.04537818786203861
1761469057435630300,4.02863037109375,0.2464034490317106,0.05556947313919663,0.15823694367036223
1761469057445585200,4.038585205078125,0.3047182753562927,0.052309156168997284,0.2101921718351543
1761469057455540200,4.048540283203125,0.2729758141368627,0.0426541697256267,0.24211218157857656
1761469057465496300,4.058496337890625,0.14015139801204204,0.05276099158972501,0.21234145882353186
1761469057475451100,4.068451171875,-0.026655951735377312,0.07117503855004906,0.15996983187757433
1761469057485406200,4.07840625,-0.15477321308255196,0.0822238174393773,0.09482084868401289
1761469057495362300,4.0883623046875,-0.20973405280411242,0.10582549617066979,0.05757664824314415
1761469057505317000,4.098317138671875,-0.22283377287387846,0.11640446559116244,0.039656668410077686
1761469057515272200,4.108272216796875,-0.22591069610118863,0.1000116953253746,0.003214578132331371
1761469057525228300,4.118228271484375,-0.2140226899087429,0.07133987372294068,-0.06150551212467253
1761469057535183000,4.12818310546875,-0.17487258278131484,0.07815700639188289,-0.11693791488073765
1761469057545139200,4.13813916015625,-0.09102934744656085,0.06914499402716756,-0.164625914055109
1761469057555094300,4.14809423828125,-0.007018938851356506,-0.018326514807343482,-0.20973924043588338
1761469057565049000,4.158049072265625,0.048337622189521784,-0.1018755895011127,-0.26399799630269405
1761469057575005200,4.168005126953125,0.14840250900685786,-0.14539733584150671,-0.3765680713627487
1761469057584960300,4.177960205078125,0.13200199382603167,-0.1812241437651217,-0.4917617729246616
1761469057594915000,4.1879150390625,0.0392874697715044,-0.19535174557790158,-0.5527131582979112
1761469057604871200,4.19787109375,-0.0011059154152870177,-0.15450243331715463,-0.5873254027999937
1761469057614826200,4.207826171875,-0.013465630772709845,-0.13707111378386616,-0.6416392498549074
1761469057624781000,4.217781005859375,-0.006240355694293975,-0.15088818834275006,-0.6102167413048446
1761469057634737200,4.227737060546875,0.11206102955937385,-0.1501093129247427,-0.5865032727621495
1761469057644692200,4.237692138671875,0.20128420436680317,-0.14318755083754658,-0.5097091522213071
1761469057654647300,4.247647216796875,0.2620195358365774,-0.11704247123375534,-0.39145343274027106
1761469057664603100,4.25760302734375,0.2886410007804632,-0.09203063344359397,-0.3555800822611898
1761469057674558200,4.26755810546875,0.25528935079872606,-0.11844488537758588,-0.2853614676531404
1761469057684513300,4.27751318359375,0.1868693100452423,-0.127208329808712,-0.25120105857178565
1761469057694469000,4.28746923828125,0.10510580359399319,-0.12072481300830841,-0.21232918386384844
1761469057704424200,4.297424072265625,0.023131869262456892,-0.11102540290132164,-0.1433632727306336
1761469057714379300,4.307379150390625,-0.04844342065155506,-0.04132745116651058,-0.04294672293141484
1761469057724335000,4.317335205078125,-0.06538111144900322,0.0071392042301595205,0.07097564352042973
1761469057734290200,4.327290283203125,-0.04960661921203136,0.06628945846557617,0.20900909953042865
1761469057744245200,4.337245361328125,-0.07135726324915885,0.12883432357534766,0.3013751024082303
1761469057754201000,4.347201171875,-0.06866963160037994,0.20294775366485118,0.36037681501843033
1761469057764779300,4.357779296875,-0.09594576106071472,0.2212225382849574,0.37098413375057276
1761469057774734300,4.367734375,-0.1535118148446083,0.18916765011548994,0.2980342675477266
1761469057784690200,4.377690185546875,-0.26596622763574124,0.15425196568742394,0.19777787674628197
1761469057794645200,4.387645263671875,-0.33263094915449615,0.11277326948195696,0.07046046053990722
1761469057804600300,4.397600341796875,-0.3579606207221746,0.07677914216741918,-0.04027757678739726
1761469057814556200,4.40755615234375,-0.34958442204296586,0.018639380148798228,-0.12223814018070697
1761469057824511200,4.41751123046875,-0.24128946701884268,-0.010742489419132471,-0.15926044149920343
1761469057834466300,4.42746630859375,-0.1017366194218397,-0.03580766483172774,-0.1786325198367238
1761469057844422400,4.43742236328125,0.04374152657091617,-0.04708732986748218,-0.18804522195681928
1761469057854377200,4.447377197265625,0.17422142539620397,-0.043403088396787644,-0.1760861963547766
1761469057864332300,4.457332275390625,0.24324878439307213,-0.03471139402762055,-0.14293196864128113
1761469057874288400,4.467288330078125,0.24745500391125677,-0.02823079983666539,-0.12306406961083412
1761469057884243200,4.4772431640625,0.2219482222110033,-0.04138049652799964,-0.1433314893528819
1761469057894198300,4.4871982421875,0.19601766214072702,-0.056055210829526185,-0.15945706004984675
1761469057904154400,4.497154296875,0.14425941785275936,-0.09045549308136105,-0.17643530205339192
1761469057914109200,4.507109130859375,0.08983692279160022,-0.10312632021456956,-0.1749810115918517
1761469057924064300,4.517064208984375,0.03388824107646942,-0.09220730518475174,-0.178371969204396
1761469057934020400,4.527020263671875,0.00013853168785572052,-0.09384455099776387,-0.1600129403669387
1761469057943975200,4.53697509765625,0.013842062869668006,-0.08619812789782881,-0.12966463691964744
1761469057953930200,4.54693017578125,0.01617196712195873,-0.0895579597197473,-0.10301737994737922
1761469057963886300,4.55688623046875,0.009356441888213158,-0.08483882224336266,-0.06037037061490118
1761469057973841200,4.566841064453125,-0.05759527987837791,-0.06715791186317802,-0.029475904526934025
1761469057983796200,4.576796142578125,-0.16166764877140521,-0.07880757925510407,-0.04331818659231067
1761469057993752300,4.58675244140625,-0.22515140216648577,-0.0767164521947503,-0.03600472177378833
1761469058003707100,4.59670703125,-0.25669337237775325,-0.06390300172045826,-0.0354009837269783
1761469058013662500,4.606662353515625,-0.2771381945133209,-0.05882233745530247,-0.019236542324349282
1761469058023618300,4.616618408203125,-0.23526187729239462,-0.05142462841942906,-0.043563831916451454
1761469058033573000,4.626572998046875,-0.17641805865764618,-0.05105258023664355,-0.08790551633760332
1761469058043528200,4.636528076171875,-0.16852467505931853,-0.08086451178491115,-0.12611980391964317
1761469058053484300,4.646484375,-0.14465630821585654,-0.047746086037158963,-0.1685831272482872
1761469058063439000,4.656439208984375,-0.08188742509186267,-0.05091492533162236,-0.17621121097393333
1761469058073395200,4.666395263671875,-0.019551088166236876,-0.04670096089839935,-0.17823548334315417
1761469058083350300,4.676350341796875,0.11615385183095932,-0.036493455138802526,-0.1649997158035636
1761469058093305300,4.686305419921875,0.2573860308170318,-0.02509600894227624,-0.10668759289272128
1761469058103261400,4.696261474609375,0.33493104279041286,-0.007752075431495905,-0.03916106691285968
1761469058113216500,4.706216552734375,0.36276188352406025,0.043128363108634944,0.014693272871524094
1761469058123171300,4.71617138671875,0.3077355773508549,0.07544014864861964,0.06162205117642879
1761469058133127400,4.72612744140625,0.2560071436792612,0.10294526455923915,0.08432480830661952
1761469058143082500,4.73608251953125,0.15868658713400363,0.11173647378012537,0.0777924839284271
1761469058153037300,4.746037353515625,0.06840250509679317,0.10312310534417629,0.02993709229789674
1761469058162993400,4.755993408203125,0.01845160249173641,0.08465791271850466,-0.0333135829936713
1761469058172948500,4.765948486328125,-0.03072539313137531,0.024404811807721853,-0.07647577530667185
1761469058182903300,4.7759033203125,-0.042402971443533895,-0.025971184341609478,-0.1548451092749834
1761469058192859400,4.785859375,0.0065665189087390895,-0.09330313759744167,-0.20257161382883787
1761469058202814500,4.795814453125,0.0008767828345298766,-0.16832608374729752,-0.22848734165616333
1761469058212769500,4.80576953125,-0.06159165603816509,-0.19890446962341665,-0.25043190083019434
1761469058222725400,4.815725341796875,-0.11125731196105479,-0.18156608907058833,-0.2713917598158121
1761469058232680400,4.825680419921875,-0.1468535259991884,-0.16283727707266807,-0.2815687243066728
1761469058242635500,4.835635498046875,-0.1300789168089628,-0.167592216514796,-0.25579569288566706
1761469058252591400,4.84559130859375,-0.08027706728577613,-0.16791092707514763,-0.22584778693281113
1761469058262546200,4.855546142578125,0.027199557092785834,-0.1741404691144824,-0.18350801691859958
1761469058272501500,4.86550146484375,0.10199731618463992,-0.16667495553940534,-0.12368906964138149
1761469058282457300,4.875457275390625,0.1699637679517269,-0.13489771526753902,-0.06190817464143038
1761469058292412400,4.885412353515625,0.10104513002634048,-0.12425795557051897,-0.012658406043052673
1761469058302367500,4.895367431640625,-0.020711364117264746,-0.09836772751063108,-0.016506605903804303
1761469058312323300,4.9053232421875,-0.1026478890478611,-0.06485182687789201,-0.057684711727499956
1761469058322278400,4.9152783203125,-0.1753893001317978,-0.08824673099070787,-0.07091426872201263
1761469058332233500,4.9252333984375,-0.16313538323640822,-0.08021087018176913,-0.08624927356317638
1761469058342189300,4.935189208984375,-0.08639525790512562,-0.06542275863364339,-0.052598713700100774
1761469058352144400,4.945144287109375,0.0011579378634691238,-0.05052519536167383,0.030192747559398412
1761469058362100500,4.9551005859375,0.054341246518492696,-0.02146890448629856,0.07791231091581284
1761469058372055300,4.96505517578125,0.05556815796494484,-0.0022618074521422384,0.10895115391053259
1761469058382010400,4.97501025390625,0.04632452880144119,0.025425679288059472,0.11214132825396954
1761469058391966500,4.984966552734375,0.026032266879081726,0.022554361635446548,0.10227350277751683
1761469058401921500,4.994921630859375,0.02887888848185539,-0.004418693225085735,0.09108268506899475
1761469058411876400,5.00487646484375,0.0260813667178154,-0.024203736277669665,0.03946173035986721
1761469058421832400,5.01483251953125,0.02711070976555347,-0.04508914178758859,-0.006016045419126748
1761469058431787500,5.02478759765625,0.03760170864164829,-0.04357055391818285,-0.03868102831095457
1761469058441742300,5.034742431640625,0.05816460419893264,-0.07161854453384876,-0.04981858146227896
1761469058451698200,5.0446982421875,0.08643792800307273,-0.08241729418486356,-0.04725136132277548
1761469058461653500,5.054653564453125,0.0827794054955244,-0.07534794032052158,-0.04832936581782996
1761469058471608300,5.0646083984375,0.10358604668080806,-0.07419044084846974,-0.022428762494400144
1761469058481564200,5.074564208984375,0.09759937348663807,-0.05048617852553725,-0.02047090642489493
1761469058491519500,5.08451953125,0.08545417766273021,-0.04008694958612322,0.004200593494996428
1761469058501474300,5.094474365234375,0.08715104470849036,-0.04111585424244404,-0.0019097060788422823
1761469058511430400,5.104430419921875,0.0781955848366022,-0.05411883593946695,-0.03214651197567582
1761469058521385500,5.114385498046875,0.03232756763100624,-0.06960808149427175,-0.05867722989618778
1761469058531340300,5.12434033203125,-0.03886076879203319,-0.06397577469572424,-0.08813990961536765
1761469058541296400,5.13429638671875,-0.09129355134069919,-0.03817863174676895,-0.09552695112675427
1761469058551251500,5.14425146484375,-0.11050035611391067,-0.022827333357930184,-0.1171150980785489
1761469058561206300,5.154206298828125,-0.16654080776572228,-0.04512640505805612,-0.15412782785110174
1761469058571162400,5.164162353515625,-0.17128128029108047,-0.049665363661944864,-0.16559622039198874
1761469058581117400,5.174117431640625,-0.10298632722198962,-0.09737535547241569,-0.18990568206645547
1761469058591072300,5.184072265625,-0.0172626849681139,-0.15601064592301844,-0.20225655653029678
1761469058601028400,5.1940283203125,0.08205226026475429,-0.20427096509262918,-0.20101956208124755
1761469058610983400,5.2039833984375,0.18726736945211886,-0.23312530365511774,-0.20935031418353317
1761469058620938200,5.213938232421875,0.2168897697776556,-0.2669887025512755,-0.2285431634966284
1761469058630894300,5.223894287109375,0.13544190514683724,-0.26455811440348626,-0.2612431446366012
1761469058640849400,5.233849365234375,-0.014297989943623543,-0.24611089582592247,-0.28544885367564854
1761469058650804500,5.243804443359375,-0.11371113485395908,-0.17962722996249794,-0.31852292882502076
1761469058660760300,5.25376025390625,-0.20786475180089473,-0.13018924531564116,-0.22693974688798188
1761469058670715400,5.26371533203125,-0.30436230152547356,-0.08634674258828162,-0.1932294196616858
1761469058680670500,5.27367041015625,-0.3018330753087997,-0.013262509416043757,-0.2520860977780074
1761469058690626300,5.283626220703125,-0.21503040564656256,0.04439458365216851,-0.24345037137977776
1761469058700581400,5.293581298828125,-0.08787818993926048,0.1016292135246098,-0.1737536617539823
1761469058710536400,5.303536376953125,0.06631342386305332,0.11298121314421296,-0.1270342153508216
1761469058720492300,5.3134921875,0.21346271793842314,0.13785671120360493,-0.12973872506916523
1761469058730447400,5.323447265625,0.33983284335732455,0.14406082654073835,-0.11591573222614825
1761469058740403500,5.333403564453125,0.3903530702829361,0.14571020118296146,-0.09353869991898536
1761469058750358300,5.343358154296875,0.3465419856071472,0.1345242057800293,-0.10427395587973295
1761469058760313600,5.353313720703125,0.2898211504757404,0.12891776407510042,-0.11026669348850845
1761469058770269400,5.36326953125,0.2289841121971607,0.10235913523435593,-0.14012575211413203
1761469058780224300,5.373224365234375,0.15430267296135425,0.04585559611544013,-0.16396942290775476
1761469058790179600,5.3831796875,0.10304244132339954,0.04229512715488672,-0.1540073432765901
1761469058800135400,5.393135498046875,0.09205518336296081,0.03390577673316002,-0.11945318563729523
1761469058810090200,5.40309033203125,0.03648527183234691,-0.021628332831710576,-0.09890738734528422
1761469058820045600,5.413045654296875,-0.008371522504091263,-0.03672828680798411,-0.12228862825892865
1761469058830001400,5.42300146484375,-0.0731850631982088,-0.036081367206573484,-0.09784143861420452
1761469058839956200,5.432956298828125,-0.09226502672135829,-0.027872341787815093,-0.0857112942289561
1761469058849911600,5.44291162109375,-0.12715104666352273,-0.05962254792228341,-0.09407090709954499
1761469058859867400,5.452867431640625,-0.16939502815306184,-0.10496537220999598,-0.12777027454040943
1761469058869822500,5.462822509765625,-0.17577216196954248,-0.14200798566415906,-0.16019881832785904
1761469058879777500,5.472777587890625,-0.20136545290946958,-0.18016192136108874,-0.20997166095227002
1761469058889733400,5.4827333984375,-0.20559680686891077,-0.213079709970206,-0.23121099446639418
1761469058899688400,5.4926884765625,-0.1922889970064163,-0.21864450449049472,-0.20763518082872032
1761469058909643500,5.5026435546875,-0.21501696164309977,-0.20573168529495595,-0.17725728596076368
1761469058919599400,5.512599365234375,-0.22511165467798708,-0.2040982388742268,-0.14516316175945101
1761469058929554400,5.522554443359375,-0.1962327661961317,-0.18811244197413324,-0.1365475283011794
1761469058939509500,5.532509521484375,-0.10546820716559886,-0.17257599627673625,-0.09694595107920467
1761469058949465600,5.542465576171875,0.014326631516218184,-0.159893478705734,-0.034345264128968114
1761469058959420400,5.55242041015625,0.13401508721411226,-0.14212299034595488,0.04672741051390767
1761469058969375500,5.56237548828125,0.2221177335590124,-0.09275850932672619,0.12269801277741789
1761469058979331600,5.57233154296875,0.23967618660330772,-0.05272416671067476,0.1592979239653796
1761469058989286400,5.582286376953125,0.2019827080249786,-0.018768121095001696,0.15971841439977288
1761469058999241500,5.592241455078125,0.14403788405656814,-0.004121317713707685,0.14908216183409093
1761469059009197600,5.602197509765625,0.07131108601987361,0.012978285647183656,0.14882643350735306
1761469059019152400,5.61215234375,0.021429741519689557,0.032201310902833936,0.1112337118897587
1761469059029107500,5.622107421875,-0.013014379873871803,0.02007686560600996,0.07416640238575636
1761469059039063600,5.6320634765625,-0.05502338356375694,0.012256108852475881,0.09186324098743498
1761469059049018400,5.642018310546875,-0.062061611637473105,0.023377076195180414,0.08498568336814641
1761469059058973400,5.651973388671875,-0.049850364840030664,0.0332845760948956,0.0691736355997622
1761469059068929500,5.661929443359375,0.015498597905039786,-0.005302636452764273,0.03693856855779886
1761469059078884400,5.67188427734375,0.0357277314633131,-0.041597500279545785,-0.00573211391121149
1761469059088839200,5.681839111328125,0.020571663385629654,-0.07954188487902283,-0.051707244753092525
1761469059098795800,5.691795654296875,-0.015361819782853125,-0.10435279326960444,-0.1110980297461152
1761469059108750600,5.70175048828125,-0.07773439706563949,-0.09941329104080796,-0.15359664358384906
1761469059118706700,5.711706787109375,-0.08448504036962985,-0.07817483430951833,-0.1852821139190346
1761469059128661800,5.721661865234375,-0.08713350905179977,-0.06990019630864262,-0.20477854928858577
1761469059138616600,5.731616455078125,-0.04337093969285488,-0.0990139164596796,-0.2555244747288525
1761469059148572700,5.74157275390625,0.0013116671204566955,-0.11008914496451616,-0.2606161718446761
1761469059158527500,5.751527587890625,0.01009352399110794,-0.13140490471571684,-0.255866712295264
1761469059168482600,5.761482666015625,-0.007364975810050964,-0.11212737279385328,-0.22130203326195477
1761469059178438700,5.771438720703125,-0.07584463779628277,-0.07579641474038362,-0.17009375100694596
1761469059188393500,5.7813935546875,-0.13158347615301608,-0.027256255716085434,-0.11831446393094956
1761469059198348800,5.791348876953125,-0.13499182329177856,-0.008720043680816887,-0.08936988980174064
1761469059208304600,5.8013046875,-0.0808580820441246,0.016585370228439568,-0.046684521220251914
1761469059218259500,5.811259521484375,0.000045592707395553586,0.0291159121081233,-0.01794986351467669
1761469059228214800,5.82121484375,0.050696752536296845,0.02760492302328348,-0.00032908582389354704
1761469059238170600,5.831170654296875,0.06686170539557934,0.040227819361537694,-0.02617752056866884
1761469059248125400,5.84112548828125,0.048404842206835746,0.031168022332340478,-0.07543386503830551
1761469059258080800,5.851080810546875,-0.022612813824415205,0.004162964898347854,-0.14313684356361628
1761469059268036600,5.86103662109375,-0.09422375957369804,-0.017914719136059284,-0.19541582379005848
1761469059277991400,5.870991455078125,-0.07689443911015988,-0.03323313816860318,-0.20014526346474884
1761469059287946800,5.88094677734375,-0.023209610673785207,-0.05506298492178321,-0.1892442955482751
1761469059297902600,5.890902587890625,0.08065583747029303,-0.058146191759407516,-0.16048917957656084
1761469059307857700,5.900857666015625,0.14002455676198006,-0.08466478085070848,-0.12466215245723723
1761469059317812700,5.910812744140625,0.1541261473506689,-0.07853694562017917,-0.07889109282009303
1761469059327768600,5.9207685546875,0.11676233911812305,-0.04751856089159846,-0.056302317458391184
1761469059337723600,5.9307236328125,0.06107669225335121,-0.021264467955380676,-0.04376432292461395
1761469059347678700,5.9406787109375,0.024590251377224922,-0.012125322079658508,-0.05113353651836514
1761469059357634600,5.950634521484375,-0.008978840747475623,0.005604980400204658,-0.029504619164764878
1761469059367589600,5.960589599609375,-0.02112637465894222,-0.00125613754093647,-0.010336538966745138
1761469059377544700,5.970544677734375,-0.03372106781601906,0.0033685996502637863,-0.018539134644716977
1761469059387500800,5.980500732421875,-0.07715104421973228,0.011341478225588798,-0.022063947769999502
1761469059397455600,5.99045556640625,-0.14659867445528507,-0.009424684818834066,-0.046057183102145786
1761469059407410700,6.00041064453125,-0.12664075905382632,0.0037602293163537977,-0.07007138815708458
1761469059417366800,6.01036669921875,-0.04326221862137317,-0.02094765709117055,-0.075747680227831
1761469059427321600,6.020321533203125,0.07805120792984963,-0.0406032285451889,-0.02542377959191799
1761469059437276700,6.030276611328125,0.17992518999576568,-0.05587561647891998,-0.016161518793180583
1761469059447232800,6.040232666015625,0.1847211921006441,-0.05908186517432332,-0.012383169298246502
1761469059457187600,6.0501875,0.12472002012431621,-0.06683394060581922,-0.021971666376665235
1761469059467143400,6.060143310546875,0.031869302469491954,-0.05336670239791274,-0.060036900876834984
1761469059477098800,6.0700986328125,-0.07377543030679226,-0.04936068162694573,-0.09678703419044614
1761469059487053600,6.080053466796875,-0.17443302232027053,-0.06386676136329769,-0.13091134904511273
1761469059497008600,6.090008544921875,-0.1944020436376333,-0.06481339456364513,-0.1835851738080382
1761469059506964700,6.09996484375,-0.17762684992551803,-0.08713803909644484,-0.20307189150117336
1761469059516919600,6.10991943359375,-0.17097732890844344,-0.09766527832970022,-0.1959512458410114
1761469059526875600,6.119875732421875,-0.10133680644929409,-0.06724734371230005,-0.18655366822481154
1761469059536830700,6.129830810546875,-0.06896013897955418,-0.03900996800437569,-0.14423106854110956
1761469059546785500,6.13978564453125,-0.031361352947354315,-0.039230332756787535,-0.1262616966083646
1761469059556741600,6.14974169921875,-0.008314823880791664,-0.027229952231049535,-0.12908859059736133
1761469059566696700,6.15969677734375,-0.01301496439576149,-0.02741685310527682,-0.1345627842247486
1761469059576651500,6.169651611328125,0.02873158896565437,-0.027287673767656086,-0.17495960347764192
1761469059586607600,6.179607666015625,0.09691782096326351,-0.037719051411002874,-0.1902008656207472
1761469059596562700,6.189562744140625,0.1266197162657976,-0.06041808221414685,-0.204280609703809
1761469059606517500,6.199517578125,0.08132160790264606,-0.08601312671974301,-0.18504545561894772
1761469059616473600,6.2094736328125,0.057844286203384394,-0.07087400977686047,-0.17517711868584154
1761469059626428700,6.2194287109375,0.12154606626331806,-0.058926528482139105,-0.14557963360585272
1761469059636383500,6.229383544921875,0.13110475272536276,-0.08505991764813661,-0.1386435507323593
1761469059646339600,6.239339599609375,0.10585983683168887,-0.09891381708607078,-0.1329782184470445
1761469059656294700,6.249294677734375,0.04794540800154209,-0.09853080911785364,-0.1751065376676619
1761469059666249700,6.259249755859375,-0.06033902562856674,-0.08562500418499111,-0.1832115912552923
1761469059676205600,6.26920556640625,-0.1555465355426073,-0.04626505369916558,-0.1832669016391039
1761469059686160600,6.27916064453125,-0.23595745834112167,0.011408405981957912,-0.18342194607034323
1761469059696115700,6.28911572265625,-0.3046615767329931,0.0545370613515377,-0.1466199364390224
1761469059706071600,6.299071533203125,-0.24170097042918204,0.056914458007365464,-0.09580496435053645
1761469059716026600,6.309026611328125,-0.07665829226672649,0.062088207383453844,-0.09629143269322812
1761469059725981700,6.318981689453125,0.09917349093556403,0.043916590876877305,-0.11793730118162929
1761469059735937500,6.3289375,0.19839257457852363,0.008619359785318375,-0.11779394718818366
1761469059745892900,6.338892822265625,0.2500210550069809,-0.015478285769373178,-0.1545150736030191
1761469059755847700,6.34884765625,0.23572540315091609,-0.015813655203580856,-0.21009389909245071
1761469059765803500,6.358803466796875,0.21417641916573046,-0.03863236686363816,-0.26004648219794035
1761469059775758800,6.3687587890625,0.264198633441329,-0.06502060757353902,-0.2734858825508505
1761469059785713700,6.378713623046875,0.33456688565313814,-0.10263269147872925,-0.2684661546926945
1761469059795669500,6.38866943359375,0.41595103739798067,-0.1510261355087161,-0.230110924270004
1761469059805624800,6.398624755859375,0.48931087264120576,-0.16967603705152867,-0.15884236221760512
1761469059815579600,6.40857958984375,0.4868552961826324,-0.17272124996632338,-0.08501885498538612
1761469059825535500,6.418535400390625,0.38697219567298885,-0.16696414774432777,-0.036942002623900766
1761469059835490800,6.42849072265625,0.17803426168262956,-0.1477586581453681,0.029894787526130673
1761469059845445600,6.438445556640625,-0.08420622342824935,-0.1243804129064083,0.05145575421005487
1761469059855401700,6.448401611328125,-0.2986784106701612,-0.07543693377822637,0.07444682676233351
1761469059865356800,6.458356689453125,-0.4535954161375761,-0.03948065425604581,0.11392857699692249
1761469059875311600,6.4683115234375,-0.5340232900708913,-0.024832243439555167,0.15855821151398122
1761469059885267700,6.478267822265625,-0.5645090292274951,0.000632160423696041,0.1208401830162853
1761469059895222800,6.488222900390625,-0.5457967299729586,0.0019385668471455573,0.0773213592853397
1761469059905178600,6.4981787109375,-0.6215320621758699,-0.08066694338619708,0.08803542632758617
1761469059915133700,6.5081337890625,-0.6383247915446758,-0.09264394303634763,-0.02429075697399676
1761469059925088800,6.5180888671875,-0.5342126751631499,-0.06472863888964056,-0.13242840254455804
1761469059935044900,6.528044921875,-0.4009329164862632,-0.0765057320535183,-0.12382760132923722
1761469059944999700,6.537999755859375,-0.19297581022679805,-0.08454656129851937,-0.10781557400934398
1761469059954954800,6.547954833984375,0.050100540208816526,-0.09449614677429198,-0.1395517516184598
1761469059964910800,6.557910888671875,0.23194179295897482,-0.10314239456653594,-0.11022548469528555
1761469059974865700,6.56786572265625,0.35591304054260253,-0.09063947134613991,-0.1041790441378951
1761469059984820500,6.577820556640625,0.4878542440921068,-0.06995704106241464,-0.08807838868647813
1761469059994776800,6.58777685546875,0.5518564684033394,-0.06060907474160194,-0.07417721604071557
1761469060004731600,6.597731689453125,0.5388227993071079,-0.04094444319829345,-0.08846665735170245
1761469060014686500,6.6076865234375,0.41568274185061455,-0.03303878464028239,-0.09477956682555377
1761469060024642800,6.617642822265625,0.33047990860044957,-0.014312310729920863,-0.12660437256619334
1761469060034597600,6.62759765625,0.26857377978563307,-0.025252514678239822,-0.14431991586834192
1761469060044552400,6.637552490234375,0.17263561750948428,-0.03856412393301725,-0.14546082953177392
1761469060054508800,6.6475087890625,0.034113282003998754,-0.00772854842543602,-0.0898495630774647
1761469060064463600,6.657463623046875,-0.11541501616239547,0.03715571843981743,-0.025268735160678624
1761469060074418400,6.66741845703125,-0.16410159792006015,0.07596490317508578,0.03640205052830279
1761469060084374800,6.677374755859375,-0.1464806010335684,0.07809738515913486,0.06501783109456301
1761469060094329600,6.68732958984375,-0.1543839215040207,0.05776084570363164,0.08783281642757355
1761469060104284700,6.69728466796875,-0.1800894406467676,0.04474997296109795,0.0482161877669394
1761469060114240800,6.70724072265625,-0.18329612773358822,-0.006924100174754858,0.015515914366021752
1761469060124195600,6.717195556640625,-0.21965338927209377,-0.034241146167367696,-0.0488494441691786
1761469060134150700,6.727150634765625,-0.28345336900949475,-0.0888828369371593,-0.11927066867724061
1761469060144106800,6.737106689453125,-0.2721224121779203,-0.10568199604675173,-0.18115319742076097
1761469060154061600,6.7470615234375,-0.1898790132552385,-0.11627177912220359,-0.21422310785166918
1761469060164016600,6.7570166015625,-0.11085282281339168,-0.1398763804629445,-0.1875990125592798
1761469060173972500,6.766972412109375,-0.009723521634936332,-0.13313523563966154,-0.12709727064967155
1761469060183927600,6.776927490234375,0.04903378776013851,-0.09115575030520558,-0.09529095041379332
1761469060193882600,6.786882568359375,0.05184066187441349,-0.06916866716369986,-0.03741729198545217
1761469060203838500,6.79683837890625,0.0678390259951353,-0.047964404962956904,0.003050692807510495
1761469060213793800,6.806793701171875,0.09110358172655104,-0.02817921577990055,0.030839374899864196
1761469060223748600,6.81674853515625,0.04907821142375469,-0.014919775103777646,0.03597016191706061
1761469060233704400,6.826704345703125,-0.023301380610466,0.02692147080376744,0.05465571929514408
1761469060243659800,6.83665966796875,-0.02442249359488487,0.07877221568077802,0.045642099495232104
1761469060253615600,6.84661572265625,0.06371580858528614,0.07939823862463236,0.059260071285441515
1761469060263570400,6.8565703125,0.15394085391163825,0.047198242896050215,0.08206139341928065
1761469060273525800,6.86652587890625,0.19025602987408638,-0.0016283318541944025,0.04896722532995045
1761469060283481600,6.876481689453125,0.16125731440484523,-0.05011281516849994,0.0014990063861012458
1761469060293436700,6.886436767578125,0.07541793681681155,-0.04058963841125369,0.000009717676416039466
1761469060303391700,6.896391845703125,0.05760404770672321,-0.06448883878439665,-0.011714110930263996
1761469060313347600,6.90634765625,0.01419394504725933,-0.08062836494147776,-0.026379107555374502
1761469060323302700,6.916302734375,-0.014745149189233779,-0.03702171679660678,-0.05111139775179326
1761469060333257700,6.9262578125,-0.04052139548063278,-0.04797521861791611,-0.033482217558845874
1761469060343213600,6.936213623046875,-0.10136486349999904,-0.022978724527359006,-0.11119878670684992
1761469060353168600,6.946168701171875,-0.17865151679813862,-0.005212620081752538,-0.15998166844584047
1761469060363123700,6.956123779296875,-0.17796119644641875,-0.01472834418490529,-0.13528386504091322
1761469060373079600,6.96607958984375,-0.20922259615063665,-0.03278378696590662,-0.11795410618595778
1761469060383034600,6.97603466796875,-0.23394436495304105,-0.005187777901440859,-0.20134426399096844
1761469060392989700,6.98598974609375,-0.19286241298019885,-0.050684623707085846,-0.2041894242890179
1761469060402945800,6.99594580078125,-0.10002747741639613,-0.08404226503819227,-0.1884066756803542
1761469060412900600,7.005900634765625,0.05587561647891998,-0.06731704794764519,-0.1716609272584319
1761469060422855700,7.015855712890625,0.1726297722905874,-0.08415273967534304,-0.15764102360382676
1761469060432811800,7.025811767578125,0.20620295606851577,-0.08697320392355322,-0.13747823328003286
1761469060442766600,7.0357666015625,0.21787994985878467,-0.06829393015578389,-0.14683876682147382
1761469060452721700,7.0457216796875,0.16781974166035651,-0.05269041057154536,-0.13218399932943284
1761469060462677800,7.055677734375,0.0654646980792284,-0.05054989141151309,-0.1321520698212087
1761469060472632600,7.065632568359375,-0.04712181665897369,-0.012688947311788797,-0.1289291622519493
1761469060482587600,7.075587646484375,-0.12885258988440035,0.005309212324023246,-0.11736227777265011
1761469060492543700,7.085543701171875,-0.14639935249090194,0.0057246612571179864,-0.10009170175902544
1761469060502498600,7.09549853515625,-0.06819909147918224,0.0011919862635433674,-0.06279635565280914
1761469060512453600,7.10545361328125,-0.02416121231019497,0.0009387421548366546,-0.02331723576672375
1761469060522409700,7.11540966796875,-0.016753566402196884,0.02492211368009448,0.01633402581587434
1761469060532364500,7.125364501953125,-0.024697803404927252,0.04208849866688251,0.011677651377394795
1761469060542319600,7.135319580078125,-0.021167291191220284,0.06069777593836188,0.024352862424775957
1761469060552275700,7.145275634765625,0.0038999300479888913,0.029794688152521846,0.03290580591037869
1761469060562230500,7.15523046875,-0.006813771668076515,0.004563800784200429,0.007849763652309775
1761469060572185900,7.165185791015625,-0.017227613654732705,-0.009063596421480179,-0.023267039949446917
1761469060582141700,7.1751416015625,-0.05697217954397201,-0.032011925810575485,-0.07787855477668344
1761469060592096500,7.185096435546875,-0.08625088099837303,-0.06605725714489817,-0.10260317312330007
1761469060602051800,7.1950517578125,-0.10202186610400676,-0.08624021347388625,-0.12667955669425426
1761469060612007700,7.205007568359375,-0.057575406134128565,-0.08886427836716175,-0.16768676293045282
1761469060621962500,7.21496240234375,-0.026098902374505996,-0.10994506031870842,-0.14751052860319613
1761469060631918600,7.224918701171875,-0.005668108764290809,-0.1272137366361916,-0.1381244222290814
1761469060641873700,7.234873779296875,0.05823299326002598,-0.11231953436508774,-0.15152809368148445
1761469060651828700,7.244828857421875,0.09960077643692493,-0.10117387097254395,-0.07722184443362057
1761469060661784600,7.25478466796875,0.171737207365036,-0.09059139442071318,-0.029426731622964143
1761469060671739600,7.26473974609375,0.2510363695293665,-0.11456541359573602,-0.05139795960821211
1761469060681694700,7.27469482421875,0.2522597738444805,-0.1348848557859659,-0.047046121074259276
1761469060691650600,7.284650634765625,0.16679039861261843,-0.1377769239656627,-0.0292995250467211
1761469060701605600,7.294605712890625,0.014900047490000724,-0.11190890773758291,-0.0662248687967658
1761469060711560700,7.304560791015625,-0.130602648422122,-0.09612287119328976,-0.08560746852830052
1761469060721516500,7.3145166015625,-0.1704132652848959,-0.06701105073839425,-0.09381466731615364
1761469060731471600,7.3244716796875,-0.16244564740657805,-0.01717062277048826,-0.06013531975001096
1761469060741426700,7.3344267578125,-0.14425474167764185,0.0004918751701712608,-0.023695786755532026
1761469060751382500,7.344382568359375,-0.10187222850024699,0.027402970710396764,-0.0026727263405919074
1761469060761337900,7.354337890625,-0.07266717680394649,0.046037090162187815,0.014529972068592904
1761469060771292700,7.364292724609375,-0.02252864267230034,0.03353065981045365,0.02223776996694505
1761469060781248500,7.37424853515625,0.03733341309428215,0.027553923488408325,0.007913622668758034
1761469060791203800,7.384203857421875,0.07076455805301665,0.01985854668021202,0.020189824461191892
1761469060801158700,7.39415869140625,0.10162029956579208,0.0024599603727459905,-0.004948708448559045
1761469060811114500,7.404114501953125,0.09865034384429454,0.002358545824885368,-0.040715895139425994
1761469060821069800,7.41406982421875,0.06252513749599456,-0.019970044230669736,-0.07854651716612279
1761469060831024600,7.424024658203125,0.013103227201104163,-0.02579758134037256,-0.08636289000548422
1761469060840980700,7.433980712890625,-0.028283845198154446,-0.006565057604014873,-0.10371142662614584
1761469060850935800,7.443935791015625,-0.026598084068298337,-0.009301496830582618,-0.09982684027776122
1761469060860890600,7.453890625,0.025520810225605962,0.01815656506791711,-0.11001403390169143
1761469060870846700,7.4638466796875,0.07740531124174595,-0.004335398855805397,-0.09839088919050991
1761469060880801800,7.4738017578125,0.10927753632068633,-0.01689355939477682,-0.07054229360446333
1761469060890756600,7.483756591796875,0.10287643710672854,-0.022255378688871858,-0.08271554647907614
1761469060900712700,7.493712646484375,0.037946576556563374,-0.02848272877112031,-0.10099771068803966
1761469060910667800,7.503667724609375,-0.01994914757311344,-0.060172436890006065,-0.11762100177407264
1761469060920622600,7.51362255859375,-0.028438158977031707,-0.08233268464133144,-0.12969576271027325
1761469060930578700,7.52357861328125,-0.012213000363111496,-0.0978777520366013,-0.1399068486664444
1761469060940533800,7.53353369140625,0.011238017851114272,-0.12665259562209247,-0.13922325031645597
1761469060950488600,7.543488525390625,0.03229366536140442,-0.13741934269964695,-0.10262370445467531
1761469060960444700,7.553444580078125,-0.01376958215534687,-0.11106222778037189,-0.10718867428265512
1761469060970399700,7.563399658203125,-0.09705050743222236,-0.0878486715838313,-0.10433204274252056
1761469060980355800,7.57335595703125,-0.190812494713068,-0.07069982225373386,-0.08437865738570689
1761469060990310700,7.583310546875,-0.2256552600353956,-0.06842237884104252,-0.1064540033325553
1761469061000265500,7.593265380859375,-0.21500468668341635,-0.07928381846472621,-0.11740012556500733
1761469061010221800,7.603221923828125,-0.14970073212385177,-0.09295242446362972,-0.13493585532084107
1761469061020176600,7.6131767578125,-0.04193827654123306,-0.10314458652362227,-0.11716112917736173
1761469061030131500,7.62313134765625,0.033795302096009255,-0.12784867353886364,-0.10726795006394385
1761469061040087800,7.633087890625,0.0606716185837984,-0.15994024045690894,-0.10756364507488905
1761469061050042600,7.643042724609375,0.09079378512501717,-0.13453662687018514,-0.0831715466182679
1761469061059997400,7.65299755859375,0.13224515493214128,-0.1261930152863264,-0.05033237620331347
1761469061069953800,7.662953857421875,0.16065408781468868,-0.0841268745817244,-0.03442833930253982
1761469061079908600,7.67290869140625,0.1457481951057911,-0.08289806343913078,-0.05018588040471077
1761469061089863400,7.682863525390625,0.10572890392839908,-0.05085705766454339,-0.0399355584166944
1761469061099819500,7.692819580078125,0.03145546097159385,-0.02435147418528795,-0.057412543722614645
1761469061109774300,7.7027744140625,-0.058982350322604175,-0.01562850789502263,-0.06532521654330194
1761469061119729400,7.7127294921875,-0.12958031963706015,0.005157382763177156,-0.0692782650180161
1761469061129685500,7.722685546875,-0.12772037098407746,0.00010360650494694709,-0.07352211313284933
1761469061139640300,7.732640380859375,-0.13571195425987242,-0.0072749594390392296,-0.054185544500127435
1761469061149595400,7.742595458984375,-0.11762976960241794,0.00004807692542672157,-0.07406951788254082
1761469061159551500,7.752551513671875,-0.045102878051996226,0.00849383370950818,-0.06146664141900837
1761469061169506300,7.76250634765625,0.018429975181818006,-0.0013540449574589728,-0.05532550831548869
1761469061179461400,7.77246142578125,0.03558218551278114,-0.022817834877222776,-0.039694808463379735
1761469061189417500,7.78241748046875,0.0516787493109703,0.011212445018440485,-0.04518047333285212
1761469061199372300,7.792372314453125,0.0026829554736614225,0.0040888767488300795,-0.05832366721816361
1761469061209327400,7.802327392578125,-0.0623971272021532,0.021645283966511487,-0.07030081299878656
1761469061219283500,7.812283447265625,-0.10108487751483916,0.013967735075950621,-0.10863711952529848
1761469061229238500,7.822238525390625,-0.07218494624495506,-0.01363031981512904,-0.12306341202370821
1761469061239193300,7.832193359375,-0.008119009047746657,-0.03229907218888402,-0.11810571655109524
1761469061249149400,7.8421494140625,0.042973464807868005,-0.034669892973452805,-0.11672661021761596
1761469061259104500,7.8521044921875,0.0582446836978197,-0.05439341509714722,-0.12482421115115284
1761469061269060400,7.862060302734375,0.06672726536095142,-0.0634165333777666,-0.13001724974960088
1761469061279015400,7.872015380859375,0.0827443341821432,-0.06907894305363298,-0.12796353209018707
1761469061288970500,7.881970458984375,0.07191197452247142,-0.0779369339004159,-0.13249072719104588
1761469061298926300,7.89192626953125,0.12701076140999792,-0.06471358745098113,-0.12030052318163216
1761469061308881400,7.90188134765625,0.15754969205856323,-0.06914104850441218,-0.08549962423965335
1761469061318836500,7.91183642578125,0.09677695118784904,-0.05653364199623465,-0.06167692316882312
1761469061328792300,7.921792236328125,-0.02188333050608635,-0.030938597490638493,-0.07521445013396441
1761469061338747400,7.931747314453125,-0.0820908387094736,0.0020331132628023624,-0.0928706644643098
1761469061348702500,7.941702392578125,-0.13756605769395827,-0.01720072564780712,-0.11153912457711994
1761469061358658300,7.951658203125,-0.1715109973937273,-0.037803514824062585,-0.09465192185789346
1761469061368613400,7.96161328125,-0.14221592932641505,-0.003029138562828302,-0.10153400952182709
1761469061378568400,7.971568359375,-0.059475686797499656,0.0039971068121492865,-0.10454795051552354
1761469061388524300,7.981524169921875,0.027329905474185942,0.006295593012869358,-0.06001278934888541
1761469061398479400,7.991479248046875,0.1278308456212282,-0.0072599080003798,-0.0410967111505568
1761469061410300400,8.003300537109375,0.1923071171849966,-0.034853725107759234,-0.03211787040308118
1761469061420256300,8.01325634765625,0.19018997890055178,-0.04633738828301429,-0.030100027774646876
1761469061430211300,8.02321142578125,0.09626549453437327,-0.03892667363509535,-0.08075337956063448
1761469061440166400,8.03316650390625,-0.054148354294896124,-0.03700447340086102,-0.09591251637823879
1761469061450122200,8.043122314453125,-0.14093874899744988,-0.02045505126863718,-0.07074212702549994
1761469061460077300,8.053077392578125,-0.11690730054676532,0.004052344130724668,-0.06467946598567068
1761469061470032400,8.063032470703124,-0.0383767846673727,-0.006308160233497619,-0.0901411664351821
1761469061479988200,8.07298828125,0.045130935102701185,-0.004883680388331413,-0.09107501321919262
1761469061489943600,8.082943603515625,0.12567162176072597,-0.02674640649780631,-0.06075367084406316
1761469061499898400,8.0928984375,0.14564882638454438,-0.016268851625174285,-0.032539310685545206
1761469061509854200,8.102854248046874,0.1520697993427515,-0.014573738145083188,-0.010206702041998505
1761469061519809500,8.1128095703125,0.11715338426232337,-0.020241554648429153,-0.0505405390612781
1761469061529764400,8.122764404296875,0.16500059258639813,-0.052120940120518204,-0.1411630592726171
1761469061539720200,8.13272021484375,0.11401683980226517,-0.10938435769602656,-0.048048941441252824
1761469061549675500,8.142675537109374,0.09584931494891644,-0.05026902864351868,-0.1058822678592056
1761469061559630300,8.15263037109375,0.11235913572311401,-0.035836306404322386,-0.11243526969924568
1761469061569586400,8.16258642578125,0.2521867086082697,-0.00582797550112009,-0.01683686077147722
1761469061579541500,8.17254150390625,0.284663329321146,-0.012277882292866707,0.04587335096783936
1761469061589496300,8.182496337890624,0.08880465713441371,0.03199672824144363,0.01629793158918619
1761469061599452400,8.192452392578126,-0.23798048860132692,-0.0061138067051768295,-0.04116838814727962
1761469061609407500,8.202407470703125,-0.3808265325248241,0.03575798047110438,-0.17341909603737293
1761469061619363300,8.21236328125,-0.4419090699970722,0.035658757880330086,-0.19109547637291252
1761469061629318400,8.222318359375,-0.42883156175911424,-0.022926117557287216,-0.18314532108604906
1761469061639273500,8.2322734375,-0.3628472237199545,-0.038474838214367625,-0.2086510068077594
1761469061649229300,8.242229248046876,-0.24928455742597577,-0.06410159303247928,-0.22830204821713268
1761469061659184400,8.252184326171875,-0.13653496108055113,-0.07112418514564633,-0.17936835983060298
1761469061669139500,8.262139404296875,-0.029519524472951888,-0.056514937295764685,-0.10660210656635463
1761469061679095600,8.272095458984374,0.050291094344854355,-0.029940818624943494,-0.03456212175004184
1761469061689050400,8.28205029296875,0.13816811524033545,-0.024116788646578787,-0.017684490576758978
1761469061699005400,8.29200537109375,0.2052946090519428,-0.04579641327410936,-0.01731448822058737
1761469061708961500,8.30196142578125,0.20499182671308516,-0.07792772768065333,-0.017814327501505613
1761469061718916400,8.311916259765624,0.1525140359789133,-0.07684168600961566,-0.07012326447479426
1761469061728871400,8.321871337890625,0.0405336704403162,-0.07040756130889057,-0.09470284832753241
1761469061738827500,8.33182763671875,-0.1093096850246191,-0.06376154742315411,-0.10877294779941439
1761469061749405400,8.342405517578126,-0.16147943272292614,-0.03388151907473803,-0.10855747841782867
1761469061759360300,8.3523603515625,-0.11766425639390944,-0.03125160896256566,-0.06247318811304867
1761469061769316400,8.36231640625,-0.05659750101268291,-0.04718041497841477,-0.05081687178462743
1761469061779271400,8.372271484375,0.02215630222856998,-0.03762435886487365,-0.03660561027638614
1761469061789226200,8.382226318359375,0.09716098206937313,-0.026206454402208326,0.012992021911591291
1761469061799182300,8.392182373046875,0.15885376039445398,-0.05175225293859839,0.06379544969275594
1761469061809137400,8.402137451171875,0.1525216347634792,-0.031333295896649356,0.06338372708670795
1761469061819092500,8.412092529296874,0.14247019634842872,-0.023822189614176748,0.06534764757081866
1761469061829048300,8.42204833984375,0.10490005188882351,-0.03441445690765977,0.03723879361338913
1761469061839003400,8.43200341796875,0.027492987081408498,-0.05344254411309957,-0.015364523196592926
1761469061848958500,8.44195849609375,-0.07523556598722934,-0.0715595078229904,-0.05734503144435584
1761469061858914300,8.451914306640624,-0.1170259584903717,-0.05661109114661812,-0.08463730832189321
1761469061868869400,8.461869384765626,-0.14042086260318756,-0.036369682628661394,-0.06390380543805659
1761469061878824400,8.471824462890625,-0.1550274801045656,-0.017509353205561635,-0.05916983571872115
1761469061888780300,8.4817802734375,-0.10085632945597171,-0.016430471927672625,-0.0404648429878056
1761469061898735400,8.4917353515625,-0.06159457864761352,-0.03906622823625803,-0.03375160908475518
1761469061908690400,8.5016904296875,-0.09327624959051609,-0.042304625635594124,-0.06892894012369215
1761469061918646300,8.511646240234375,-0.12302782925367355,-0.05022869663313031,-0.1220391835425049
1761469061928601600,8.5216015625,-0.11814707147479056,-0.05262026794478297,-0.11435988108627497
1761469061938556400,8.531556396484374,-0.12163316002488135,-0.04625000226050615,-0.11505465841740369
1761469061948512300,8.54151220703125,-0.08898702796399593,-0.03460121165141463,-0.12067322895154356
1761469061958467600,8.551467529296875,-0.05774900913536548,-0.052260640852153296,-0.12444105705246329
1761469061968423400,8.56142333984375,-0.03624094168245792,-0.07090411265417933,-0.12306428880654274
1761469061978378200,8.571378173828125,0.015050854137539862,-0.07805895284488797,-0.15015249447934328
1761469061988333600,8.58133349609375,0.0467249262958765,-0.07322904847040772,-0.18037424893751738
1761469061998289400,8.591289306640626,0.02493453477025032,-0.08984379092380404,-0.15951295495554804
1761469062008244500,8.601244384765625,0.005337853896617889,-0.05813640101775527,-0.13198138942942023
1761469062018199600,8.611199462890625,-0.03589373567998409,-0.02149491571038961,-0.12375007911361753
1761469062028155400,8.6211552734375,-0.025306875213980673,0.028084961625188587,-0.1298926004566252
1761469062038110500,8.6311103515625,0.015878537133336066,0.022421967427432535,-0.1011032899543643
1761469062048065500,8.6410654296875,0.0532604655444622,0.017446078711003066,-0.10245726184658706
1761469062058021400,8.651021484375,0.06559680002629757,0.011030512580275535,-0.13487433439195154
1761469062067976400,8.6609765625,0.014276947155594825,-0.006971446447819471,-0.13717355124503372
1761469062077931500,8.670931640625,-0.05092237798571586,-0.005849164419621229,-0.11647636178359388
1761469062087887400,8.680887451171875,0.042726796570420264,0.0037527766622602937,-0.08952668779864907
1761469062097842400,8.690842529296875,-0.016772271102666853,-0.019733020604401824,-0.06996705099977553
1761469062107797500,8.700797607421874,0.006405775389075279,0.008689502412080764,-0.10083404455892742
1761469062117753300,8.71075341796875,0.030219197174906728,0.007619242832064628,-0.11498963035717606
1761469062127708400,8.72070849609375,0.015296353331208228,-0.04505509338751435,-0.10644771972224115
1761469062137664300,8.730664306640625,0.08008534410595894,-0.07395137139558791,-0.1240145022034645
1761469062147619300,8.740619384765624,0.10414309604167937,-0.09575272270664573,-0.10560155122168362
1761469062157574400,8.750574462890626,0.15736615218520164,-0.07094108366370201,-0.11263554151169955
1761469062167530200,8.7605302734375,0.17622633547782898,-0.059265697308629746,-0.09657331837452948
1761469062177485600,8.770485595703125,0.07924597067236899,-0.013475567644834518,-0.07006897700428963
1761469062187440400,8.7804404296875,-0.012543839752674101,0.019893764124065638,-0.10715886366628109
1761469062197396200,8.790396240234376,-0.03258943343758583,-0.011878946103155612,0.02795366339571774
1761469062207351600,8.8003515625,-0.14668810630440712,0.006444646094739437,0.003381970588490367
1761469062217306400,8.810306396484375,-0.2533627666503191,0.011512304747849702,-0.05446048898398876
1761469062227262200,8.82026220703125,-0.31794834380745884,-0.00515592145845294,-0.0052704146835952995
1761469062237217500,8.830217529296876,-0.2994336129516363,0.016798282326757907,-0.031290114342048765
1761469062247172400,8.84017236328125,-0.23929157119989394,-0.03445800378844142,-0.012227248084172606
1761469062257128400,8.85012841796875,-0.12848200300633908,-0.08659326469525694,-0.0006030804596841335
1761469062267083500,8.86008349609375,0.06610416502654552,-0.09451295177862047,0.006794555510953068
1761469062277038300,8.870038330078126,0.3017559184193611,-0.09316182943060994,0.0017097995925694704
