time,seconds_elapsed,z,y,x
1761469053471539200,0.064539306640625,-0.0992470532655716,-0.2568904161453247,-0.22074641287326813
1761469053481494500,0.07449462890625,-0.14566917717456818,-0.23812972009181976,-0.18693798780441284
1761469053491450400,0.084450439453125,-0.15646377205848694,-0.22055844962596893,-0.12732473015785217
1761469053501405400,0.094405517578125,-0.14898329973220825,-0.22194141149520874,-0.05583798512816429
1761469053511360500,0.104360595703125,-0.14496514201164246,-0.2409161627292633,-0.01593238115310669
1761469053521316400,0.11431640625,-0.14169086515903473,-0.2626923620700836,0.0001352864783257246
1761469053531271400,0.124271484375,-0.1069219633936882,-0.2667326331138611,0.018066350370645523
1761469053541226500,0.1342265625,-0.06714215129613876,-0.22825072705745697,0.042486947029829025
1761469053551182300,0.144182373046875,-0.02877984195947647,-0.1436186581850052,0.08213981240987778
1761469053561137400,0.154137451171875,0.014879684895277023,-0.03481923043727875,0.1368677020072937
1761469053571092500,0.164092529296875,0.06473726034164429,0.0639004185795784,0.1837952584028244
1761469053581048300,0.17404833984375,0.11694277077913284,0.13577033579349518,0.20707949995994568
1761469053591003400,0.18400341796875,0.16206498444080353,0.17452386021614075,0.20496468245983124
1761469053600958500,0.19395849609375,0.1919129490852356,0.1975625902414322,0.19526031613349915
1761469053610914600,0.20391455078125,0.1941276341676712,0.21093939244747162,0.1895534247159958
1761469053620869400,0.213869384765625,0.1791304647922516,0.22303014993667603,0.18702851235866547
1761469053630824400,0.223824462890625,0.15592394769191742,0.21996672451496124,0.19004960358142853
1761469053640780500,0.233780517578125,0.135142982006073,0.199459046125412,0.18803980946540833
1761469053650735400,0.2437353515625,0.12430018186569214,0.18062756955623627,0.16897450387477875
1761469053660690400,0.2536904296875,0.12587325274944305,0.16539046168327332,0.12430252879858017
1761469053670646500,0.263646484375,0.13716799020767212,0.1586284339427948,0.059184253215789795
1761469053680601300,0.273601318359375,0.1633317768573761,0.15140129625797272,-0.00851353257894516
1761469053690556200,0.28355615234375,0.19373363256454468,0.15087558329105377,-0.06588388234376907
1761469053700512500,0.293512451171875,0.20564335584640503,0.1579045057296753,-0.10605838149785995
1761469053710467300,0.30346728515625,0.2129281759262085,0.17138436436653137,-0.12566404044628143
1761469053720423400,0.31342333984375,0.2083720564842224,0.17209778726100922,-0.12905223667621613
1761469053730378500,0.32337841796875,0.2052425742149353,0.15589670836925507,-0.13880208134651184
1761469053740333300,0.333333251953125,0.20076784491539001,0.13043212890625,-0.15117064118385315
1761469053750288100,0.3432880859375,0.19024649262428284,0.06837542355060577,-0.16752085089683533
1761469053760244500,0.353244384765625,0.17159731686115265,-0.012993511743843555,-0.17906276881694794
1761469053770199300,0.36319921875,0.14492549002170563,-0.08623257279396057,-0.17537695169448853
1761469053780154400,0.373154296875,0.1159510612487793,-0.1553395390510559,-0.1487915962934494
1761469053790110500,0.3831103515625,0.07917679846286774,-0.21756722033023834,-0.11526081711053848
1761469053800065300,0.393065185546875,0.039023131132125854,-0.24708928167819977,-0.08315233141183853
1761469053810020400,0.403020263671875,0.004294444806873798,-0.24034589529037476,-0.05926164239645004
1761469053819976400,0.4129765625,-0.017050985246896744,-0.2124699354171753,-0.05362559109926224
1761469053829931300,0.42293115234375,-0.032883211970329285,-0.18600423634052277,-0.06188938021659851
1761469053839887400,0.432887451171875,-0.05125352740287781,-0.15735259652137756,-0.08297332376241684
1761469053849842400,0.442842529296875,-0.06120842322707176,-0.13049888610839844,-0.11712436378002167
1761469053859797500,0.452797607421875,-0.06711472570896149,-0.1295536309480667,-0.1458406001329422
1761469053869753300,0.46275341796875,-0.07007536292076111,-0.14182442426681519,-0.1596733182668686
1761469053879708400,0.47270849609375,-0.061895016580820084,-0.12729665637016296,-0.15877102315425873
1761469053889663500,0.48266357421875,-0.048294518142938614,-0.08739824593067169,-0.13369868695735931
1761469053899619300,0.492619384765625,-0.03760901838541031,-0.06120207533240318,-0.10679122060537338
1761469053909574100,0.50257421875,-0.03433599695563316,-0.05975757911801338,-0.08702391386032104
1761469053919529500,0.512529541015625,-0.03263188153505325,-0.08436748385429382,-0.06253387033939362
1761469053929485300,0.5224853515625,-0.041555602103471756,-0.11529556661844254,-0.0613492950797081
1761469053939440000,0.532440185546875,-0.06096728518605232,-0.12750297784805298,-0.0780995562672615
1761469053949395500,0.5423955078125,-0.09096486121416092,-0.1068994328379631,-0.11396247893571854
1761469053959351300,0.552351318359375,-0.11923038959503174,-0.07275693118572235,-0.1601226031780243
1761469053969306400,0.562306396484375,-0.1460934281349182,-0.0523560531437397,-0.20572176575660706
1761469053979261400,0.572261474609375,-0.17261843383312225,-0.06553085893392563,-0.24075111746788025
1761469053989217300,0.58221728515625,-0.1996348798274994,-0.08889024704694748,-0.24446970224380493
1761469053999172400,0.59217236328125,-0.21515852212905884,-0.09966737776994705,-0.22177956998348236
1761469054009127400,0.60212744140625,-0.2135523557662964,-0.1084078699350357,-0.19006957113742828
1761469054019083300,0.612083251953125,-0.19497226178646088,-0.11378812044858932,-0.16096127033233643
1761469054029038300,0.622038330078125,-0.1585221141576767,-0.11370743066072464,-0.13713690638542175
1761469054038993400,0.631993408203125,-0.1198815107345581,-0.10377277433872223,-0.11830009520053864
1761469054048949200,0.64194921875,-0.08331011980772018,-0.08646763116121292,-0.12006095051765442
1761469054058904300,0.651904296875,-0.05348699539899826,-0.062489356845617294,-0.1390547901391983
1761469054068859400,0.661859375,-0.03464726358652115,-0.05307028815150261,-0.16445468366146088
1761469054078815500,0.6718154296875,-0.03809026628732681,-0.06467237323522568,-0.18687911331653595
1761469054088770300,0.681770263671875,-0.05245988443493843,-0.07474072277545929,-0.18992070853710175
1761469054098725400,0.691725341796875,-0.06597241014242172,-0.07643124461174011,-0.17583207786083221
1761469054108681500,0.701681396484375,-0.07368040084838867,-0.08783064037561417,-0.15087531507015228
1761469054118636300,0.71163623046875,-0.08421717584133148,-0.10411904007196426,-0.12559722363948822
1761469054128591400,0.72159130859375,-0.0875525251030922,-0.11150265485048294,-0.10305117070674896
1761469054138547500,0.73154736328125,-0.08382237702608109,-0.10433925688266754,-0.0849616527557373
1761469054148502300,0.741502197265625,-0.07312925159931183,-0.07599443197250366,-0.06766469031572342
1761469054158457300,0.751457275390625,-0.06697268038988113,-0.03739975392818451,-0.049342330545186996
1761469054168413400,0.761413330078125,-0.06446105241775513,-0.011728215962648392,-0.03161925822496414
1761469054178368300,0.7713681640625,-0.06428652256727219,0.00042155128903687,-0.0229804590344429
1761469054188323300,0.7813232421875,-0.06300713866949081,0.023504767566919327,-0.018650958314538002
1761469054198279400,0.791279541015625,-0.0630970299243927,0.055198632180690765,-0.013647228479385376
1761469054208234200,0.801234130859375,-0.06718764454126358,0.06076543778181076,-0.012449339032173157
1761469054218189600,0.811189453125,-0.07575979828834534,0.047928787767887115,-0.016425900161266327
1761469054228145400,0.8211455078125,-0.08334394544363022,0.032575130462646484,-0.02409394085407257
1761469054238100200,0.831100341796875,-0.08713148534297943,0.0360189750790596,-0.032595761120319366
1761469054248055600,0.8410556640625,-0.08956055343151093,0.03540698066353798,-0.04177834093570709
1761469054258011400,0.851011474609375,-0.08838168531656265,0.01689356192946434,-0.05140933766961098
1761469054267966200,0.86096630859375,-0.08447562158107758,-0.021031981334090233,-0.06444177776575089
1761469054277921500,0.870921630859375,-0.08447156101465225,-0.06271965801715851,-0.06748203933238983
1761469054287877400,0.88087744140625,-0.08833767473697662,-0.08352693170309067,-0.054214704781770706
1761469054297832200,0.890832275390625,-0.09285333752632141,-0.05235802382230759,-0.021848753094673157
1761469054307787500,0.90078759765625,-0.08971906453371048,0.017927587032318115,0.017583074048161507
1761469054317743400,0.910743408203125,-0.08516500890254974,0.08952268213033676,0.03836176544427872
1761469054327698400,0.920698486328125,-0.07971937209367752,0.12337997555732727,0.033363547176122665
1761469054337653500,0.930653564453125,-0.08011545240879059,0.12442097812891006,0.02013527974486351
1761469054347609300,0.940609375,-0.07685627788305283,0.0963326245546341,-0.0006901072338223457
1761469054357564400,0.950564453125,-0.06407768279314041,0.04286753013730049,-0.030577609315514565
1761469054367519500,0.96051953125,-0.04552264139056206,-0.022567667067050934,-0.0643233209848404
1761469054377475300,0.970475341796875,-0.02825026772916317,-0.06726045161485672,-0.07616124302148819
1761469054387430400,0.980430419921875,-0.00983637198805809,-0.08718276023864746,-0.06372721493244171
1761469054397385500,0.990385498046875,0.006086701061576605,-0.09431305527687073,-0.05106887221336365
1761469054407341300,1.00034130859375,0.021196410059928894,-0.09530214965343475,-0.04486770182847977
1761469054417296400,1.01029638671875,0.028849828988313675,-0.07733020931482315,-0.040577661246061325
1761469054427251500,1.02025146484375,0.027928108349442482,-0.05527656897902489,-0.03249017521739006
1761469054437207600,1.03020751953125,0.022280720993876457,-0.03070419654250145,-0.023763056844472885
1761469054447162400,1.040162353515625,0.010287175886332989,-0.022733090445399284,-0.022322019562125206
1761469054457117400,1.050117431640625,-0.003759315237402916,-0.03136593848466873,-0.022834165021777153
1761469054467073500,1.060073486328125,-0.011934420093894005,-0.043965622782707214,-0.027362337335944176
1761469054477028400,1.0700283203125,-0.013140907511115074,-0.04723300039768219,-0.021622352302074432
1761469054486983400,1.0799833984375,-0.011909727938473225,-0.03801020607352257,-0.014887485653162003
1761469054496939500,1.089939453125,-0.014417340978980064,-0.006969080306589603,-0.003491993062198162
1761469054506894300,1.099894287109375,-0.017135098576545715,0.03644683584570885,0.0003911620005965233
1761469054516849200,1.10984912109375,-0.012916584499180317,0.07815852761268616,0.002950083464384079
1761469054526805500,1.119805419921875,-0.005490626208484173,0.0846308097243309,-0.013519704341888428
1761469054536760300,1.12976025390625,-0.0030224486254155636,0.0610085055232048,-0.0373794324696064
1761469054546715100,1.139715087890625,0.0010476602474227548,0.034604862332344055,-0.04973863065242767
1761469054556671500,1.14967138671875,0.0022000661119818687,0.009238611906766891,-0.05422435328364372
1761469054566626300,1.159626220703125,0.003190229181200266,-0.013260038569569588,-0.05320010334253311
1761469054576581400,1.169581298828125,0.015017034485936165,-0.04419784992933273,-0.038432031869888306
1761469054586537500,1.179537353515625,0.02727636508643627,-0.07109791040420532,-0.010788153856992722
1761469054596492300,1.1894921875,0.03876056894659996,-0.07378341257572174,-0.0066738435998559
1761469054606447400,1.199447265625,0.05710522085428238,-0.06486235558986664,-0.004481795709580183
1761469054616403500,1.209403564453125,0.08055824786424637,-0.06664577126502991,0.017052754759788513
1761469054626358300,1.219358154296875,0.09591004252433777,-0.06276900321245193,0.035897284746170044
1761469054636313300,1.229313232421875,0.10334699600934982,-0.03896457701921463,0.04486715421080589
1761469054646269400,1.23926953125,0.09864678233861923,-0.0020022979006171227,0.02945757284760475
1761469054656224300,1.249224365234375,0.09077447652816772,0.03694972023367882,-0.0010966840200126171
1761469054666179300,1.259179443359375,0.07610205560922623,0.04166671261191368,-0.01762505993247032
1761469054676135400,1.269135498046875,0.06402543187141418,0.018314892426133156,-0.015105389058589935
1761469054686090500,1.279090576171875,0.055722761899232864,-0.014746122993528843,-0.0076791648752987385
1761469054696045300,1.28904541015625,0.05322691798210144,-0.03443368524312973,0.001368129625916481
1761469054706001400,1.29900146484375,0.05014830455183983,-0.027989370748400688,0.005563939921557903
1761469054715956500,1.30895654296875,0.04190805181860924,-0.004191376268863678,0.01450040191411972
1761469054725911300,1.318911376953125,0.033403512090444565,0.011826472356915474,0.028170941397547722
1761469054735867100,1.3288671875,0.023746298626065254,0.017278043553233147,0.050092458724975586
1761469054745822500,1.338822509765625,0.012849709019064903,0.02102457731962204,0.07892517000436783
1761469054755777300,1.34877734375,0.0010529053397476673,0.02673712559044361,0.10186681151390076
1761469054765733000,1.358733154296875,-0.008124081417918205,0.029223719611763954,0.11510565131902695
1761469054775688400,1.3686884765625,-0.010872004553675652,0.03521518036723137,0.1291881799697876
1761469054785643300,1.378643310546875,-0.008804592303931713,0.048437509685754776,0.1376437097787857
1761469054795599400,1.388599365234375,-0.0003432098892517388,0.06243834272027016,0.13438083231449127
1761469054805554400,1.398554443359375,0.007418839260935783,0.04946262389421463,0.1179770976305008
1761469054815509200,1.40850927734375,0.011637549847364426,0.03213787078857422,0.09773422032594681
1761469054825465300,1.41846533203125,0.018571622669696808,0.038068994879722595,0.0841750055551529
1761469054835420400,1.42842041015625,0.02707151137292385,0.050548005849123,0.06914758682250977
1761469054845375200,1.438375244140625,0.03864055126905441,0.036674536764621735,0.04060675576329231
1761469054855331300,1.448331298828125,0.05118493735790253,0.01663876511156559,0.01137799397110939
1761469054865286400,1.458286376953125,0.06826751679182053,0.01058566477149725,-0.005645997356623411
1761469054875241200,1.4682412109375,0.08472910523414612,0.013894469477236271,-0.013505415990948677
1761469054885197300,1.478197265625,0.09697138518095016,0.010758064687252045,-0.021901831030845642
1761469054895152400,1.48815234375,0.10333152115345001,-0.005441637244075537,-0.02863258495926857
1761469054905107200,1.498107177734375,0.0999639555811882,-0.027003122493624687,-0.01521611213684082
1761469054915063300,1.508063232421875,0.09517006576061249,-0.019469186663627625,0.009489771910011768
1761469054925018400,1.518018310546875,0.09501294046640396,0.007937137968838215,0.03201638534665108
1761469054934973200,1.52797314453125,0.09945674240589142,0.026747578755021095,0.04940460994839668
1761469054944929300,1.53792919921875,0.11022390425205231,0.03567875549197197,0.06351243704557419
1761469054954884400,1.54788427734375,0.1219804584980011,0.03780781850218773,0.07305796444416046
1761469054964839400,1.55783935546875,0.13523608446121216,0.030452700331807137,0.08485709875822067
1761469054974795300,1.567795166015625,0.13854405283927917,0.009716182947158813,0.08721081912517548
1761469054984750300,1.577750244140625,0.1353176236152649,-0.006758929695934057,0.09105829149484634
1761469054994705400,1.587705322265625,0.12902085483074188,-0.011383137665688992,0.08963275700807571
1761469055004661200,1.5976611328125,0.123911052942276,-0.01909857988357544,0.08251731842756271
1761469055014616300,1.6076162109375,0.118082694709301,-0.02785971388220787,0.07482216507196426
1761469055024571400,1.6175712890625,0.11503470689058304,-0.02893376722931862,0.06964843720197678
1761469055034527200,1.62752734375,0.1093212366104126,-0.02803456410765648,0.06868225336074829
1761469055044482600,1.637482666015625,0.10098421573638916,-0.0315784327685833,0.06388536840677261
1761469055054437400,1.647437255859375,0.09386420249938965,-0.027512745931744576,0.05988011509180069
1761469055064393200,1.657393310546875,0.08444833010435104,-0.006172301713377237,0.05078914761543274
1761469055074348500,1.6673486328125,0.07818565517663956,0.012234601192176342,0.03437020257115364
1761469055084303400,1.677303466796875,0.06922145932912827,0.01171155646443367,0.01066114567220211
1761469055094260200,1.68726025390625,0.06017695367336273,0.0003112165431957692,-0.017253393307328224
1761469055104215000,1.697215087890625,0.049132559448480606,-0.0056731728836894035,-0.043607234954833984
1761469055114170000,1.707170166015625,0.04279590770602226,0.0018573016859591007,-0.056189339607954025
1761469055124126200,1.717126220703125,0.03729887679219246,0.010978895239531994,-0.06061311811208725
1761469055134081000,1.7270810546875,0.029736323282122612,0.010382479056715965,-0.06822873651981354
1761469055144036000,1.7370361328125,0.026463564485311508,0.002554650418460369,-0.08303404599428177
1761469055153992200,1.7469921875,0.029509492218494415,0.004696656949818134,-0.08971050381660461
1761469055163947000,1.756947021484375,0.03340143337845802,0.006346218753606081,-0.09003381431102753
1761469055173902000,1.766902099609375,0.030629940330982208,-0.005686554592102766,-0.08470826596021652
1761469055183858200,1.776858154296875,0.03431682288646698,-0.005480426363646984,-0.06613298505544662
1761469055193813000,1.78681298828125,0.04295601323246956,0.014414637349545956,-0.03670041263103485
1761469055203768300,1.796768310546875,0.047211211174726486,0.03919828310608864,-0.018365878611803055
1761469055213724200,1.80672412109375,0.04312258958816528,0.04508567973971367,-0.008155746385455132
1761469055223679000,1.816678955078125,0.0408056415617466,0.040429674088954926,-0.00697383563965559
1761469055233634300,1.82663427734375,0.04025157913565636,0.029359059408307076,-0.016049273312091827
1761469055243590100,1.836590087890625,0.03603978827595711,0.02301354520022869,-0.030219152569770813
1761469055253545000,1.846544921875,0.03173406049609184,0.012962974607944489,-0.04725177586078644
1761469055263500300,1.856500244140625,0.03099662810564041,0.008235064335167408,-0.06403981149196625
1761469055273456000,1.8664560546875,0.03835797309875488,0.004048390779644251,-0.07673921436071396
1761469055283411200,1.8764111328125,0.04957467317581177,-0.007748081348836422,-0.09007205814123154
1761469055293366300,1.8863662109375,0.0607871413230896,-0.02573307417333126,-0.09728101640939713
1761469055303322000,1.896322021484375,0.07237588614225388,-0.06139732897281647,-0.09174883365631104
1761469055313277200,1.906277099609375,0.08820018917322159,-0.10382731258869171,-0.06809082627296448
1761469055323232300,1.916232177734375,0.09383544325828552,-0.1405501812696457,-0.06451713293790817
1761469055333188000,1.92618798828125,0.09568633884191513,-0.1656012088060379,-0.05395450070500374
1761469055343143200,1.93614306640625,0.10139482468366623,-0.15342843532562256,-0.05373558774590492
1761469055353098200,1.94609814453125,0.10793985426425934,-0.11954130977392197,-0.06086615473031998
1761469055363054000,1.95605419921875,0.11336497962474823,-0.08897754549980164,-0.07433375716209412
1761469055373009200,1.966009033203125,0.12274777889251709,-0.05974098667502403,-0.07334744930267334
1761469055382964200,1.975964111328125,0.1291087567806244,-0.0210894662886858,-0.05523475632071495
1761469055392920300,1.98592041015625,0.12767688930034637,0.020977945998311043,-0.023886241018772125
1761469055402875100,1.995875244140625,0.13095736503601074,0.05447278916835785,0.005029031075537205
1761469055412831000,2.0058310546875,0.13502056896686554,0.06717457622289658,0.015975210815668106
1761469055422786300,2.015786376953125,0.13900251686573029,0.050313301384449005,0.011387916281819344
1761469055432741000,2.0257412109375,0.1406540721654892,0.019249340519309044,0.000276780454441905
1761469055442697000,2.035697021484375,0.1416594237089157,-0.010338911786675453,-0.0037888013757765293
1761469055452652300,2.04565234375,0.14394856989383698,-0.0363166369497776,-0.005851357709616423
1761469055462607000,2.055607177734375,0.1510927677154541,-0.0674617737531662,-0.007419160101562738
1761469055472563200,2.065563232421875,0.1595187485218048,-0.09157057106494904,-0.0010848320089280605
1761469055482518300,2.075518310546875,0.1661260426044464,-0.1084081381559372,0.006140590645372868
1761469055492473000,2.08547314453125,0.16309323906898499,-0.1257956475019455,0.017811628058552742
1761469055502429200,2.09542919921875,0.15460121631622314,-0.1257122904062271,0.03555094450712204
1761469055512384300,2.10538427734375,0.14022524654865265,-0.10963978618383408,0.059183768928050995
1761469055522339000,2.115339111328125,0.1292993575334549,-0.08742103725671768,0.08737493306398392
1761469055532295200,2.125295166015625,0.11521999537944794,-0.06449205428361893,0.11534607410430908
1761469055542250200,2.135250244140625,0.10042800009250641,-0.05055999383330345,0.13576959073543549
1761469055552205000,2.145205078125,0.08779875934123993,-0.04158300906419754,0.1547400802373886
1761469055562161200,2.1551611328125,0.0767493024468422,-0.030528759583830833,0.17624591290950775
1761469055572116200,2.1651162109375,0.06834139674901962,-0.028472788631916046,0.1718255579471588
1761469055582071000,2.175071044921875,0.058059461414813995,-0.034360237419605255,0.15283800661563873
1761469055592027100,2.185027099609375,0.05028501898050308,-0.03723437339067459,0.13013732433319092
1761469055601982200,2.194982177734375,0.044479597359895706,-0.0441569946706295,0.11361721158027649
1761469055611937000,2.20493701171875,0.03671160712838173,-0.07050876319408417,0.10062659531831741
1761469055621893000,2.21489306640625,0.027044329792261124,-0.1003742516040802,0.08859230577945709
1761469055631848200,2.22484814453125,0.016768116503953934,-0.11244294792413712,0.07468324899673462
1761469055641803300,2.23480322265625,0.006594840902835131,-0.10934356600046158,0.06275708228349686
1761469055651759000,2.244759033203125,-0.006827519275248051,-0.09043427556753159,0.05765112489461899
1761469055661714200,2.254714111328125,-0.017285220324993134,-0.06545649468898773,0.0581938773393631
1761469055671669200,2.264669189453125,-0.028165128082036972,-0.049198318272829056,0.05942182242870331
1761469055681625000,2.274625,-0.03687499836087227,-0.044678132981061935,0.05720420926809311
1761469055691580200,2.284580078125,-0.04020814225077629,-0.032642751932144165,0.060801684856414795
1761469055701535200,2.29453515625,-0.04716112092137337,-0.019394589588046074,0.05943628400564194
1761469055711491000,2.304490966796875,-0.05052516981959343,-0.012273205444216728,0.049142468720674515
1761469055721446100,2.314446044921875,-0.05697481334209442,-0.009232141077518463,0.03847704082727432
1761469055731401200,2.324401123046875,-0.06335517764091492,0.002269584219902754,0.026016047224402428
1761469055741357000,2.334357177734375,-0.07165571302175522,0.015438648872077465,0.014751408249139786
1761469055751312100,2.34431201171875,-0.08459608256816864,0.025031063705682755,0.002782815136015415
1761469055761267200,2.35426708984375,-0.09172297269105911,0.0368400514125824,-0.0042468649335205555
1761469055771223000,2.36422314453125,-0.10372127592563629,0.04373333975672722,-0.010148284025490284
1761469055781178000,2.37417822265625,-0.11334460973739624,0.05169352889060974,-0.018799828365445137
1761469055791133200,2.38413330078125,-0.11821333318948746,0.06663788110017776,-0.03102499060332775
1761469055801089000,2.394089111328125,-0.11752623319625854,0.0649385154247284,-0.047203429043293
1761469055811044000,2.404044189453125,-0.1158854067325592,0.05443830043077469,-0.06789688766002655
1761469055820999200,2.413999267578125,-0.10754013061523438,0.03880900889635086,-0.07931492477655411
1761469055830955300,2.423955322265625,-0.09956509619951248,0.026370154693722725,-0.0755855068564415
1761469055840910000,2.43391015625,-0.08018261194229126,0.024552548304200172,-0.056205954402685165
1761469055850865200,2.443865234375,-0.06050246208906174,0.026720132678747177,-0.028479576110839844
1761469055860821200,2.4538212890625,-0.039515420794487,0.019849976524710655,-0.008859270252287388
1761469055870776000,2.463776123046875,-0.022439081221818924,0.011637040413916111,0.007856997661292553
1761469055880732200,2.473732177734375,-0.011696156114339828,-0.008148648776113987,0.023073501884937286
1761469055890687200,2.483687255859375,-0.004833330400288105,-0.034037381410598755,0.043560050427913666
1761469055900642000,2.49364208984375,-0.004068736918270588,-0.049931395798921585,0.07132323831319809
1761469055910598100,2.50359814453125,-0.008267714641988277,-0.052856650203466415,0.10620227456092834
1761469055920553200,2.51355322265625,-0.012838231399655342,-0.05354081466794014,0.14352194964885712
1761469055930508000,2.523508056640625,-0.013055124320089817,-0.04443139210343361,0.16548430919647217
1761469055940464400,2.53346435546875,-0.012034867890179157,-0.03173796832561493,0.17249800264835358
1761469055950419200,2.543419189453125,-0.008639798499643803,-0.01959862932562828,0.17295420169830322
1761469055960374000,2.5533740234375,-0.00904140342026949,-0.015463005751371384,0.16285602748394012
1761469055970330000,2.563330078125,-0.011563640087842941,-0.017407752573490143,0.14147204160690308
1761469055980285200,2.57328515625,-0.015624161809682846,-0.023864055052399635,0.11189257353544235
1761469055990240000,2.583239990234375,-0.02189578302204609,-0.03966429457068443,0.07709304243326187
1761469056000196000,2.593196044921875,-0.027298538014292717,-0.04237326234579086,0.04861452430486679
1761469056010151200,2.603151123046875,-0.03734349086880684,-0.030593102797865868,0.02435852214694023
1761469056020106000,2.61310595703125,-0.0532526820898056,-0.006578846834599972,0.004192798398435116
1761469056030062000,2.62306201171875,-0.06853029876947403,0.02259347215294838,-0.010136179625988007
1761469056040017200,2.63301708984375,-0.07600525766611099,0.0467749759554863,-0.02249191328883171
1761469056049972000,2.642971923828125,-0.0840262919664383,0.055980339646339417,-0.039464954286813736
1761469056059928000,2.652927978515625,-0.09238941222429276,0.0533914789557457,-0.058767013251781464
1761469056069883100,2.662883056640625,-0.1043512150645256,0.0584515780210495,-0.07715364545583725
1761469056079838000,2.672837890625,-0.11549068987369537,0.06532280147075653,-0.0944008082151413
1761469056089794000,2.6827939453125,-0.1298629492521286,0.07696110755205154,-0.10621096193790436
1761469056099748400,2.692748291015625,-0.14514310657978058,0.0893796980381012,-0.1197052001953125
1761469056109703400,2.702703369140625,-0.15990281105041504,0.09290394186973572,-0.12644262611865997
1761469056119659500,2.712659423828125,-0.17021989822387695,0.09162003546953201,-0.1287502646446228
1761469056129614300,2.7226142578125,-0.17347531020641327,0.09273925423622131,-0.13205485045909882
1761469056139569400,2.7325693359375,-0.17359700798988342,0.08580571413040161,-0.13525809347629547
1761469056149525500,2.742525390625,-0.16986285150051117,0.08596084266901016,-0.13023079931735992
1761469056159480300,2.752480224609375,-0.1636025607585907,0.08482926338911057,-0.11998854577541351
1761469056169435100,2.76243505859375,-0.1471155285835266,0.08435841649770737,-0.11227328330278397
1761469056179391500,2.7723916015625,-0.13810579478740692,0.09517830610275269,-0.11018536984920502
1761469056189346300,2.78234619140625,-0.13489224016666412,0.09889104217290878,-0.11210332810878754
1761469056199301000,2.792301025390625,-0.13069909811019897,0.08198768645524979,-0.1184682846069336
1761469056209257500,2.802257568359375,-0.12065557390451431,0.04739811271429062,-0.12471072375774384
1761469056219212300,2.81221240234375,-0.11228126287460327,0.028302984312176704,-0.12293705344200134
1761469056229167400,2.82216748046875,-0.09565138071775436,0.01355516817420721,-0.11901794373989105
1761469056239123500,2.83212353515625,-0.08101358264684677,0.004660210572183132,-0.11273501068353653
1761469056249078300,2.842078369140625,-0.06987371295690536,0.00004989348235540092,-0.10403251647949219
1761469056259033300,2.852033447265625,-0.06253856420516968,-0.007689252495765686,-0.09356922656297684
1761469056268989400,2.861989501953125,-0.05389216169714928,-0.018724018707871437,-0.07908035814762115
1761469056278944300,2.8719443359375,-0.051423147320747375,-0.027091937139630318,-0.061509884893894196
1761469056288899300,2.8818994140625,-0.04612128064036369,-0.029023729264736176,-0.03655373305082321
1761469056298855400,2.89185546875,-0.043240007013082504,-0.025483855977654457,-0.010767143219709396
1761469056308810500,2.901810546875,-0.03906650096178055,-0.017160823568701744,0.019512467086315155
1761469056318765300,2.911765380859375,-0.035923704504966736,-0.006120157428085804,0.0402584932744503
1761469056328721400,2.921721435546875,-0.022721068933606148,0.006705026607960463,0.053331661969423294
1761469056338676500,2.931676513671875,-0.00964707788079977,0.004002450965344906,0.054954592138528824
1761469056348631300,2.94163134765625,0.007982222363352776,-0.01104028057307005,0.050378527492284775
1761469056358587400,2.95158740234375,0.027661118656396866,-0.029079200699925423,0.05099105462431908
1761469056368542500,2.96154248046875,0.04228754714131355,-0.029128510504961014,0.05687376856803894
1761469056378498300,2.971498291015625,0.05440279841423035,-0.015347185544669628,0.0631585642695427
1761469056388453000,2.981453125,0.06039337441325188,0.005456816870719194,0.06693681329488754
1761469056398408400,2.991408447265625,0.06794583797454834,0.006593986880034208,0.05513421818614006
1761469056408364300,3.0013642578125,0.06762129813432693,-0.0024968874640762806,0.035276904702186584
1761469056418319400,3.0113193359375,0.06708387285470963,-0.010020850226283073,0.01622704602777958
1761469056428274400,3.0212744140625,0.06587731093168259,-0.013230306096374989,-0.003850852604955435
1761469056438230300,3.031230224609375,0.06557796895503998,-0.015370954759418964,-0.022175263613462448
1761469056448185300,3.041185302734375,0.06343948841094971,-0.017195887863636017,-0.03372969850897789
1761469056458140400,3.051140380859375,0.0648307204246521,-0.0199730321764946,-0.03552759811282158
1761469056468096300,3.06109619140625,0.06496939808130264,-0.015996424481272697,-0.03295959532260895
1761469056478051300,3.07105126953125,0.06416831910610199,-0.00225424743257463,-0.032637350261211395
1761469056488006400,3.08100634765625,0.06477168947458267,0.017149025574326515,-0.030432477593421936
1761469056497962500,3.09096240234375,0.05756464600563049,0.025148894637823105,-0.02984445169568062
1761469056507917300,3.100917236328125,0.04972504451870918,0.027972113341093063,-0.03416561335325241
1761469056517872400,3.110872314453125,0.04675748199224472,0.037297703325748444,-0.043452054262161255
1761469056527828500,3.120828369140625,0.0485038161277771,0.0387515127658844,-0.0512266606092453
1761469056537783300,3.130783203125,0.04304247349500656,0.029500221833586693,-0.06207584589719772
1761469056547738400,3.14073828125,0.033595651388168335,0.012911830097436905,-0.06612955033779144
1761469056557694500,3.150694580078125,0.02464982680976391,0.019759083166718483,-0.06811120361089706
1761469056567649300,3.160649169921875,0.0225252415984869,0.03679652139544487,-0.06629745662212372
1761469056577604400,3.170604248046875,0.025309309363365173,0.04358678311109543,-0.06183186545968056
1761469056587560400,3.180560546875,0.025908254086971283,0.04107062891125679,-0.06491820514202118
1761469056597515300,3.190515380859375,0.027134008705615997,0.02479482814669609,-0.06897024065256119
1761469056607470300,3.20047021484375,0.028824904933571815,0.007488368544727564,-0.07859133929014206
1761469056617426400,3.210426513671875,0.034293439239263535,-0.0006582410424016416,-0.0870593935251236
1761469056627381200,3.22038134765625,0.0397116020321846,-0.009195164777338505,-0.08800653368234634
1761469056637336300,3.23033642578125,0.03640368953347206,-0.018556706607341766,-0.08426079899072647
1761469056647292400,3.24029248046875,0.0308068860322237,-0.0052760690450668335,-0.08286640793085098
1761469056657247200,3.250247314453125,0.030827658250927925,0.01982901804149151,-0.07265505194664001
1761469056667202600,3.26020263671875,0.029641108587384224,0.03868694230914116,-0.05606110394001007
1761469056677158400,3.270158447265625,0.033019058406353,0.049131594598293304,-0.045198336243629456
1761469056687113200,3.28011328125,0.03563808649778366,0.03579797223210335,-0.04424936696887016
1761469056697069300,3.2900693359375,0.04604944586753845,0.024237720295786858,-0.047936782240867615
1761469056707024400,3.3000244140625,0.0569634847342968,0.020323723554611206,-0.04902958124876022
1761469056716979200,3.309979248046875,0.06702624261379242,0.004400417674332857,-0.05630640313029289
1761469056726935300,3.319935302734375,0.06707384437322617,-0.021819131448864937,-0.06466223299503326
1761469056736890400,3.329890380859375,0.06299920380115509,-0.03509445860981941,-0.07281123846769333
1761469056746845200,3.33984521484375,0.06336183845996857,-0.03779175877571106,-0.06539777666330338
1761469056756801300,3.34980126953125,0.06373947858810425,-0.029635563492774963,-0.05187317728996277
1761469056766756400,3.35975634765625,0.06928155571222305,-0.017463957890868187,-0.035669051110744476
1761469056776711400,3.36971142578125,0.07704414427280426,-0.007201733998954296,-0.030726224184036255
1761469056786667300,3.379667236328125,0.08119198679924011,-0.008862613700330257,-0.027899233624339104
1761469056796622300,3.389622314453125,0.0824924111366272,-0.02069876529276371,-0.026510927826166153
1761469056806577400,3.399577392578125,0.07468357682228088,-0.04571041837334633,-0.01912246271967888
1761469056816533200,3.409533203125,0.07046698778867722,-0.05871782824397087,-0.015289107337594032
1761469056826488300,3.41948828125,0.07245566695928574,-0.05153050273656845,-0.010151110589504242
1761469056836443400,3.429443359375,0.07555505633354187,-0.034101177006959915,-0.0032713674008846283
1761469056846399200,3.439399169921875,0.07762452960014343,-0.008869713172316551,0.014826939441263676
1761469056856354600,3.4493544921875,0.0804610624909401,0.009807035326957703,0.03600865602493286
1761469056866309400,3.459309326171875,0.08394674211740494,0.01370258815586567,0.0436600036919117
1761469056876265200,3.46926513671875,0.08612201362848282,0.008127792738378048,0.04408903792500496
1761469056886220500,3.479220458984375,0.08479948341846466,-0.006941370200365782,0.03505481779575348
1761469056896175400,3.48917529296875,0.08239437639713287,-0.017438750714063644,0.027974538505077362
1761469056906131200,3.499131103515625,0.0862082988023758,-0.01564731076359749,0.025668751448392868
1761469056916086500,3.50908642578125,0.09773419797420502,-0.002400214783847332,0.026205912232398987
1761469056926041300,3.519041259765625,0.09364710003137589,0.011836432851850986,0.02328471653163433
1761469056935997200,3.5289970703125,0.08513377606868744,0.009046238847076893,0.010451208800077438
1761469056945952500,3.538952392578125,0.07253453880548477,0.0061562941409647465,-0.003157982137054205
1761469056955907300,3.5489072265625,0.06623776257038116,0.0024651531130075455,-0.01219568494707346
1761469056965863400,3.558863525390625,0.06338176131248474,-0.0000882471795193851,-0.01430079247802496
1761469056975818500,3.568818603515625,0.06525956094264984,0.0047155627980828285,-0.012885057367384434
1761469056985773300,3.578773193359375,0.06600315868854523,0.011622194200754166,-0.011101491749286652
1761469056995729400,3.5887294921875,0.06374213099479675,0.01995389349758625,0.0006608925759792328
1761469057005684500,3.5986845703125,0.058843158185482025,0.030560145154595375,0.01118545699864626
1761469057015639300,3.608639404296875,0.056973353028297424,0.03383183851838112,0.01885562762618065
1761469057025595400,3.618595458984375,0.05224648118019104,0.029455333948135376,0.017499856650829315
1761469057035550500,3.628550537109375,0.040001265704631805,0.01272082794457674,0.013093655928969383
1761469057045505300,3.63850537109375,0.03194374963641167,-0.0021289056167006493,0.00911132525652647
1761469057055461400,3.64846142578125,0.028431037440896034,-0.0013360825832933187,0.014108214527368546
1761469057065416400,3.65841650390625,0.029491441324353218,0.001991871278733015,0.023116732016205788
1761469057075371300,3.668371337890625,0.02546554058790207,-0.004618627019226551,0.03406365588307381
1761469057085327400,3.678327392578125,0.02164987288415432,-0.010102249681949615,0.044500064104795456
1761469057095282400,3.688282470703125,0.016202377155423164,-0.019967131316661835,0.0506540983915329
1761469057105238300,3.69823828125,0.006010024342685938,-0.021030010655522346,0.057293850928545
1761469057115193000,3.708193115234375,-0.0020622829906642437,-0.020371410995721817,0.05934608355164528
1761469057125148400,3.7181484375,-0.011100701056420803,-0.01779288426041603,0.06527452915906906
1761469057135104300,3.728104248046875,-0.018373260274529457,-0.016632013022899628,0.07168316096067429
1761469057145059300,3.738059326171875,-0.02384926564991474,-0.015288914553821087,0.07525154948234558
1761469057155014400,3.748014404296875,-0.026952380314469337,-0.01361884642392397,0.07187439501285553
1761469057164970200,3.75797021484375,-0.0302572101354599,-0.017715774476528168,0.06218587979674339
1761469057174925300,3.76792529296875,-0.03336938098073006,-0.026186756789684296,0.04764315485954285
1761469057184880400,3.77788037109375,-0.03548480197787285,-0.0371074341237545,0.03235261142253876
1761469057194836200,3.787836181640625,-0.0309840589761734,-0.03662966191768646,0.02573864907026291
1761469057204791300,3.797791259765625,-0.02347184158861637,-0.027648912742733955,0.027659175917506218
1761469057214746000,3.80774609375,-0.02172241173684597,-0.017285753041505814,0.02593531273305416
1761469057224702200,3.8177021484375,-0.017427783459424973,-0.009832698851823807,0.01920202001929283
1761469057234657300,3.8276572265625,-0.016306059435009956,-0.005183618515729904,0.011937449686229229
1761469057244612000,3.837612060546875,-0.01234965305775404,0.0010175799252465367,0.009041430428624153
1761469057254568400,3.847568359375,-0.0072417110204696655,0.011873955838382244,0.007864579558372498
1761469057264523300,3.857523193359375,-0.004523212090134621,0.02104126289486885,0.0017549190670251846
1761469057274478000,3.86747802734375,-0.0018557898001745343,0.027788382023572922,-0.004396450240164995
1761469057284434400,3.877434326171875,-0.002570806071162224,0.023989275097846985,-0.009473908692598343
1761469057294389200,3.88738916015625,0.0029339478351175785,0.01231877040117979,-0.022074656561017036
1761469057304344000,3.897343994140625,0.010617980733513832,0.002369933295994997,-0.02930888906121254
1761469057314300400,3.907300537109375,0.016467345878481865,-0.00939404871314764,-0.033859964460134506
1761469057324255200,3.917255126953125,0.026078809052705765,-0.024095043540000916,-0.032681044191122055
1761469057334210000,3.9272099609375,0.037991125136613846,-0.039430588483810425,-0.024995429441332817
1761469057344166400,3.93716650390625,0.04551621153950691,-0.04741136357188225,-0.016679681837558746
1761469057354121200,3.947121337890625,0.04630770534276962,-0.0410354882478714,-0.013409586623311043
1761469057364076000,3.957075927734375,0.045774802565574646,-0.06356513500213623,-0.004938794299960136
1761469057374032400,3.967032470703125,0.03731819987297058,-0.058035340160131454,0.014380042441189289
1761469057383987200,3.9769873046875,0.019089704379439354,-0.021548008546233177,0.03288034722208977
1761469057393942000,3.98694189453125,0.006336892489343882,0.011441364884376526,0.044780950993299484
1761469057405764400,3.998764404296875,-0.008837981149554253,0.031069885939359665,0.05803263187408447
1761469057415719200,4.00871923828125,-0.008717605844140053,0.03192928805947304,0.0613890141248703
1761469057425674200,4.01867431640625,0.0007531267474405468,0.025523055344820023,0.052743323147296906
1761469057435630300,4.02863037109375,0.01608281396329403,0.006811152677983046,0.02424830198287964
1761469057445585200,4.038585205078125,0.03323511406779289,-0.023182962089776993,-0.008239778690040112
1761469057455540200,4.048540283203125,0.04634026437997818,-0.04976930096745491,-0.03220290318131447
1761469057465496300,4.058496337890625,0.058629222214221954,-0.06039875000715256,-0.04110976308584213
1761469057475451100,4.068451171875,0.06349615007638931,-0.06272928416728973,-0.03682580590248108
1761469057485406200,4.07840625,0.0656874030828476,-0.047640610486269,-0.02742937207221985
1761469057495362300,4.0883623046875,0.0682501569390297,-0.03081209398806095,-0.015980709344148636
1761469057505317000,4.098317138671875,0.07453200966119766,-0.02167605236172676,-0.003150109201669693
1761469057515272200,4.108272216796875,0.07666812837123871,-0.017688235267996788,0.01115559320896864
1761469057525228300,4.118228271484375,0.07928230613470078,-0.0022201312240213156,0.027416300028562546
1761469057535183000,4.12818310546875,0.09254910796880722,0.0250900536775589,0.03260626643896103
1761469057545139200,4.13813916015625,0.0986330583691597,0.04803489148616791,0.026072345674037933
1761469057555094300,4.14809423828125,0.0978705957531929,0.04178312048316002,0.021700765937566757
1761469057565049000,4.158049072265625,0.09498259425163269,0.028290187940001488,0.019384801387786865
1761469057575005200,4.168005126953125,0.08389292657375336,-0.002212594263255596,0.0019544116221368313
1761469057584960300,4.177960205078125,0.06943033635616302,-0.02851419895887375,-0.010755137540400028
1761469057594915000,4.1879150390625,0.05776435509324074,-0.011489410884678364,-0.0038495613262057304
1761469057604871200,4.19787109375,0.05366378650069237,0.020222727209329605,0.007484892383217812
1761469057614826200,4.207826171875,0.05237694829702377,0.048323336988687515,0.026765380054712296
1761469057624781000,4.217781005859375,0.045455142855644226,0.05749449133872986,0.051480215042829514
1761469057634737200,4.227737060546875,0.029273241758346558,0.04114215075969696,0.05619374290108681
1761469057644692200,4.237692138671875,0.026111606508493423,0.036737747490406036,0.04307437315583229
1761469057654647300,4.247647216796875,0.028536414727568626,0.03126068785786629,0.01910378970205784
1761469057664603100,4.25760302734375,0.028390739113092422,0.021754363551735878,-0.007601400371640921
1761469057674558200,4.26755810546875,0.024606388062238693,-0.006166749633848667,-0.026418231427669525
1761469057684513300,4.27751318359375,0.011215145699679852,-0.028207095339894295,-0.035217929631471634
1761469057694469000,4.28746923828125,-0.00006680353544652462,-0.026587095111608505,-0.03544296696782112
1761469057704424200,4.297424072265625,-0.008884516544640064,-0.010218576528131962,-0.034080248326063156
1761469057714379300,4.307379150390625,-0.01400044932961464,0.004732943139970303,-0.030414406210184097
1761469057724335000,4.317335205078125,-0.0077483137138187885,0.009323420003056526,-0.023175440728664398
1761469057734290200,4.327290283203125,0.009110028855502605,0.0027957463171333075,-0.021637998521327972
1761469057744245200,4.337245361328125,0.03319083899259567,-0.007535853888839483,-0.01875854656100273
1761469057754201000,4.347201171875,0.06481427699327469,-0.01618793234229088,-0.020288532599806786
1761469057764779300,4.357779296875,0.09731443226337433,-0.02384505234658718,-0.022016657516360283
1761469057774734300,4.367734375,0.12244801223278046,-0.023926012217998505,-0.01531960628926754
1761469057784690200,4.377690185546875,0.1390196979045868,-0.015040961094200611,-0.00026314076967537403
1761469057794645200,4.387645263671875,0.13821464776992798,-0.0019978638738393784,0.01842106506228447
1761469057804600300,4.397600341796875,0.13336342573165894,0.014209335669875145,0.03744988515973091
1761469057814556200,4.40755615234375,0.12140662968158722,0.035201169550418854,0.0568278431892395
1761469057824511200,4.41751123046875,0.10763610899448395,0.05227947607636452,0.06808649748563766
1761469057834466300,4.42746630859375,0.09425319731235504,0.05614319071173668,0.06667395681142807
1761469057844422400,4.43742236328125,0.0824725478887558,0.054950375109910965,0.057866740971803665
1761469057854377200,4.447377197265625,0.07719842344522476,0.051095716655254364,0.04602526128292084
1761469057864332300,4.457332275390625,0.07832234352827072,0.027631960809230804,0.034283995628356934
1761469057874288400,4.467288330078125,0.08279965072870255,0.006341052707284689,0.023725096136331558
1761469057884243200,4.4772431640625,0.08414047211408615,0.0001933577295858413,0.008158672600984573
1761469057894198300,4.4871982421875,0.08170367777347565,-0.003378473687916994,-0.007020547054708004
1761469057904154400,4.497154296875,0.07367927581071854,-0.00479807099327445,-0.02321705035865307
1761469057914109200,4.507109130859375,0.06284154206514359,-0.003551978152245283,-0.03195860981941223
1761469057924064300,4.517064208984375,0.056837938725948334,0.009434766136109829,-0.03212731331586838
1761469057934020400,4.527020263671875,0.05285811051726341,0.017460202798247337,-0.028547223657369614
1761469057943975200,4.53697509765625,0.04677561670541763,0.02333648130297661,-0.025947140529751778
1761469057953930200,4.54693017578125,0.04701610282063484,0.02004295028746128,-0.02753331884741783
1761469057963886300,4.55688623046875,0.04404665157198906,0.011863184161484241,-0.02676229178905487
1761469057973841200,4.566841064453125,0.045402999967336655,0.00033409331808798015,-0.023955050855875015
1761469057983796200,4.576796142578125,0.04756757244467735,-0.0027607548981904984,-0.011118927970528603
1761469057993752300,4.58675244140625,0.04726477339863777,-0.006803167052567005,0.009808456525206566
1761469058003707100,4.59670703125,0.04912556707859039,-0.019417867064476013,0.033105649054050446
1761469058013662500,4.606662353515625,0.05655898153781891,-0.030433500185608864,0.056193653494119644
1761469058023618300,4.616618408203125,0.05791039392352104,-0.039714936167001724,0.07276954501867294
1761469058033573000,4.626572998046875,0.054800353944301605,-0.04667936637997627,0.07991799712181091
1761469058043528200,4.636528076171875,0.0447247177362442,-0.0324210561811924,0.0856824517250061
1761469058053484300,4.646484375,0.03388245776295662,-0.013161077164113522,0.0858030915260315
1761469058063439000,4.656439208984375,0.018860995769500732,0.004718308802694082,0.08529625087976456
1761469058073395200,4.666395263671875,0.009368425235152245,0.023806516081094742,0.085019551217556
1761469058083350300,4.676350341796875,-0.004200787283480167,0.034840911626815796,0.07536736875772476
1761469058093305300,4.686305419921875,-0.012267768383026123,0.03355513513088226,0.04863908886909485
1761469058103261400,4.696261474609375,-0.013975667767226696,0.024045055732131004,0.019303059205412865
1761469058113216500,4.706216552734375,-0.009322326630353928,0.007403227500617504,-0.002779605332762003
1761469058123171300,4.71617138671875,-0.0001755033154040575,0.00006742912228219211,-0.020368188619613647
1761469058133127400,4.72612744140625,0.012524579651653767,-0.011135424487292767,-0.03420677036046982
1761469058143082500,4.73608251953125,0.02622334659099579,-0.015592223964631557,-0.03767234459519386
1761469058153037300,4.746037353515625,0.03605280816555023,-0.01628970541059971,-0.036712806671857834
1761469058162993400,4.755993408203125,0.03724711015820503,-0.021168110892176628,-0.03186770901083946
1761469058172948500,4.765948486328125,0.038164570927619934,-0.018733182922005653,-0.023345597088336945
1761469058182903300,4.7759033203125,0.033045608550310135,-0.017092393711209297,-0.020474934950470924
1761469058192859400,4.785859375,0.021613724529743195,-0.01679838076233864,-0.028367213904857635
1761469058202814500,4.795814453125,0.0025779816787689924,-0.02245733141899109,-0.03686509281396866
1761469058212769500,4.80576953125,-0.012837725691497326,-0.016353899613022804,-0.04127075895667076
1761469058222725400,4.815725341796875,-0.02765408344566822,-0.004230339080095291,-0.03583535552024841
1761469058232680400,4.825680419921875,-0.039770402014255524,0.006581828463822603,-0.02866239845752716
1761469058242635500,4.835635498046875,-0.04888606444001198,0.02190328761935234,-0.017839230597019196
1761469058252591400,4.84559130859375,-0.05646834895014763,0.02166200429201126,-0.015227735042572021
1761469058262546200,4.855546142578125,-0.06321000307798386,0.010985272005200386,-0.013297125697135925
1761469058272501500,4.86550146484375,-0.06507128477096558,-0.002008024137467146,-0.020801912993192673
1761469058282457300,4.875457275390625,-0.06333410739898682,-0.028329908847808838,-0.026945559307932854
1761469058292412400,4.885412353515625,-0.05842510238289833,-0.05030311644077301,-0.03112458996474743
1761469058302367500,4.895367431640625,-0.056584227830171585,-0.05647953599691391,-0.022486936300992966
1761469058312323300,4.9053232421875,-0.057721130549907684,-0.04582049697637558,-0.008675782009959221
1761469058322278400,4.9152783203125,-0.06502760201692581,-0.024191690608859062,0.00722969975322485
1761469058332233500,4.9252333984375,-0.0739704966545105,-0.008163988590240479,0.015851683914661407
1761469058342189300,4.935189208984375,-0.08091848343610764,-0.002780433977022767,0.021053554490208626
1761469058352144400,4.945144287109375,-0.08120957016944885,-0.003171119838953018,0.014858243986964226
1761469058362100500,4.9551005859375,-0.07547634094953537,-0.011964743956923485,0.00733459135517478
1761469058372055300,4.96505517578125,-0.0634622871875763,-0.014407661743462086,-0.007612666580826044
1761469058382010400,4.97501025390625,-0.050909798592329025,-0.009052499197423458,-0.01238800585269928
1761469058391966500,4.984966552734375,-0.04178048297762871,-0.014713048003613949,-0.011883869767189026
1761469058401921500,4.994921630859375,-0.03596184030175209,-0.01879912242293358,-0.011516579426825047
1761469058411876400,5.00487646484375,-0.03411121293902397,-0.003855859860777855,-0.010978620499372482
1761469058421832400,5.01483251953125,-0.03686807304620743,0.007113062310963869,-0.007409860845655203
1761469058431787500,5.02478759765625,-0.042076416313648224,0.013882817700505257,-0.007145409006625414
1761469058441742300,5.034742431640625,-0.04896603152155876,0.01653219759464264,-0.006790387909859419
1761469058451698200,5.0446982421875,-0.05341777205467224,0.016990261152386665,-0.016470978036522865
1761469058461653500,5.054653564453125,-0.05580563098192215,0.013574730604887009,-0.02247435599565506
1761469058471608300,5.0646083984375,-0.054634638130664825,0.00639191921800375,-0.03101165033876896
1761469058481564200,5.074564208984375,-0.04794222488999367,-0.003858508076518774,-0.03418261557817459
1761469058491519500,5.08451953125,-0.03963689133524895,-0.004490742459893227,-0.03485346585512161
1761469058501474300,5.094474365234375,-0.03125860169529915,-0.006258310284465551,-0.04614543914794922
1761469058511430400,5.104430419921875,-0.02603747509419918,-0.016342900693416595,-0.05907108634710312
1761469058521385500,5.114385498046875,-0.023299479857087135,-0.023333165794610977,-0.0652456283569336
1761469058531340300,5.12434033203125,-0.02122221328318119,-0.026874639093875885,-0.06059228628873825
1761469058541296400,5.13429638671875,-0.013357127085328102,-0.022216465324163437,-0.049304358661174774
1761469058551251500,5.14425146484375,-0.008178077638149261,-0.020419897511601448,-0.03941790759563446
1761469058561206300,5.154206298828125,-0.0043411217629909515,-0.013582882471382618,-0.019361287355422974
1761469058571162400,5.164162353515625,-0.0022534700110554695,-0.0031859013251960278,-0.0014366167597472668
1761469058581117400,5.174117431640625,-0.00024156394647434354,0.008845275267958641,0.014466777443885803
1761469058591072300,5.184072265625,-0.0018399932887405157,0.013197146356105804,0.021879419684410095
1761469058601028400,5.1940283203125,-0.005947442259639502,0.00812639482319355,0.01769149675965309
1761469058610983400,5.2039833984375,-0.013514015823602676,-0.005600069649517536,-0.00007817824371159077
1761469058620938200,5.213938232421875,-0.021182768046855927,-0.025467902421951294,-0.020436808466911316
1761469058630894300,5.223894287109375,-0.03592709079384804,-0.03661109879612923,-0.03454463556408882
1761469058640849400,5.233849365234375,-0.05312351882457733,-0.030634742230176926,-0.03876151517033577
1761469058650804500,5.243804443359375,-0.06628566235303879,0.0007484794477932155,-0.036980126053094864
1761469058660760300,5.25376025390625,-0.06856468319892883,-0.002547966316342354,-0.026622435078024864
1761469058670715400,5.26371533203125,-0.0721178725361824,0.011637893505394459,0.002755161840468645
1761469058680670500,5.27367041015625,-0.08008146286010742,0.04278445616364479,0.033670566976070404
1761469058690626300,5.283626220703125,-0.07925135642290115,0.05861561745405197,0.05020507052540779
1761469058700581400,5.293581298828125,-0.06452550739049911,0.0729234591126442,0.05557776987552643
1761469058710536400,5.303536376953125,-0.049363333731889725,0.08739534765481949,0.05487682670354843
1761469058720492300,5.3134921875,-0.03305273503065109,0.09734387695789337,0.04820329323410988
1761469058730447400,5.323447265625,-0.014606879092752934,0.08754770457744598,0.03258731588721275
1761469058740403500,5.333403564453125,0.003346402198076248,0.05507420003414154,0.014845997095108032
1761469058750358300,5.343358154296875,0.018176214769482613,0.044151242822408676,-0.006525071803480387
1761469058760313600,5.353313720703125,0.027317387983202934,0.048309728503227234,-0.025888944044709206
1761469058770269400,5.36326953125,0.036640848964452744,0.036873314529657364,-0.04181917384266853
1761469058780224300,5.373224365234375,0.03840695694088936,0.035521335899829865,-0.04867338761687279
1761469058790179600,5.3831796875,0.04125041514635086,0.036196447908878326,-0.05121617391705513
1761469058800135400,5.393135498046875,0.04253394529223442,0.018827389925718307,-0.05893874913454056
1761469058810090200,5.40309033203125,0.0421919971704483,-0.004880070220679045,-0.05864846333861351
1761469058820045600,5.413045654296875,0.04192512109875679,-0.02601248025894165,-0.05533696711063385
1761469058830001400,5.42300146484375,0.04119940847158432,-0.03659002482891083,-0.04895470291376114
1761469058839956200,5.432956298828125,0.044446080923080444,-0.04842668026685715,-0.03875329717993736
1761469058849911600,5.44291162109375,0.04679286107420921,-0.06089400500059128,-0.028409846127033234
1761469058859867400,5.452867431640625,0.04934611916542053,-0.0548822246491909,-0.017990436404943466
1761469058869822500,5.462822509765625,0.0411025695502758,-0.04569857940077782,-0.010571135208010674
1761469058879777500,5.472777587890625,0.02775176241993904,-0.03991704434156418,-0.000003650318831205368
1761469058889733400,5.4827333984375,0.014498275704681873,-0.03181171417236328,0.004540501162409782
1761469058899688400,5.4926884765625,0.0011353474110364914,-0.018529968336224556,0.00876311119645834
1761469058909643500,5.5026435546875,-0.006173165515065193,-0.01229284517467022,0.01463218592107296
1761469058919599400,5.512599365234375,-0.015114154666662216,-0.0012939246371388435,0.027931947261095047
1761469058929554400,5.522554443359375,-0.022810423746705055,0.01034062635153532,0.041928455233573914
1761469058939509500,5.532509521484375,-0.03075704351067543,0.020817836746573448,0.049090515822172165
1761469058949465600,5.542465576171875,-0.03200926259160042,0.018588770180940628,0.0475996769964695
1761469058959420400,5.55242041015625,-0.030210060998797417,0.007062115240842104,0.03352472931146622
1761469058969375500,5.56237548828125,-0.02084558643400669,0.0009672052692621946,0.016966257244348526
1761469058979331600,5.57233154296875,-0.003315632464364171,0.002210130449384451,-0.0034713847562670708
1761469058989286400,5.582286376953125,0.006409166380763054,0.004458903335034847,-0.020599771291017532
1761469058999241500,5.592241455078125,0.021082310006022453,0.014047933742403984,-0.029985744506120682
1761469059009197600,5.602197509765625,0.028873387724161148,0.027594901621341705,-0.033556509763002396
1761469059019152400,5.61215234375,0.03520345687866211,0.03554869815707207,-0.03209789842367172
1761469059029107500,5.622107421875,0.04025520756840706,0.0414542593061924,-0.027108198031783104
1761469059039063600,5.6320634765625,0.04707948490977287,0.047329165041446686,-0.012579403817653656
1761469059049018400,5.642018310546875,0.05529027804732323,0.04884636774659157,0.006422783248126507
1761469059058973400,5.651973388671875,0.06351372599601746,0.04255550354719162,0.014862501993775368
1761469059068929500,5.661929443359375,0.06948799639940262,0.03279262036085129,0.014591658487915993
1761469059078884400,5.67188427734375,0.07081300765275955,0.022741638123989105,0.01362491212785244
1761469059088839200,5.681839111328125,0.06591705232858658,0.004644924774765968,0.010060004889965057
1761469059098795800,5.691795654296875,0.06083335354924202,-0.006997417658567429,0.01140727661550045
1761469059108750600,5.70175048828125,0.053214848041534424,-0.0033749856520444155,0.0197038222104311
1761469059118706700,5.711706787109375,0.048796456307172775,0.003300415351986885,0.02327461540699005
1761469059128661800,5.721661865234375,0.040297508239746094,0.012485657818615437,0.020651135593652725
1761469059138616600,5.731616455078125,0.02731182426214218,0.026715541258454323,0.014300622045993805
1761469059148572700,5.74157275390625,0.013064711354672909,0.03224452957510948,0.005216579884290695
1761469059158527500,5.751527587890625,-0.0019983111415058374,0.032530512660741806,-0.006490617990493774
1761469059168482600,5.761482666015625,-0.013493846170604229,0.028010329231619835,-0.012347974814474583
1761469059178438700,5.771438720703125,-0.019036585465073586,0.02566433697938919,-0.008669923059642315
1761469059188393500,5.7813935546875,-0.019677873700857162,0.02614104375243187,0.004686096217483282
1761469059198348800,5.791348876953125,-0.01832922175526619,0.027111897245049477,0.021078607067465782
1761469059208304600,5.8013046875,-0.014365372247993946,0.01780148595571518,0.030775442719459534
1761469059218259500,5.811259521484375,-0.008106466382741928,-0.00022012373665347695,0.03197954595088959
1761469059228214800,5.82121484375,0.0016241917619481683,-0.019582102075219154,0.030057275667786598
1761469059238170600,5.831170654296875,0.006520610768347979,-0.03419888764619827,0.02469705231487751
1761469059248125400,5.84112548828125,0.008688157424330711,-0.0435284748673439,0.024260293692350388
1761469059258080800,5.851080810546875,0.004412421956658363,-0.03839528560638428,0.02704429440200329
1761469059268036600,5.86103662109375,-0.0034140755888074636,-0.021013634279370308,0.036342184990644455
1761469059277991400,5.870991455078125,-0.012581431306898594,-0.0019728431943804026,0.040127385407686234
1761469059287946800,5.88094677734375,-0.02137572132050991,0.009194856509566307,0.03468361869454384
1761469059297902600,5.890902587890625,-0.030182432383298874,0.009226174093782902,0.016932886093854904
1761469059307857700,5.900857666015625,-0.03420567139983177,0.007664762903004885,-0.0011031050235033035
1761469059317812700,5.910812744140625,-0.04020696505904198,0.0015641406644135714,-0.019137416034936905
1761469059327768600,5.9207685546875,-0.041514042764902115,-0.00024521100567653775,-0.029424672946333885
1761469059337723600,5.9307236328125,-0.03948240354657173,0.003774510696530342,-0.02982199937105179
1761469059347678700,5.9406787109375,-0.04109867662191391,0.007821183651685715,-0.030399370938539505
1761469059357634600,5.950634521484375,-0.039339542388916016,-0.0007561392849311233,-0.02481824904680252
1761469059367589600,5.960589599609375,-0.03712112829089165,-0.008676114492118359,-0.021598752588033676
1761469059377544700,5.970544677734375,-0.03454593941569328,-0.02215699478983879,-0.01574624888598919
1761469059387500800,5.980500732421875,-0.03345537185668945,-0.021985752508044243,-0.006859812885522842
1761469059397455600,5.99045556640625,-0.03296801447868347,-0.007373254746198654,0.009859778918325901
1761469059407410700,6.00041064453125,-0.031312860548496246,0.010742631740868092,0.027181778103113174
1761469059417366800,6.01036669921875,-0.032565344125032425,0.02069007232785225,0.029215900227427483
1761469059427321600,6.020321533203125,-0.027084559202194214,0.015398901887238026,0.018354197964072227
1761469059437276700,6.030276611328125,-0.022257117554545403,-0.00296371360309422,-0.006774861365556717
1761469059447232800,6.040232666015625,-0.013973620720207691,-0.018146127462387085,-0.02737174928188324
1761469059457187600,6.0501875,-0.006263377144932747,-0.02504679374396801,-0.04111427441239357
1761469059467143400,6.060143310546875,-0.0038348406087607145,-0.030676182359457016,-0.04413403198122978
1761469059477098800,6.0700986328125,-0.0006057287682779133,-0.030297692865133286,-0.036450743675231934
1761469059487053600,6.080053466796875,-0.0006323604029603302,-0.019348638132214546,-0.021442502737045288
1761469059497008600,6.090008544921875,-0.00513837393373251,-0.009589752182364464,-0.010301521047949791
1761469059506964700,6.09996484375,-0.016106870025396347,0.0026448103599250317,0.004151187837123871
1761469059516919600,6.10991943359375,-0.022178707644343376,0.00545961270108819,0.0134959165006876
1761469059526875600,6.119875732421875,-0.026978256180882454,-0.0009380987612530589,0.02361566200852394
1761469059536830700,6.129830810546875,-0.028471756726503372,-0.006720620673149824,0.028323333710432053
1761469059546785500,6.13978564453125,-0.026853354647755623,-0.024957947432994843,0.033996663987636566
1761469059556741600,6.14974169921875,-0.02381262741982937,-0.03653855621814728,0.03762548416852951
1761469059566696700,6.15969677734375,-0.025708531960844994,-0.03313823416829109,0.03811097890138626
1761469059576651500,6.169651611328125,-0.028458861634135246,-0.026201456785202026,0.034922581166028976
1761469059586607600,6.179607666015625,-0.035128217190504074,-0.022822437807917595,0.028433524072170258
1761469059596562700,6.189562744140625,-0.04158131033182144,-0.02200251817703247,0.018735602498054504
1761469059606517500,6.199517578125,-0.04952844977378845,-0.007233425509184599,0.01997237280011177
1761469059616473600,6.2094736328125,-0.05151133984327316,0.006768130697309971,0.021287137642502785
1761469059626428700,6.2194287109375,-0.05442963168025017,-0.0007968448917381465,0.011053141206502914
1761469059636383500,6.229383544921875,-0.057011090219020844,-0.02057233452796936,-0.0005691845435649157
1761469059646339600,6.239339599609375,-0.062197327613830566,-0.02923639677464962,-0.015522834844887257
1761469059656294700,6.249294677734375,-0.07428824156522751,-0.03290775045752525,-0.02145807072520256
1761469059666249700,6.259249755859375,-0.08191660046577454,-0.0281958170235157,-0.02465439960360527
1761469059676205600,6.26920556640625,-0.09031783044338226,-0.020110394805669785,-0.024079132825136185
1761469059686160600,6.27916064453125,-0.0906619057059288,-0.004251536913216114,-0.008119874633848667
1761469059696115700,6.28911572265625,-0.08473943173885345,0.020997414365410805,0.01678430289030075
1761469059706071600,6.299071533203125,-0.07496137171983719,0.03717159107327461,0.04001159593462944
1761469059716026600,6.309026611328125,-0.06112561747431755,0.037944864481687546,0.04322553426027298
1761469059725981700,6.318981689453125,-0.04718370363116264,0.029889332130551338,0.03588240221142769
1761469059735937500,6.3289375,-0.03528919443488121,0.009807365946471691,0.024576440453529358
1761469059745892900,6.338892822265625,-0.024917781352996826,-0.004091938026249409,0.015618100762367249
1761469059755847700,6.34884765625,-0.015419325791299343,0.007692606654018164,0.012338219210505486
1761469059765803500,6.358803466796875,-0.014721843414008617,0.03414818271994591,0.007592998445034027
1761469059775758800,6.3687587890625,-0.012824761681258678,0.059694476425647736,-0.007100522518157959
1761469059785713700,6.378713623046875,-0.012958718463778496,0.07658024877309799,-0.028492365032434464
1761469059795669500,6.38866943359375,-0.011736370623111725,0.08209336549043655,-0.05220287665724754
1761469059805624800,6.398624755859375,-0.007314989808946848,0.07424502819776535,-0.08046833425760269
1761469059815579600,6.40857958984375,-0.004393080715090036,0.0623614601790905,-0.11645336449146271
1761469059825535500,6.418535400390625,-0.0003384180017746985,0.03968064486980438,-0.14123433828353882
1761469059835490800,6.42849072265625,-0.000141848751809448,0.016361530870199203,-0.14514166116714478
1761469059845445600,6.438445556640625,0.0016853460110723972,-0.00903197843581438,-0.12416394799947739
1761469059855401700,6.448401611328125,0.002590680029243231,-0.02451893873512745,-0.09143724292516708
1761469059865356800,6.458356689453125,0.0055063082836568356,-0.032984063029289246,-0.05061258003115654
1761469059875311600,6.4683115234375,0.010940419510006905,-0.03103545308113098,-0.025995995849370956
1761469059885267700,6.478267822265625,0.012819012627005577,-0.0013249628245830536,-0.007197274826467037
1761469059895222800,6.488222900390625,0.01835925690829754,0.00533562945201993,0.011439340189099312
1761469059905178600,6.4981787109375,0.02245786041021347,-0.02104164846241474,0.046115558594465256
1761469059915133700,6.5081337890625,0.005270577967166901,-0.006699983961880207,0.09390754252672195
1761469059925088800,6.5180888671875,-0.006275290623307228,0.017753958702087402,0.13603608310222626
1761469059935044900,6.528044921875,-0.013331392779946327,0.03262079507112503,0.16037213802337646
1761469059944999700,6.537999755859375,-0.020713940262794495,0.0454963780939579,0.16746120154857635
1761469059954954800,6.547954833984375,-0.02995714358985424,0.05044105648994446,0.15369954705238342
1761469059964910800,6.557910888671875,-0.03436014801263809,0.05593648925423622,0.13144618272781372
1761469059974865700,6.56786572265625,-0.033896323293447495,0.04679520055651665,0.10359114408493042
1761469059984820500,6.577820556640625,-0.03270562365651131,0.03778466209769249,0.06936819106340408
1761469059994776800,6.58777685546875,-0.026189344003796577,0.029068762436509132,0.03151119500398636
1761469060004731600,6.597731689453125,-0.024371471256017685,0.01702115498483181,-0.006642049644142389
1761469060014686500,6.6076865234375,-0.022571932524442673,0.02867184579372406,-0.03693458437919617
1761469060024642800,6.617642822265625,-0.020910119637846947,0.052883706986904144,-0.06091315299272537
1761469060034597600,6.62759765625,-0.028316859155893326,0.06258859485387802,-0.07612279802560806
1761469060044552400,6.637552490234375,-0.04021479934453964,0.060512930154800415,-0.08997176587581635
1761469060054508800,6.6475087890625,-0.04919562116265297,0.06345377117395401,-0.08653390407562256
1761469060064463600,6.657463623046875,-0.043694328516721725,0.07409096509218216,-0.07231821864843369
1761469060074418400,6.66741845703125,-0.031083183363080025,0.07608773559331894,-0.056065235286951065
1761469060084374800,6.677374755859375,-0.015180382877588272,0.057053592056035995,-0.043904710561037064
1761469060094329600,6.68732958984375,-0.0023686306085437536,0.02876332402229309,-0.027045246213674545
1761469060104284700,6.69728466796875,0.007222744170576334,0.004137072712182999,-0.007555167190730572
1761469060114240800,6.70724072265625,0.01513708382844925,-0.019530238583683968,0.008701099082827568
1761469060124195600,6.717195556640625,0.01562710665166378,-0.036242906004190445,0.020183317363262177
1761469060134150700,6.727150634765625,0.011811019852757454,-0.023238318040966988,0.0394064262509346
1761469060144106800,6.737106689453125,-0.000467217672849074,-0.002698421711102128,0.056037865579128265
1761469060154061600,6.7470615234375,-0.011987632140517235,0.008340460248291492,0.05909736454486847
1761469060164016600,6.7570166015625,-0.023174505680799484,0.016313966363668442,0.054450683295726776
1761469060173972500,6.766972412109375,-0.028186967596411705,0.012910326011478901,0.046516142785549164
1761469060183927600,6.776927490234375,-0.02773316390812397,0.007047110237181187,0.031665559858083725
1761469060193882600,6.786882568359375,-0.02522129938006401,0.01200888492166996,0.02164367213845253
1761469060203838500,6.79683837890625,-0.01818948984146118,0.01699911616742611,0.013500258326530457
1761469060213793800,6.806793701171875,-0.012418854050338268,0.004434575792402029,0.006974674295634031
1761469060223748600,6.81674853515625,-0.00374041055329144,-0.0063637434504926205,0.009168319404125214
1761469060233704400,6.826704345703125,0.0037788422778248787,0.001611850457265973,0.022335581481456757
1761469060243659800,6.83665966796875,0.017630741000175476,0.011625335551798344,0.0351504422724247
1761469060253615600,6.84661572265625,0.03370123729109764,0.012405055575072765,0.03907995671033859
1761469060263570400,6.8565703125,0.043285686522722244,0.0008666437352076173,0.030448120087385178
1761469060273525800,6.86652587890625,0.05009463429450989,-0.0045298258773982525,0.014906035736203194
1761469060283481600,6.876481689453125,0.04577818140387535,-0.00982312485575676,-0.0042639304883778095
1761469060293436700,6.886436767578125,0.052470844238996506,-0.013963127508759499,-0.013870667666196823
1761469060303391700,6.896391845703125,0.052281495183706284,-0.023823214694857597,-0.02546021156013012
1761469060313347600,6.90634765625,0.04891360551118851,-0.018064487725496292,-0.0346388965845108
1761469060323302700,6.916302734375,0.049327194690704346,-0.0236430112272501,-0.042307205498218536
1761469060333257700,6.9262578125,0.05111229792237282,-0.03364533931016922,-0.04340725764632225
1761469060343213600,6.936213623046875,0.04739905148744583,-0.03461978957056999,-0.039697740226984024
1761469060353168600,6.946168701171875,0.041425228118896484,-0.03937721997499466,-0.027023017406463623
1761469060363123700,6.956123779296875,0.039335981011390686,-0.05093054473400116,-0.014119735918939114
1761469060373079600,6.96607958984375,0.04426604136824608,-0.038795918226242065,0.004875505808740854
1761469060383034600,6.97603466796875,0.038456354290246964,-0.02559196762740612,0.026644185185432434
1761469060392989700,6.98598974609375,0.034285448491573334,-0.017142942175269127,0.043582506477832794
1761469060402945800,6.99594580078125,0.03035169653594494,-0.014521592296659946,0.05397975072264671
1761469060412900600,7.005900634765625,0.02169858105480671,-0.02350643277168274,0.05028723552823067
1761469060422855700,7.015855712890625,0.01942264288663864,-0.03435641527175903,0.03621669113636017
1761469060432811800,7.025811767578125,0.015550882555544376,-0.03877789154648781,0.018128130584955215
1761469060442766600,7.0357666015625,0.01156679354608059,-0.04244106635451317,-0.0037745037116110325
1761469060452721700,7.0457216796875,0.007289926055818796,-0.051781997084617615,-0.016322024166584015
1761469060462677800,7.055677734375,-0.0005059454124420881,-0.05318841338157654,-0.022889379411935806
1761469060472632600,7.065632568359375,-0.003531955648213625,-0.03661790490150452,-0.01974455825984478
1761469060482587600,7.075587646484375,-0.007839884608983994,-0.018019720911979675,-0.008708950132131577
1761469060492543700,7.085543701171875,-0.009668972343206406,0.0007021685596555471,0.0011711542028933764
1761469060502498600,7.09549853515625,-0.01276249997317791,0.0029834324959665537,0.0066226450726389885
1761469060512453600,7.10545361328125,-0.013156338594853878,-0.009836865589022636,0.005957244895398617
1761469060522409700,7.11540966796875,-0.010228193365037441,-0.015394349582493305,0.011287827044725418
1761469060532364500,7.125364501953125,-0.007586631923913956,-0.016598325222730637,0.014415031298995018
1761469060542319600,7.135319580078125,-0.0017388632986694574,-0.016811111941933632,0.01551198773086071
1761469060552275700,7.145275634765625,0.0006382323335856199,-0.02273174561560154,0.01321808435022831
1761469060562230500,7.15523046875,0.001602829317562282,-0.027858063578605652,0.012154150754213333
1761469060572185900,7.165185791015625,0.0024280869401991367,-0.028408098965883255,0.01115589588880539
1761469060582141700,7.1751416015625,0.0010411124676465988,-0.021605053916573524,0.015609766356647015
1761469060592096500,7.185096435546875,-0.002766675315797329,-0.007842104882001877,0.021859407424926758
1761469060602051800,7.1950517578125,-0.008589410223066807,0.012007232755422592,0.029896561056375504
1761469060612007700,7.205007568359375,-0.014235999435186386,0.024150103330612183,0.0324840247631073
1761469060621962500,7.21496240234375,-0.019686691462993622,0.031801629811525345,0.03514851629734039
1761469060631918600,7.224918701171875,-0.023449202999472618,0.04157126694917679,0.03518439456820488
1761469060641873700,7.234873779296875,-0.02965729869902134,0.04344959184527397,0.03242962062358856
1761469060651828700,7.244828857421875,-0.029403218999505043,0.040791597217321396,0.023446034640073776
1761469060661784600,7.25478466796875,-0.019018488004803658,0.035847704857587814,0.01360352337360382
1761469060671739600,7.26473974609375,-0.01809636317193508,0.018700290471315384,-0.007280369289219379
1761469060681694700,7.27469482421875,-0.01827559433877468,-0.007256742101162672,-0.030861329287290573
1761469060691650600,7.284650634765625,-0.02039162814617157,-0.021528607234358788,-0.04269708693027496
1761469060701605600,7.294605712890625,-0.02272908389568329,-0.019124837592244148,-0.04021315649151802
1761469060711560700,7.304560791015625,-0.02638840861618519,-0.001961178844794631,-0.026358945295214653
1761469060721516500,7.3145166015625,-0.03012349270284176,0.010826255194842815,-0.011103559285402298
1761469060731471600,7.3244716796875,-0.02865108661353588,0.017491256818175316,0.00016150926239788532
1761469060741426700,7.3344267578125,-0.02365925721824169,0.024473531171679497,0.009910009801387787
1761469060751382500,7.344382568359375,-0.01702309399843216,0.02933529019355774,0.011973464861512184
1761469060761337900,7.354337890625,-0.012869629077613354,0.0336591973900795,0.01658925600349903
1761469060771292700,7.364292724609375,-0.004537859465926886,0.0336766317486763,0.016034256666898727
1761469060781248500,7.37424853515625,0.002664127154275775,0.027734585106372833,0.012486658990383148
1761469060791203800,7.384203857421875,0.007857950404286385,0.02217295952141285,0.00416499562561512
1761469060801158700,7.39415869140625,0.010258790105581284,0.015571248717606068,-0.010375597514212132
1761469060811114500,7.404114501953125,0.009239906445145607,0.009379560127854347,-0.020223310217261314
1761469060821069800,7.41406982421875,0.0064358641393482685,0.008603781461715698,-0.025162409991025925
1761469060831024600,7.424024658203125,-0.0005094779771752656,0.012923906557261944,-0.019627276808023453
1761469060840980700,7.433980712890625,-0.004497028887271881,0.020291276276111603,-0.013067910447716713
1761469060850935800,7.443935791015625,-0.004879276733845472,0.03041958436369896,-0.0077917142771184444
1761469060860890600,7.453890625,-0.006226836238056421,0.03426998108625412,-0.007273196708410978
1761469060870846700,7.4638466796875,-0.00529547268524766,0.030623409897089005,-0.016025573015213013
1761469060880801800,7.4738017578125,-0.004042189102619886,0.018272200599312782,-0.0229167677462101
1761469060890756600,7.483756591796875,0.0006987563101574779,0.009712239727377892,-0.029832899570465088
1761469060900712700,7.493712646484375,0.00017890724120661616,0.005678616464138031,-0.02906564250588417
1761469060910667800,7.503667724609375,0.0010091544827446342,0.009796010330319405,-0.02800801768898964
1761469060920622600,7.51362255859375,-0.0023150029592216015,0.021100597456097603,-0.024207156151533127
1761469060930578700,7.52357861328125,-0.009651885367929935,0.021947963163256645,-0.025567391887307167
1761469060940533800,7.53353369140625,-0.011504646390676498,0.016640549525618553,-0.03208388015627861
1761469060950488600,7.543488525390625,-0.015690546482801437,0.000816138694062829,-0.037997059524059296
1761469060960444700,7.553444580078125,-0.018309233710169792,-0.011855182237923145,-0.03603298217058182
1761469060970399700,7.563399658203125,-0.01966569386422634,-0.011435121297836304,-0.027712136507034302
1761469060980355800,7.57335595703125,-0.017407331615686417,-0.007948776707053185,-0.012918810360133648
1761469060990310700,7.583310546875,-0.012001480907201767,0.0066000851802527905,0.00687517412006855
1761469061000265500,7.593265380859375,-0.010827825404703617,0.017827173694968224,0.02252763696014881
1761469061010221800,7.603221923828125,-0.010579842142760754,0.024078039452433586,0.031404610723257065
1761469061020176600,7.6131767578125,-0.009369702078402042,0.022023143246769905,0.03208611160516739
1761469061030131500,7.62313134765625,-0.009909721091389656,0.014096536673605442,0.02458406798541546
1761469061040087800,7.633087890625,-0.007441770285367966,0.0074058775790035725,0.015239035710692406
1761469061050042600,7.643042724609375,-0.00947935413569212,0.008183158934116364,0.00854099728167057
1761469061059997400,7.65299755859375,-0.002995888702571392,0.011826896108686924,0.0020447480492293835
1761469061069953800,7.662953857421875,0.001975321676582098,0.005442047491669655,-0.010785767808556557
1761469061079908600,7.67290869140625,0.009033763781189919,-0.004693410824984312,-0.01845407299697399
1761469061089863400,7.682863525390625,0.01285894587635994,-0.009764548391103745,-0.023328475654125214
1761469061099819500,7.692819580078125,0.018957052379846573,-0.012656208127737045,-0.02588590979576111
1761469061109774300,7.7027744140625,0.020992577075958252,-0.007775045465677977,-0.021596087142825127
1761469061119729400,7.7127294921875,0.02477399818599224,-0.0019451199332252145,-0.009859802201390266
1761469061129685500,7.722685546875,0.024709340184926987,0.0034260363318026066,0.001058461843058467
1761469061139640300,7.732640380859375,0.02461133524775505,0.008525457233190536,0.013676784932613373
1761469061149595400,7.742595458984375,0.02212478592991829,0.01707889325916767,0.022984923794865608
1761469061159551500,7.752551513671875,0.022323723882436752,0.01540988776832819,0.02081924118101597
1761469061169506300,7.76250634765625,0.025197062641382217,0.0014080514665693045,0.01549922302365303
1761469061179461400,7.77246142578125,0.024647384881973267,-0.011720267124474049,0.008509224280714989
1761469061189417500,7.78241748046875,0.026071181520819664,-0.025248205289244652,0.002201264724135399
1761469061199372300,7.792372314453125,0.02802940458059311,-0.02572278119623661,0.0020159087143838406
1761469061209327400,7.802327392578125,0.027266129851341248,-0.01791059598326683,0.013504807837307453
1761469061219283500,7.812283447265625,0.024424536153674126,-0.00927423220127821,0.026367343962192535
1761469061229238500,7.822238525390625,0.02104809507727623,-0.002221170347183943,0.029165809974074364
1761469061239193300,7.832193359375,0.017120733857154846,0.0005767468246631324,0.030180208384990692
1761469061249149400,7.8421494140625,0.014512362889945507,0.0030433405190706253,0.025472458451986313
1761469061259104500,7.8521044921875,0.012423112988471985,0.0027250926941633224,0.017980452626943588
1761469061269060400,7.862060302734375,0.0058066146448254585,0.004648014437407255,0.013214110396802425
1761469061279015400,7.872015380859375,0.004545608069747686,0.0074597797356545925,0.011932331137359142
1761469061288970500,7.881970458984375,0.002841395325958729,0.011400632560253143,0.008215521462261677
1761469061298926300,7.89192626953125,0.002081329235807061,0.0054748328402638435,-0.004530899692326784
1761469061308881400,7.90188134765625,-0.0011182622984051704,-0.008014199323952198,-0.020876586437225342
1761469061318836500,7.91183642578125,-0.0011065443977713585,-0.01488595362752676,-0.029257286339998245
1761469061328792300,7.921792236328125,0.002537949476391077,-0.007293879520148039,-0.023201193660497665
1761469061338747400,7.931747314453125,0.0010268717305734754,-0.0028711678460240364,-0.013832460157573223
1761469061348702500,7.941702392578125,-0.00030057397088967264,-0.00884218979626894,-0.0008432641625404358
1761469061358658300,7.951658203125,-0.006975787226110697,0.006152206566184759,0.015118125826120377
1761469061368613400,7.96161328125,-0.01013278216123581,0.020392606034874916,0.022561945021152496
1761469061378568400,7.971568359375,-0.009041684679687023,0.029764803126454353,0.025732439011335373
1761469061388524300,7.981524169921875,-0.004941538907587528,0.0301821231842041,0.021635252982378006
1761469061398479400,7.991479248046875,-0.0033015641383826733,0.017340626567602158,0.006325538270175457
1761469061410300400,8.003300537109375,0.0006907113129273057,-0.004306904040277004,-0.016056012362241745
1761469061420256300,8.01325634765625,0.0026281611062586308,-0.013644746504724026,-0.03147038817405701
1761469061430211300,8.02321142578125,-0.00022493937285616994,-0.018475012853741646,-0.032800476998090744
1761469061440166400,8.03316650390625,-0.003089701756834984,-0.009821871295571327,-0.020406924188137054
1761469061450122200,8.043122314453125,-0.002285650232806802,0.00015909288777038455,-0.005846609361469746
1761469061460077300,8.053077392578125,-0.002128790132701397,0.016609705984592438,0.00113753043115139
1761469061470032400,8.063032470703124,-0.0013292550574988127,0.024827344343066216,0.0033293364103883505
1761469061479988200,8.07298828125,-0.0026155617088079453,0.02035296894609928,-0.0023839431814849377
1761469061489943600,8.082943603515625,0.0018648984842002392,0.00575735280290246,-0.010659574531018734
1761469061499898400,8.0928984375,0.0037397637497633696,-0.008554208092391491,-0.023643285036087036
1761469061509854200,8.102854248046874,0.010149361565709114,-0.016998451203107834,-0.030415207147598267
1761469061519809500,8.1128095703125,-0.003257523290812969,-0.00026874002651311457,-0.037257663905620575
1761469061529764400,8.122764404296875,-0.015302089042961597,0.0037862800527364016,-0.060509711503982544
1761469061539720200,8.13272021484375,-0.005678757093846798,-0.010322081856429577,-0.07764262706041336
1761469061549675500,8.142675537109374,-0.020166508853435516,0.006465968210250139,-0.08722694218158722
1761469061559630300,8.15263037109375,-0.02957199513912201,-0.0006159098702482879,-0.10427943617105484
1761469061569586400,8.16258642578125,-0.025747036561369896,-0.03246959298849106,-0.13942818343639374
1761469061579541500,8.17254150390625,-0.01753171719610691,-0.06366533041000366,-0.1695927530527115
1761469061589496300,8.182496337890624,-0.01712474226951599,-0.08485514670610428,-0.18172571063041687
1761469061599452400,8.192452392578126,-0.006719591096043587,-0.04125818610191345,-0.14001180231571198
1761469061609407500,8.202407470703125,-0.010028835386037827,-0.008905306458473206,-0.08194050937891006
1761469061619363300,8.21236328125,-0.01062272023409605,0.007139440160244703,-0.03131089359521866
1761469061629318400,8.222318359375,-0.014925757423043251,0.02925058826804161,0.017491493374109268
1761469061639273500,8.2322734375,-0.02653980255126953,0.0527319461107254,0.047326888889074326
1761469061649229300,8.242229248046876,-0.04204171523451805,0.06544850021600723,0.06139829009771347
1761469061659184400,8.252184326171875,-0.04691130295395851,0.06210436671972275,0.06352508813142776
1761469061669139500,8.262139404296875,-0.04745674505829811,0.05421968176960945,0.059611350297927856
1761469061679095600,8.272095458984374,-0.04178314656019211,0.0442754365503788,0.04880690574645996
1761469061689050400,8.28205029296875,-0.03372345492243767,0.03083820641040802,0.027639612555503845
1761469061699005400,8.29200537109375,-0.028232283890247345,0.010983007028698921,0.0026501058600842953
1761469061708961500,8.30196142578125,-0.023005355149507523,-0.0005576277617365122,-0.01994452066719532
1761469061718916400,8.311916259765624,-0.025374723598361015,-0.004398982971906662,-0.03455483913421631
1761469061728871400,8.321871337890625,-0.02744506672024727,-0.0022729814518243074,-0.030332667753100395
1761469061738827500,8.33182763671875,-0.028967328369617462,0.012174135074019432,-0.004135949537158012
1761469061749405400,8.342405517578126,-0.03023708239197731,0.034741826355457306,0.01852215826511383
1761469061759360300,8.3523603515625,-0.02860429883003235,0.04814338684082031,0.026538006961345673
1761469061769316400,8.36231640625,-0.022914862260222435,0.05286182835698128,0.023234538733959198
1761469061779271400,8.372271484375,-0.019465535879135132,0.04380601644515991,0.017681049183011055
1761469061789226200,8.382226318359375,-0.011018240824341774,0.02045375294983387,0.006910937838256359
1761469061799182300,8.392182373046875,0.003305304329842329,0.0005436952924355865,-0.005393132101744413
1761469061809137400,8.402137451171875,0.012944713234901428,-0.009908425621688366,-0.019888758659362793
1761469061819092500,8.412092529296874,0.02246311865746975,-0.017466209828853607,-0.03466477617621422
1761469061829048300,8.42204833984375,0.025750454515218735,-0.016429733484983444,-0.048619553446769714
1761469061839003400,8.43200341796875,0.028539316728711128,-0.015191631391644478,-0.04959879815578461
1761469061848958500,8.44195849609375,0.02766295336186886,-0.0012572144623845816,-0.03672368824481964
1761469061858914300,8.451914306640624,0.024889271706342697,0.006950913928449154,-0.022379634901881218
1761469061868869400,8.461869384765626,0.025169871747493744,0.012646363116800785,-0.0041334787383675575
1761469061878824400,8.471824462890625,0.029160885140299797,0.014235205017030239,0.010845204815268517
1761469061888780300,8.4817802734375,0.03394879773259163,-0.000028630922315642238,0.015910783782601357
1761469061898735400,8.4917353515625,0.036032188683748245,-0.007607454899698496,0.016070839017629623
1761469061908690400,8.5016904296875,0.035370901226997375,-0.006204995326697826,0.015665894374251366
1761469061918646300,8.511646240234375,0.030363624915480614,-0.004856636747717857,0.02003347873687744
1761469061928601600,8.5216015625,0.028893237933516502,-0.001635636785067618,0.031652215868234634
1761469061938556400,8.531556396484374,0.021671010181307793,0.0009779894025996327,0.04107927158474922
1761469061948512300,8.54151220703125,0.019335249438881874,-0.0016319211572408676,0.045336563140153885
1761469061958467600,8.551467529296875,0.018331503495573997,-0.0009293793118558824,0.048348862677812576
1761469061968423400,8.56142333984375,0.01740228570997715,0.005632489454001188,0.04829973727464676
1761469061978378200,8.571378173828125,0.013426718302071095,0.00464898394420743,0.04909229651093483
1761469061988333600,8.58133349609375,0.005547153297811747,0.001253694063052535,0.04911644756793976
1761469061998289400,8.591289306640626,-0.0009802543791010976,-0.014337782748043537,0.04688764736056328
1761469062008244500,8.601244384765625,-0.005513150244951248,-0.019056878983974457,0.042016807943582535
1761469062018199600,8.611199462890625,-0.006620226427912712,-0.0058960686437785625,0.04601874202489853
1761469062028155400,8.6211552734375,-0.006875721272081137,0.006405617576092482,0.04728111997246742
1761469062038110500,8.6311103515625,-0.003635452827438712,0.011696252971887589,0.04448346793651581
1761469062048065500,8.6410654296875,-0.0054778424091637135,0.017178436741232872,0.036815449595451355
1761469062058021400,8.651021484375,-0.010033979080617428,0.015602911822497845,0.03397625312209129
1761469062067976400,8.6609765625,-0.016752082854509354,0.008542140014469624,0.03839818760752678
1761469062077931500,8.670931640625,-0.02105601690709591,-0.013826016336679459,0.04019821807742119
1761469062087887400,8.680887451171875,-0.02350584603846073,-0.01664041541516781,0.03292156383395195
1761469062097842400,8.690842529296875,-0.017678583040833473,-0.007066085934638977,0.034288566559553146
1761469062107797500,8.700797607421874,-0.025691555812954903,0.000011342257494106889,0.029877547174692154
1761469062117753300,8.71075341796875,-0.016384873539209366,0.011550553143024445,0.03606486693024635
1761469062127708400,8.72070849609375,-0.024486156180500984,0.011564322747290134,0.03212527930736542
1761469062137664300,8.730664306640625,-0.036281030625104904,0.016658417880535126,0.021527495235204697
1761469062147619300,8.740619384765624,-0.040615227073431015,0.02693331614136696,0.0037863533943891525
1761469062157574400,8.750574462890626,-0.054753948003053665,0.015953902155160904,-0.018274474889039993
1761469062167530200,8.7605302734375,-0.05326812341809273,-0.006700478494167328,-0.04085175320506096
1761469062177485600,8.770485595703125,-0.06266695261001587,0.021999608725309372,-0.013179910369217396
1761469062187440400,8.7804404296875,-0.05897962674498558,-0.020895352587103844,-0.023388132452964783
1761469062197396200,8.790396240234376,-0.03983522951602936,-0.04074042662978172,-0.02553863450884819
1761469062207351600,8.8003515625,-0.03389611467719078,-0.07788343727588654,-0.022448647767305374
1761469062217306400,8.810306396484375,-0.022726815193891525,-0.08273305743932724,0.0034788232296705246
1761469062227262200,8.82026220703125,-0.008748793043196201,-0.08977527171373367,0.02956382744014263
1761469062237217500,8.830217529296876,0.007367858663201332,-0.0915079265832901,0.05277087539434433
1761469062247172400,8.84017236328125,0.01698746159672737,-0.08042694628238678,0.070646733045578
1761469062257128400,8.85012841796875,0.02287810854613781,-0.06741473823785782,0.0718664601445198
1761469062267083500,8.86008349609375,0.03623799607157707,-0.041929300874471664,0.07069163769483566
1761469062277038300,8.870038330078126,0.036428678780794144,0.010365593247115612,0.06007814034819603
