time,seconds_elapsed,z,y,x
1761507782891004400,0.07700439453125,0.008482581663131714,-0.014072437559440732,0.11490484728370792
1761507782900975400,0.086975341796875,0.013511808001995087,-0.029632775589078664,0.11583331463970244
1761507782910947300,0.096947265625,0.045835868501663206,-0.02274462351053953,0.0795718872916419
1761507782920919300,0.106919189453125,0.08528174370527267,-0.011799889517575502,0.05323310261350125
1761507782930891300,0.116891357421875,0.11424246525168419,-0.024820479936525225,0.05437827232694253
1761507782940863500,0.126863525390625,0.15144494544267653,-0.021986937011033294,0.07448696697647683
1761507782950835500,0.13683544921875,0.14794190575778485,-0.017331512420624494,0.08740693743200972
1761507782960806400,0.146806396484375,0.13029402086436748,0.01764540067538619,0.11322763478648848
1761507782970778400,0.1567783203125,0.10160042582154273,0.061689344258978956,0.11517106047184206
1761507782980750300,0.166750244140625,0.06975742683708668,0.06465038602165878,0.13562150863059796
1761507782990722300,0.176722412109375,0.01658814670741558,0.05909779339581728,0.13471465945136732
1761507783000694300,0.1866943359375,-0.047885202246904374,0.05724493207074702,0.1338744914333336
1761507783010666500,0.19666650390625,-0.11481880383491515,0.07036825221180916,0.1412352111933753
1761507783020637200,0.20663720703125,-0.1638601903796196,0.07912804338112472,0.138187020870205
1761507783030609400,0.216609375,-0.18284604587852954,0.08457593352347612,0.1321284697499126
1761507783040581400,0.226581298828125,-0.16544833635389805,0.08641425486654043,0.15557996288817375
1761507783050553300,0.23655322265625,-0.11851765835285186,0.07725881544314324,0.18143524749884382
1761507783060525300,0.246525390625,-0.060467620444297786,0.07488200330920516,0.21977120696548372
1761507783070497300,0.256497314453125,-0.016589315751194954,0.055849312993884084,0.25790968936495484
1761507783080469200,0.26646923828125,-0.015105214673280715,0.049158948509767646,0.30222861396502704
1761507783090440200,0.276440185546875,-0.030611995884776113,0.07646430406458675,0.30009341030092906
1761507783100412400,0.286412353515625,-0.019282792618870732,0.09425145129822195,0.3111944856330752
1761507783110384400,0.29638427734375,-0.015351882910728453,0.09120550773106514,0.3334005452875048
1761507783120356400,0.3063564453125,0.03034779199063778,0.07325710552111267,0.33056583331823347
1761507783130328300,0.316328369140625,0.08330196806490421,0.04536094446629286,0.3483575471291318
1761507783140300300,0.32630029296875,0.118384971883893,0.034324805862829086,0.3403076943274587
1761507783150271500,0.336271484375,0.13488719387352466,0.02674728328064084,0.32890385492276397
1761507783160243200,0.3462431640625,0.13941899208426475,0.015180398801341652,0.3181782070405781
1761507783170215400,0.35621533203125,0.12762860104739665,0.0036620296388864514,0.31479345997311176
1761507783180187400,0.3661875,0.10054536381065846,-0.002992094488069415,0.32826376692093906
1761507783190159400,0.376159423828125,0.08595920457541942,0.02326572477519512,0.3254791046384722
1761507783200131300,0.38613134765625,0.0781266112536192,0.011960559972003102,0.3139696859674528
1761507783210102300,0.396102294921875,0.029134909069538115,-0.03865048704221844,0.3138662255929783
1761507783220074500,0.406074462890625,-0.041317514294385904,-0.0989706618398428,0.28383986584274096
1761507783230046200,0.416046142578125,-0.12475742952525615,-0.12799049316234887,0.234488810560666
1761507783240018400,0.426018310546875,-0.20250410155057905,-0.13205408933944998,0.1882492200963199
1761507783249990400,0.435990478515625,-0.2363561022698879,-0.12840418852977453,0.1579943305535242
1761507783259962400,0.44596240234375,-0.22624036644697187,-0.1319028443004936,0.15752280405163763
1761507783269934300,0.455934326171875,-0.18614333385825155,-0.173018479347229,0.20728616646165027
1761507783279905300,0.4659052734375,-0.15535247427523136,-0.19273082248978315,0.2703789477777667
1761507783289877500,0.47587744140625,-0.14575871649980543,-0.18125643859952686,0.30817992358487095
1761507783299849200,0.48584912109375,-0.13077800498902797,-0.1526821590874344,0.3329816622883081
1761507783309821400,0.495821533203125,-0.10057517442703247,-0.14295666469112037,0.35772030916027725
1761507783319793400,0.50579345703125,-0.08808452616631984,-0.13470686887055636,0.3942653483558446
1761507783329765400,0.515765380859375,-0.09401859239041804,-0.14572459503449497,0.45892377155348657
1761507783339736600,0.525736572265625,-0.11986030513346195,-0.13797449236437678,0.49885129279419776
1761507783349708300,0.535708251953125,-0.16327917562127112,-0.10831950494349002,0.5003135473664849
1761507783359680500,0.545680419921875,-0.24943770216107367,-0.0875758459918201,0.531642240153253
1761507783369652200,0.55565234375,-0.33504093290567394,-0.05836655651181936,0.5679562470719218
1761507783379624400,0.56562451171875,-0.4217828122913837,-0.002135185397788882,0.6001227789223194
1761507783389596400,0.575596435546875,-0.4896434655964374,0.050360579384490844,0.5894335540603846
1761507783399567400,0.5855673828125,-0.5433493368208409,0.1188783814240247,0.6085848657866939
1761507783409539600,0.59553955078125,-0.5718418563336134,0.1384749892324209,0.6174869515035301
1761507783419511300,0.60551123046875,-0.49690088937878607,0.19130305470898745,0.5611765603365376
1761507783429483500,0.6154833984375,-0.3127396692484617,0.23557868815660477,0.4525600452078506
1761507783439455200,0.625455322265625,-0.029330139380693433,0.23660532779060303,0.30851332025770095
1761507783449427500,0.635427490234375,0.2970119387626648,0.2866889168646186,0.24052862044787032
1761507783459399400,0.6453994140625,0.5082072962909937,0.2851846497815102,0.21992272599907592
1761507783469370400,0.655370361328125,0.6248088918894529,0.3084539547532797,0.17892728326590732
1761507783479342300,0.66534228515625,0.6604910306453704,0.36707470522187646,0.09572139598662033
1761507783489314300,0.675314208984375,0.680288787049055,0.4385491651099175,0.016370865536300697
1761507783499286500,0.68528662109375,0.7556301514983177,0.5167904887843877,-0.06069978066578041
1761507783509258200,0.69525830078125,0.9049947835355997,0.5394999679163098,-0.12031611347640864
1761507783519230500,0.70523046875,1.0545821184128523,0.4979690300669521,-0.151461229857197
1761507783529201200,0.715201171875,1.1041939983218907,0.43556145453602074,-0.21508151477929202
1761507783539173400,0.72517333984375,1.0822212359666823,0.3642353170774877,-0.3159793087568134
1761507783549145300,0.735145263671875,0.9739216047674417,0.31497992245592177,-0.43834998927600677
1761507783559117300,0.745117431640625,0.8487544253975152,0.25042305993661285,-0.5334801961701363
1761507783569089500,0.755089599609375,0.6615186201274394,0.16441351341344415,-0.5557534758418798
1761507783579061200,0.765061279296875,0.4471066386401653,0.06724398271143436,-0.52819765265733
1761507783589032400,0.775032470703125,0.2402297288328409,-0.042199411695450544,-0.5108681495307013
1761507783599004200,0.785004150390625,0.002927285623550415,-0.16809841247126459,-0.5181922088084742
1761507783608976400,0.794976318359375,-0.2482026074081659,-0.32813078819103536,-0.5520028180714697
1761507783618948400,0.8049482421875,-0.47197044626176354,-0.5036508750956505,-0.5635962617641315
1761507783628920300,0.81492041015625,-0.689259444490075,-0.6884644947201013,-0.5255637604897841
1761507783638892300,0.824892333984375,-0.8701029183745383,-0.8431745794385671,-0.4312660954296589
1761507783648863500,0.834863525390625,-0.9957371307343243,-0.9071954353850334,-0.2981703880827874
1761507783658835500,0.84483544921875,-1.0260545275866986,-0.8890811020236462,-0.14391361835608257
1761507783668807400,0.854807373046875,-0.9818833774268627,-0.9535466329976916,-0.04234090709195006
1761507783678779400,0.864779296875,-0.813316032269597,-0.982990096559748,-0.0026619069774111268
1761507783688751400,0.87475146484375,-0.5518687433630227,-1.0333506759442388,0.033133070761035194
1761507783698723600,0.8847236328125,-0.29421090986728665,-1.1099445246726274,0.09370992830004543
1761507783708695300,0.8946953125,-0.07977437846064567,-1.1600343973569571,0.18041335710519923
1761507783718666500,0.90466650390625,0.04736380872130394,-1.2083449123438448,0.24173967673806473
1761507783728638500,0.914638427734375,0.08719137671887874,-1.2263581964835524,0.27598865915201604
1761507783738610400,0.9246103515625,0.07328793905079364,-1.1969980272907763,0.27456063564289357
1761507783748582400,0.93458251953125,0.038836218872666355,-1.1720352893393486,0.27208801671797406
1761507783758554400,0.944554443359375,0.029575054052472113,-1.1408133448626845,0.27858015521625057
1761507783768526600,0.954526611328125,-0.00526245057284832,-1.1107760801259428,0.3092534711005166
1761507783778497500,0.96449755859375,-0.045346623679995535,-1.0458250306572765,0.3390482688508928
1761507783788469500,0.974469482421875,-0.10287994423806666,-0.9450118096906691,0.3591166223568842
1761507783798441500,0.98444140625,-0.14213409626185894,-0.8189769806407392,0.3805251749580726
1761507783808413400,0.994413330078125,-0.11976853519678116,-0.6988106782980262,0.378185954888165
1761507783818385400,1.004385498046875,-0.0442763640999794,-0.5714589214306325,0.37988231047727167
1761507783828357400,1.014357421875,0.07502689167261123,-0.4817110651619732,0.3905739464920014
1761507783838328300,1.024328369140625,0.24262685310244558,-0.414882312187925,0.3931111733520403
1761507783848300500,1.034300537109375,0.368086877939105,-0.37994032427482305,0.41704570076689124
1761507783858272500,1.0442724609375,0.4346668437838554,-0.3353461263973266,0.4419681067079305
1761507783868244500,1.054244384765625,0.44151627128720283,-0.27500797755159434,0.46969548706710335
1761507783878216400,1.064216552734375,0.4174076659470796,-0.18954780853949485,0.4652207162732258
1761507783888188400,1.0741884765625,0.4183995995938778,-0.13670162288434803,0.45510479778721924
1761507783898160400,1.084160400390625,0.41501872498393055,-0.10145458761006593,0.4596192795369774
1761507783908131300,1.09413134765625,0.43106268181204793,-0.10682122920975089,0.45380858396422113
1761507783918103600,1.104103515625,0.43648353781700133,-0.1228573680575937,0.4208410744618624
1761507783928075500,1.114075439453125,0.41811201482415195,-0.16764679624624548,0.3671987334603444
1761507783938047500,1.124047607421875,0.4094219278901815,-0.22332710934877395,0.3715349725663662
1761507783948019500,1.13401953125,0.4220914398491382,-0.2538840140454471,0.3584417187700048
1761507783957991400,1.143991455078125,0.47744274019300936,-0.30272016034163535,0.34296704972982406
1761507783967962600,1.153962646484375,0.5513169546991586,-0.4090920383486896,0.3474521592546254
1761507783977934300,1.163934326171875,0.599927548611164,-0.5351002716526388,0.33052232297006995
1761507783987906600,1.173906494140625,0.6090946054071188,-0.6299236045546829,0.31613581449277695
1761507783997878500,1.18387841796875,0.5474567721396685,-0.7216139001280069,0.28848412971831855
1761507784007850500,1.1938505859375,0.451695135474205,-0.7733801085267216,0.22668396376231684
1761507784017822500,1.203822509765625,0.3621656711965799,-0.8069525616522878,0.1719868347445503
1761507784027793400,1.21379345703125,0.30640695909559723,-0.8689306597247719,0.14658824439281598
1761507784037765400,1.223765380859375,0.2718576237618923,-0.9608267800685018,0.11970957155115902
1761507784047737300,1.2337373046875,0.211424490109086,-1.0721163868639618,0.09532488921601324
1761507784057709600,1.24370947265625,0.1117360353887081,-1.1558957631822675,0.04330448686052114
1761507784067681500,1.253681640625,0.002792261067032814,-1.2178770030599086,-0.02591665940908715
1761507784077653500,1.263653564453125,-0.08699205475449562,-1.2289607801973819,-0.09283454283815808
1761507784087625500,1.27362548828125,-0.15611410629749298,-1.244218262822926,-0.1784428790161386
1761507784097596400,1.283596435546875,-0.2257768405884504,-1.2899138460710644,-0.25109284895695744
1761507784107568400,1.293568359375,-0.281013574641943,-1.3198065877705811,-0.335638095081225
1761507784117540400,1.303540283203125,-0.34980887844860553,-1.314174427102506,-0.36177225143220276
1761507784127512600,1.3135126953125,-0.40794893272817134,-1.2754729405254124,-0.3695699561037123
1761507784137484500,1.323484619140625,-0.42306642236113545,-1.1986107231844216,-0.33580629125498235
1761507784147456500,1.33345654296875,-0.4022703025698662,-1.1325251167278736,-0.25733630992379036
1761507784157427500,1.343427490234375,-0.3137204969793558,-1.0878558808527887,-0.14789185607098043
1761507784167399400,1.3533994140625,-0.2485392920166254,-1.0547998528167606,-0.04807557371985167
1761507784177371400,1.363371337890625,-0.28178572805821894,-1.0058432950112968,0.010406809457670897
1761507784187343400,1.37334326171875,-0.4339116415023803,-0.9258849382858723,0.04146408315822482
1761507784197315300,1.3833154296875,-0.6306044264256954,-0.7799141134053468,0.06534735530987382
1761507784207287600,1.39328759765625,-0.8433809156656265,-0.6120012866340577,0.13141328895157203
1761507784217258500,1.403258544921875,-1.0489227774769068,-0.4344787008006125,0.20316358837261794
1761507784227230500,1.41323046875,-1.21570382373929,-0.21685367555096743,0.2385364419836551
1761507784237202400,1.423202392578125,-1.347513509863615,0.012310542453452944,0.20495916655249893
1761507784247174400,1.43317431640625,-1.378769064348936,0.23142346817329523,0.13523369662309995
1761507784257146400,1.443146484375,-1.2485779193371533,0.3965234294809401,0.04350876812781207
1761507784267118300,1.453118408203125,-0.8878571862518787,0.46679457799382507,0.007102214954327791
1761507784277089300,1.46308935546875,-0.36647359752357006,0.4401722362671047,0.004721165036689489
1761507784287061500,1.4730615234375,0.22292028211355208,0.3985583693746477,-0.02163470777356997
1761507784297033500,1.483033447265625,0.7514999198257922,0.36468788315057754,-0.004480469882301986
1761507784307005400,1.49300537109375,1.0904144792944193,0.31624585073851047,0.051624297443684186
1761507784316977400,1.502977294921875,1.263133098912239,0.3403068906098604,0.020932934446074067
1761507784326949400,1.512949462890625,1.3259019820362328,0.3893716580301523,-0.11154780107391997
1761507784336920600,1.522920654296875,1.2916647813916207,0.4322115595862269,-0.24717604083940387
1761507784346892300,1.532892333984375,1.2176830148577689,0.45966976761519907,-0.3850722803357988
1761507784356864500,1.542864501953125,1.1279232489556072,0.45814840326681733,-0.48939986609891056
1761507784366836500,1.55283642578125,1.02631288626194,0.4761982930898666,-0.5714376594468951
1761507784376808400,1.562808349609375,0.9484539860337972,0.5216521765366197,-0.5710050401832908
1761507784386780400,1.572780517578125,0.8460708854019642,0.5950666645765305,-0.5447513491058722
1761507784396751400,1.58275146484375,0.7253928341448307,0.6469371370673179,-0.5015351250506938
1761507784406723600,1.5927236328125,0.5753267758399248,0.6449724128656089,-0.4697208772366866
1761507784416695300,1.6026953125,0.3801251062572002,0.6256943694870919,-0.41929475833531465
1761507784426667500,1.61266748046875,0.13104863862395286,0.5895750083576887,-0.358271622900106
1761507784436639500,1.622639404296875,-0.10210428369045257,0.5797960302084684,-0.305420176547952
1761507784446611500,1.632611572265625,-0.28464696270823475,0.5767169150240719,-0.2470284125296399
1761507784456582700,1.642582763671875,-0.3589338496685028,0.570700796539709,-0.19791284650387242
1761507784466554400,1.652554443359375,-0.33404607664942737,0.5601957691382616,-0.16566442678999155
1761507784476526600,1.662526611328125,-0.2295464222550392,0.5098541867151856,-0.09819611553708091
1761507784486498300,1.672498291015625,-0.0824047269642353,0.4656998415596783,-0.026836783628421835
1761507784496470500,1.682470458984375,0.048398412466049194,0.44360279523767526,0.014346847753762267
1761507784506442500,1.6924423828125,0.1322574298918247,0.41375272363610566,0.041135837584547696
1761507784516414500,1.70241455078125,0.1565051514416933,0.38086606081761415,0.1144941201915033
1761507784526385700,1.7123857421875,0.1158668515831232,0.39007140379734334,0.1853612070372328
1761507784536357400,1.722357421875,0.06691665045320987,0.43025721064805983,0.24927186234118415
1761507784546329600,1.73232958984375,0.05310030654668808,0.49869317962303755,0.29926479572337117
1761507784556301300,1.74230126953125,0.07906535340845584,0.5582237384129315,0.34223435154110193
1761507784566273500,1.7522734375,0.13909692052304745,0.5634240835350006,0.40211562346480784
1761507784576245500,1.76224560546875,0.1968693105340004,0.5363067248329519,0.4318408631103113
1761507784586216400,1.772216552734375,0.21680910575687884,0.4976898477993905,0.41530630975365634
1761507784596188700,1.782188720703125,0.21142799724042413,0.4504644977007061,0.32937633127272126
1761507784606160400,1.792160400390625,0.17247195138037202,0.3614897446963936,0.20869486421579495
1761507784616132600,1.802132568359375,0.06918167277574538,0.2585151809774339,0.08589429524620062
1761507784626104300,1.812104248046875,-0.07054302425682545,0.2031503635648638,-0.005677857265103376
1761507784636076300,1.822076171875,-0.21542846505343913,0.19602759901285172,-0.023335846852359825
1761507784646047200,1.832047119140625,-0.33589901103973385,0.21539405132718384,0.006070328323054127
1761507784656019200,1.842019287109375,-0.4619646005541086,0.26357144145369527,0.05120328185290564
1761507784665991200,1.8519912109375,-0.5656798265725373,0.3016667057659477,0.07132110052381176
1761507784675963100,1.861963134765625,-0.6244447347521782,0.3382908015470952,0.11201038621752522
1761507784685935000,1.87193505859375,-0.6185656135857105,0.37102658465281124,0.1718740037535317
1761507784695907000,1.881906982421875,-0.5623135650098323,0.3856573867473751,0.2881735659318045
1761507784705878000,1.8918779296875,-0.4645031791210174,0.38715982719957825,0.42913189641255883
1761507784715850200,1.901850341796875,-0.2822673740953207,0.39424562074206765,0.5623601806305348
1761507784725822200,1.911822265625,-0.06624269671440124,0.36394006045795974,0.6805630008805543
1761507784735794200,1.921794189453125,0.14277940842807293,0.2975763677123934,0.765163411258161
1761507784745766100,1.93176611328125,0.3297188611000776,0.2328880608331412,0.8167006332065909
1761507784755738000,1.941738037109375,0.4767658638447523,0.16828034490942953,0.8277763001028448
1761507784765709000,1.951708984375,0.584614244145155,0.0891461640484631,0.8314367223065346
1761507784775681000,1.961680908203125,0.6297469328135251,0.018123539581149817,0.8319079930800944
1761507784785653000,1.971653076171875,0.6661924571573734,-0.036793095672503114,0.8304168777395039
1761507784795625200,1.981625244140625,0.6871142491549254,-0.07687609973587095,0.8060358121335506
1761507784805597200,1.99159716796875,0.6655968293517828,-0.138096219047904,0.7895340285353362
1761507784815569200,2.001569091796875,0.5764619173496961,-0.19673739125002174,0.7534972311228513
1761507784825540000,2.0115400390625,0.4477683174192905,-0.23798662608116863,0.6670967855859548
1761507784835512000,2.021511962890625,0.295747033393383,-0.28920838887225836,0.539253957265988
1761507784845484000,2.031484130859375,0.1559866805255413,-0.34607586593274026,0.4557059054855257
1761507784855456000,2.0414560546875,0.07249065119326115,-0.40406905908752233,0.4087203554920852
1761507784865428200,2.05142822265625,0.05620762491226196,-0.4460995074242353,0.37702885727491225
1761507784875400200,2.061400146484375,0.066480012601614,-0.5098485241593793,0.33990294945146887
1761507784885371100,2.07137109375,0.06831073516011238,-0.5651787817152216,0.3061526920735836
1761507784895343000,2.081343017578125,0.07504910350441932,-0.6231997031271457,0.2827576418302953
1761507784905315000,2.091315185546875,0.05301029017567634,-0.6724217069357633,0.24568788464087993
1761507784915287000,2.101287109375,0.03242342922091484,-0.6979002854548394,0.20306580882025882
1761507784925259000,2.111259033203125,0.024941549032926558,-0.7102244911074638,0.2206106717306189
1761507784935231200,2.121231201171875,0.006156769064068794,-0.7080867484264075,0.23277838991358876
1761507784945202200,2.1312021484375,-0.026028759747743605,-0.7115652381919324,0.22768528629196808
1761507784955174100,2.141174072265625,-0.09108078537285327,-0.7246119859654456,0.19286411174694076
1761507784965146000,2.15114599609375,-0.19964754307568072,-0.7294683399554341,0.1255016080892179
1761507784975118000,2.1611181640625,-0.2945855883985758,-0.7168116874780506,0.06494186608179006
1761507784985090300,2.17109033203125,-0.3761965346366167,-0.7167601034212857,0.03269865683256648
1761507784995062000,2.18106201171875,-0.4207809417724609,-0.716189390861243,-0.013531188555900006
1761507785005033200,2.191033203125,-0.3890408186405897,-0.6946854881267994,-0.04539636283954605
1761507785015005200,2.201005126953125,-0.3476514081537723,-0.6721678783051669,-0.031998016016231846
1761507785024977200,2.21097705078125,-0.26721944256722924,-0.6546925734996796,0.020745850908756254
1761507785034949000,2.22094921875,-0.19070202007591724,-0.629898323982954,0.11499235203722491
1761507785044921000,2.230921142578125,-0.1591319928139448,-0.6101814873283729,0.22603761041648684
1761507785054893300,2.240893310546875,-0.16854864045679568,-0.5944330793807283,0.34922866740785535
1761507785064864300,2.2508642578125,-0.20151450599133966,-0.557494364692457,0.47708062888234853
1761507785074836200,2.260836181640625,-0.2079576907813549,-0.5142839858561754,0.5742470177792013
1761507785084808200,2.27080810546875,-0.1838800651013851,-0.4907681953100487,0.6715137983106076
1761507785094780200,2.2807802734375,-0.11463760204911232,-0.47405101539548483,0.7661564408835023
1761507785104752000,2.290752197265625,0.0035386955201625824,-0.4841117330955341,0.8493542909868061
1761507785114724000,2.30072412109375,0.1422656136870384,-0.528428136944957,0.9016912850107998
1761507785124695000,2.310695068359375,0.2840922514349222,-0.5600628269409761,0.9447287549655884
1761507785134667300,2.320667236328125,0.4255214142978191,-0.5888791350480169,0.9717162767428904
1761507785144639200,2.33063916015625,0.506750083220005,-0.6023024975815787,1.000228596934676
1761507785154611200,2.340611083984375,0.4973270058363676,-0.587884169193916,0.9914624490898102
1761507785164583200,2.350583251953125,0.4169049771219492,-0.5370146173739806,0.9284772928666323
1761507785174555100,2.36055517578125,0.3317944983303547,-0.4069657303771004,0.8056226282227784
1761507785184527000,2.370527099609375,0.29460896927416325,-0.3111162327650934,0.6714219553086906
1761507785194498000,2.380498046875,0.191918410128355,-0.3024168665461242,0.5475153704591095
1761507785204470300,2.39047021484375,-0.06208206990361213,-0.327750483636558,0.34518267995268104
1761507785214442200,2.400442138671875,-0.4128641772985458,-0.32158611578792334,0.09629892187993973
1761507785224414200,2.410414306640625,-0.7419137608349323,-0.23559089005105197,-0.07452646786980331
1761507785234386200,2.42038623046875,-1.00501407764554,-0.11081212547682225,-0.14634656285773961
1761507785244358100,2.430358154296875,-1.2102847213000059,0.04624664125964045,-0.1258656099628657
1761507785254329000,2.4403291015625,-1.2771212922543287,0.22589984591361134,-0.06620510465037077
1761507785264301000,2.450301025390625,-1.2124755093425512,0.38710353043507784,-0.009121500621177255
1761507785274273300,2.460273193359375,-1.0915946289896965,0.529321213327162,-0.03679084891648963
1761507785284245200,2.470245361328125,-0.8522937054395675,0.6312616482254118,-0.17266011262992395
1761507785294217200,2.48021728515625,-0.4565560195088386,0.6721385791454464,-0.2752509011956863
1761507785304189200,2.490189208984375,0.053199675267934794,0.6913317937847226,-0.22033145293043926
1761507785314160000,2.50016015625,0.50237669044137,0.670103712316975,-0.11408840720113367
1761507785324132000,2.510132080078125,0.7137737080216408,0.5949118393409997,-0.024547992271231486
1761507785334104000,2.52010400390625,0.675081866055727,0.5428118689432739,-0.06635689767859876
1761507785344076000,2.530075927734375,0.38708267031013965,0.5181202760834247,-0.3135326462570578
1761507785354048300,2.54004833984375,0.012018354573845863,0.44998000211939215,-0.5595768700549378
1761507785364020200,2.550020263671875,-0.3040302930921316,0.39076866534650323,-0.6197323192775249
1761507785373991200,2.5599912109375,-0.5073164849311113,0.38371041739806533,-0.5491543698377906
1761507785383963100,2.569963134765625,-0.6635796443104743,0.3453429850809276,-0.43212285838946696
1761507785393935000,2.57993505859375,-0.829153652870655,0.2834894632361829,-0.36022462013140316
1761507785403907000,2.589906982421875,-0.981149802455306,0.1888221976786852,-0.40317938023880123
1761507785413879000,2.599879150390625,-1.073114969447255,0.07291508715040981,-0.4529589083323255
1761507785423851300,2.609851318359375,-1.0960668059676886,-0.054125338745489714,-0.4667605295937508
1761507785433822200,2.619822265625,-1.027366194707155,-0.14618125276081262,-0.4348181253554299
1761507785443794200,2.629794189453125,-0.86588500841856,-0.13786014526970683,-0.4218164588326588
1761507785453766100,2.63976611328125,-0.5844663601070642,-0.06370265684276818,-0.4446835762117058
1761507785463738000,2.649738037109375,-0.1979664581209421,0.04270831106565892,-0.4471913943141699
1761507785473710000,2.6597099609375,0.21689678404033183,0.1366933665126562,-0.4021813091121614
1761507785483682000,2.66968212890625,0.5739321066111326,0.24822518456615505,-0.331580782514438
1761507785493653000,2.679653076171875,0.8474526951491832,0.38298962884284554,-0.32911351561807095
1761507785503625200,2.689625244140625,1.0583172132879495,0.5185550142388791,-0.3529317597094923
1761507785513597200,2.69959716796875,1.1831798567533491,0.6165742936380207,-0.4110707910757512
1761507785523569200,2.709569091796875,1.2204530640929936,0.6150772600132972,-0.43195860773846506
1761507785533541000,2.719541015625,1.1719260568112135,0.5602062174670398,-0.4560939549550414
1761507785543512000,2.729511962890625,1.0623533369362355,0.5081004018504173,-0.46088213907964526
1761507785553484300,2.739484375,0.8925117340594529,0.4831873482596129,-0.4682834648447111
1761507785563456000,2.7494560546875,0.7030261040359735,0.466317315870896,-0.42063291160389776
1761507785573428200,2.75942822265625,0.5115203663617373,0.41393787094466383,-0.411703572553955
1761507785583400200,2.769400146484375,0.3379009985119104,0.3535611436542123,-0.43595081917978823
1761507785593372200,2.7793720703125,0.2357026067972183,0.26524463536292314,-0.49414453987535084
1761507785603343400,2.78934326171875,0.16531155823171137,0.09380940661914645,-0.5610450794439763
1761507785613315000,2.799315185546875,0.10001695602238178,-0.08201609297282993,-0.5931352946551516
1761507785623287300,2.809287353515625,-0.03665010700523853,-0.17780512910187243,-0.5441768006209283
1761507785633259000,2.819259033203125,-0.2892074024915695,-0.17000271172262726,-0.43599027440734206
1761507785643231700,2.829231689453125,-0.5952694936722517,-0.06106280985847115,-0.26740060782041397
1761507785653203700,2.83920361328125,-0.8078016527622938,0.052740533323585984,-0.047588584787352006
1761507785663174700,2.849174560546875,-0.900482859069109,0.10838139119856059,0.1893419289701618
1761507785673146600,2.859146728515625,-0.920833573180437,0.10529679612144827,0.3818478749291971
1761507785683118800,2.869118896484375,-0.8272954577833413,0.07794022183604538,0.5175243925495073
1761507785693090600,2.879090576171875,-0.6265607039928436,0.08822846468165517,0.5861940606825053
1761507785703062800,2.889062744140625,-0.33883974066674705,0.044965734603628515,0.6067091715753078
1761507785713034800,2.89903466796875,-0.03565057457387447,-0.03411868883147835,0.617610285622254
1761507785723005700,2.909005615234375,0.1956757168352604,-0.12020794952735304,0.6238789175629615
1761507785732977700,2.918977783203125,0.3447048333078623,-0.18046594580896197,0.6081354780513792
1761507785742949600,2.92894970703125,0.4110258559554815,-0.188440212623775,0.545167492158711
1761507785752921900,2.938921875,0.4336263948202133,-0.16990896902456878,0.4662357750672847
1761507785762893600,2.9488935546875,0.46423137644231316,-0.13869922644235194,0.3878297623503953
1761507785772865800,2.95886572265625,0.5539584091186524,-0.12870616715103386,0.3260741479221731
1761507785782836700,2.968836669921875,0.6762538324445486,-0.15248349471017716,0.2662524606985971
1761507785792808700,2.97880859375,0.7867500969052315,-0.24712759858779607,0.24308836966697125
1761507785802780700,2.98878076171875,0.792746706971526,-0.3866010973382741,0.23701456617861985
1761507785812752600,2.998752685546875,0.7605629317253828,-0.4558955097734928,0.1820190022035502
1761507785822724900,3.008724853515625,0.670495707309246,-0.48613743023686107,0.09884520882926881
1761507785832696600,3.018696533203125,0.5884919623613357,-0.5006942172471434,0.026073598969890734
1761507785842667800,3.028667724609375,0.5047662159264087,-0.5392871288832277,0.003630876448797062
1761507785852639700,3.0386396484375,0.4325450293242931,-0.5942740528941154,-0.00464817743229214
1761507785862611700,3.04861181640625,0.36209377500414847,-0.6689757312003523,-0.0030953676328761503
1761507785872583700,3.058583740234375,0.292636207896471,-0.7359050219394266,0.038389424953237175
1761507785882555600,3.0685556640625,0.18949965854883194,-0.7760730008725076,0.06657668704227544
1761507785892527900,3.07852783203125,0.08081190481483935,-0.843099687571451,0.0866137686271686
1761507785902498800,3.088498779296875,-0.011354337707161903,-0.9172398595374077,0.0705263379835058
1761507785912470800,3.098470703125,-0.04903320323824882,-0.9696577367778867,0.04828673225250095
1761507785922442800,3.10844287109375,-0.055340778949856756,-1.0214736295372246,0.06942561933314427
1761507785932414700,3.118414794921875,-0.006798574098944664,-1.039066350177303,0.1326202444553841
1761507785942386700,3.12838671875,0.10119827476143836,-1.0076118390537798,0.2730618119198829
1761507785952358700,3.138358642578125,0.2358031445622444,-0.9435434176385402,0.43718704644385725
1761507785962329600,3.14832958984375,0.35714521268606186,-0.9012399610467254,0.5944449524816126
1761507785972301800,3.1583017578125,0.46576282379329204,-0.8792224097017198,0.6981239381428808
1761507785982273800,3.168273681640625,0.47400575148165225,-0.8768560458965599,0.7304909610014408
1761507785992245800,3.178245849609375,0.3970657196640968,-0.8673218362886458,0.7634042195659131
1761507786002217700,3.1882177734375,0.22312720286250112,-0.8373409048490226,0.7642972228828817
1761507786012189700,3.198189697265625,-0.004916413614153862,-0.7789083704289048,0.734757313209027
1761507786022161000,3.208160888671875,-0.22061375873684883,-0.7089366432540118,0.6646531187608837
1761507786032132600,3.218132568359375,-0.3729705583274364,-0.6650362728595733,0.539828250022605
1761507786042104800,3.228104736328125,-0.42915421784222124,-0.660536258026585,0.3868090775331482
1761507786052076800,3.238076904296875,-0.4247977761983871,-0.7045142967671155,0.24207046132870016
1761507786062048800,3.248048828125,-0.37978374547362326,-0.7715376955304294,0.13829714844748378
1761507786072020700,3.258020751953125,-0.33000995300114155,-0.873528655039519,0.007839205725677312
1761507786081991700,3.26799169921875,-0.2991325841784477,-0.980399130218476,-0.14860647061374038
1761507786091963600,3.277963623046875,-0.36377193734943863,-0.9919232715345918,-0.35374822719153015
1761507786101935600,3.287935546875,-0.5443213967233896,-0.8675017959654331,-0.5604781662762165
1761507786111907800,3.297907958984375,-0.8180296167880297,-0.7138963845532387,-0.6830204039700329
1761507786121879800,3.3078798828125,-1.2252151639282702,-0.5207528896093369,-0.6791339179255068
1761507786131851800,3.317851806640625,-1.6625246311753987,-0.2920319583930075,-0.6229797037009149
1761507786141822700,3.32782275390625,-2.0469623399347068,-0.029320860095694658,-0.59202638356518
1761507786151794700,3.337794677734375,-2.203079368841648,0.2641717454344034,-0.5683876242265105
1761507786161766700,3.3477666015625,-2.069180601483583,0.540015370092541,-0.5137043228046968
1761507786171738600,3.357738525390625,-1.6057815842121839,0.7023380487065762,-0.37876317025423045
1761507786181710800,3.3677109375,-0.9109785341203213,0.7291036713615059,-0.20852434822078794
1761507786191682800,3.377682861328125,-0.1777279722124338,0.6498723137363791,-0.07471724120154977
1761507786201653800,3.38765380859375,0.49701896280050273,0.5538385821312666,-0.025046342847961933
1761507786211625700,3.397625732421875,0.9920628261357545,0.44014096434600647,-0.02835250825388357
1761507786221597700,3.40759765625,1.309135556152463,0.32085860523097215,-0.08031922592706978
1761507786231569700,3.417569580078125,1.4438777885973453,0.23359065614454447,-0.1770372865345329
1761507786241541600,3.427541748046875,1.4798288074225185,0.1936648154042661,-0.30042434102203697
1761507786251513600,3.437513671875,1.441710965952277,0.1790477495741099,-0.4276317575152963
1761507786261484500,3.447484619140625,1.3233721712976694,0.19043460131138562,-0.5046440873840824
1761507786271456800,3.457456787109375,1.1069301452875138,0.19005415062643585,-0.5799026323881
1761507786281428700,3.4674287109375,0.8363491173326969,0.2304302193522453,-0.6596840251114219
1761507786291400700,3.477400634765625,0.6121984166413545,0.3183941878788173,-0.7553798299990594
1761507786301372700,3.48737255859375,0.40856268071234225,0.3206348064124584,-0.8289523581448942
1761507786311344600,3.4973447265625,0.26690555431246754,0.287185322079435,-0.8259070721648633
1761507786321315800,3.50731591796875,0.1632055258631706,0.29031704423390325,-0.752171462411806
1761507786331287600,3.51728759765625,0.008889408898353577,0.3030159284178167,-0.5759163392309099
1761507786341259800,3.527259765625,-0.17417407912313937,0.35226438184194264,-0.3382040731117129
1761507786351231700,3.537231689453125,-0.35277883417010303,0.42913902027308937,-0.11143237626701592
1761507786361203700,3.54720361328125,-0.4394184222251177,0.5240795498140156,0.07516356019694358
1761507786371175700,3.55717578125,-0.40572307337224484,0.6070707714293152,0.21464798220023512
1761507786381146600,3.567146728515625,-0.2852449286013842,0.643533831429854,0.33768253345564003
1761507786391118800,3.577118896484375,-0.13009119176864622,0.6117847212739288,0.4526753786832094
1761507786401090600,3.587090576171875,0.04288461748063564,0.5593102915406227,0.4817234131868928
1761507786411062800,3.597062744140625,0.23219079928398131,0.5163407722555101,0.4212250322781503
1761507786421034800,3.60703466796875,0.3794716107845306,0.5160650240540504,0.33979835656583307
1761507786431006700,3.6170068359375,0.5168804320901632,0.5506354752410203,0.2757024443554692
1761507786440978000,3.62697802734375,0.6261357565790414,0.5890324989788234,0.2815962333681062
1761507786450949600,3.63694970703125,0.6969698727369308,0.6402516679540277,0.31812245826534924
1761507786460921900,3.646921875,0.7571656905025244,0.7101954111434519,0.32241675792578606
1761507786470893600,3.6568935546875,0.7609668363511561,0.7572389018692076,0.2821820338994264
1761507786480865800,3.66686572265625,0.6987883203357458,0.7328956840556115,0.25584479272440075
1761507786490837800,3.676837646484375,0.5920002627432346,0.6935492506384849,0.17592550763403997
1761507786500808700,3.68680859375,0.4135170882493257,0.6713821347549558,0.08813231083080172
1761507786510781000,3.696781005859375,0.1869032123148441,0.6582292962584644,0.007199300386942923
1761507786520752600,3.706752685546875,-0.02063712983727455,0.648873438892141,-0.07213400150900706
1761507786530724900,3.716724853515625,-0.1969686792552471,0.6322429143477231,-0.15104385382849722
1761507786540696600,3.726696533203125,-0.28426877704560755,0.5994225216984749,-0.20278945783060043
1761507786550668800,3.736668701171875,-0.31994097892940043,0.5174917689215391,-0.19393026140742003
1761507786560639700,3.7466396484375,-0.3070411653459072,0.437258029320836,-0.1413597691548057
1761507786570611700,3.75661181640625,-0.2875157961428165,0.3739059394814074,-0.1010190092043951
1761507786580584000,3.766583984375,-0.24078444010615346,0.32473362003341316,-0.03237544362703338
1761507786590555600,3.7765556640625,-0.17819149807095527,0.2643863380331546,0.10137339386632666
1761507786600528000,3.78652783203125,-0.12336626742780207,0.2319079637546092,0.2666216958697885
1761507786610498600,3.79649853515625,-0.08484685941934585,0.22422983034215865,0.41616548386625946
1761507786620470800,3.806470703125,-0.0122258598446846,0.24541392653770744,0.557386264675483
1761507786630442500,3.8164423828125,0.07390987034142017,0.22716354570649563,0.6463235352136194
1761507786640414700,3.826414794921875,0.21065233669281005,0.18295191740579902,0.7716977814629673
1761507786650386700,3.83638671875,0.3495388293355703,0.14801252330858258,0.8594183696877211
1761507786660358700,3.846358642578125,0.46402328664958475,0.08630458394698798,0.922693960224837
1761507786670329900,3.856329833984375,0.5574526809751987,0.034897893043048675,0.9689463005729019
1761507786680301600,3.866301513671875,0.6541635811895131,-0.000601180763542652,0.9820458745121955
1761507786690273800,3.876273681640625,0.7437918296664953,-0.03888908157106489,0.9936758142903447
1761507786700245500,3.88624560546875,0.7766460515201091,-0.09689758189283311,1.0130330603849143
1761507786710217700,3.8962177734375,0.7515390827924012,-0.15507628768235443,0.9954070950623601
1761507786720189700,3.906189697265625,0.6311953780561685,-0.2199736342024058,0.9129567753907293
1761507786730160600,3.91616064453125,0.40591596559584137,-0.30176618408504874,0.7866312197659164
1761507786740132900,3.9261328125,0.16432313171625137,-0.3826781882734969,0.6436792312499136
1761507786750104600,3.9361044921875,-0.04144552458822727,-0.4586142672128975,0.4848490343941375
1761507786760076800,3.946076904296875,-0.1698632301867008,-0.5591692756347358,0.38337044485397637
1761507786770048500,3.956048583984375,-0.23183950162827968,-0.6815611450724304,0.30533748496687035
1761507786780020700,3.966020751953125,-0.24712942521870135,-0.7844274261113255,0.23572746724383903
1761507786789991700,3.97599169921875,-0.2519850485563278,-0.8688532836396247,0.16883244410054757
1761507786799963600,3.985963623046875,-0.25735622020065785,-0.9592049510203301,0.12699344494901596
1761507786809936000,3.995935791015625,-0.2911170355051756,-1.0171065203689038,0.10668297151653096
1761507786819907600,4.005907470703125,-0.3481926754236221,-1.0518148456566034,0.08735212023854255
1761507786829879800,4.0158798828125,-0.4230442105293274,-1.0374116417728363,0.05848411847688258
1761507786839850800,4.025850830078125,-0.4885907416731119,-1.0168059299871326,-0.0038679274745285507
1761507786849822700,4.03582275390625,-0.5362789600431919,-1.01980153160654,-0.0444306596125476
1761507786859794700,4.045794677734375,-0.5522025053620339,-1.012742187679559,-0.0825633881246671
1761507786869766700,4.0557666015625,-0.5303548306912184,-1.002514881240949,-0.10913540616994723
1761507786879737600,4.065737548828125,-0.46769233055114745,-0.9535178452946245,-0.11720805532531813
1761507786889709800,4.075709716796875,-0.3913800752431154,-0.8750745693072676,-0.1111577423104085
1761507786899681800,4.085681884765625,-0.3191764242976904,-0.799450734654814,-0.04270120547143742
1761507786909653800,4.09565380859375,-0.2558721191227436,-0.6961778455764055,0.035993542792648076
1761507786919625700,4.105625732421875,-0.22469255248308181,-0.5974680631624535,0.1513708390268497
1761507786929597700,4.11559765625,-0.23136136272251603,-0.4982606334246695,0.24354524658899754
1761507786939568600,4.125568603515625,-0.22282968122065067,-0.39108196907937526,0.29198821058282626
1761507786949540600,4.13554052734375,-0.20931904226243495,-0.30877208079174157,0.3311269012670964
1761507786959512800,4.145512939453125,-0.14313245964944363,-0.25658687979597594,0.3651932388568297
1761507786969484800,4.15548486328125,-0.06419862366616726,-0.22302896665241567,0.4194759235884994
1761507786979456800,4.165456787109375,0.022284897044301033,-0.19454207316283134,0.47972047586664557
1761507786989428700,4.1754287109375,0.1432943722128868,-0.14602602566648273,0.5309135970851406
1761507786999399700,4.185399658203125,0.2349614330410957,-0.11731211848799139,0.5560814656872302
1761507787009371600,4.19537158203125,0.35359482672810555,-0.09773735718522221,0.5403592150941491
1761507787019343600,4.205343505859375,0.4508464096903801,-0.06836023685764521,0.4742336054207757
1761507787029315600,4.215315673828125,0.47317397683262824,-0.07037219773456455,0.369260013371706
1761507787039287800,4.225287841796875,0.3763005795329809,-0.08448244655374437,0.24635369160585105
1761507787049258800,4.2352587890625,0.13623802396059034,-0.09538995380885898,0.09670238811429589
1761507787059230700,4.245230712890625,-0.1839028614550829,-0.10720306813418864,-0.07130213552843778
1761507787069202700,4.25520263671875,-0.5091530527085065,-0.11555555714424699,-0.18070673229489476
1761507787079174700,4.265174560546875,-0.8225351115137338,-0.0803969673383981,-0.1681930319521576
1761507787089146600,4.275146728515625,-1.0784323650777339,-0.025880035459436474,-0.04628288161680102
1761507787099118600,4.28511865234375,-1.267948390239477,0.04516870982982218,0.137862629487738
1761507787109089500,4.295089599609375,-1.353632285004854,0.15272585209868847,0.3065322659756988
1761507787119061800,4.305061767578125,-1.2865847016483545,0.2738100364712998,0.4134390911096707
1761507787129033700,4.31503369140625,-1.0376292300462722,0.3673515859344974,0.5179400972109288
1761507787139005700,4.325005615234375,-0.659490329170227,0.41678142380751665,0.6537409718632697
1761507787148977700,4.334977783203125,-0.19792086541354656,0.43891748696565624,0.8278378940969705
1761507787158949600,4.34494970703125,0.15181436327695846,0.4739885446185246,0.9893671573109925
1761507787168920800,4.3549208984375,0.3670943597704172,0.5450808367885649,1.0584233040109277
1761507787178892500,4.364892578125,0.4392115014761686,0.6362599679693579,1.024068468336016
1761507787188864800,4.37486474609375,0.4043804265916347,0.7087054648466408,0.8909969455823302
1761507787198836700,4.384836669921875,0.34318916804790495,0.731301985123381,0.6781608351096511
1761507787208808700,4.39480859375,0.2947054153859615,0.739909069949016,0.40244982385523614
1761507787218780700,4.40478076171875,0.32427111708819867,0.7243337535459548,0.1948239588441327
1761507787228751600,4.414751708984375,0.4232651598036289,0.6727931705966591,0.05235387209355831
1761507787238724600,4.424724609375,0.5299047488361597,0.5766832319501787,-0.03929773543719202
1761507787248696800,4.43469677734375,0.6290770707279444,0.4775213583871722,-0.12109923581127077
1761507787258667800,4.444667724609375,0.5988847615599632,0.37099458207935093,-0.2967906972274184
1761507787268639700,4.4546396484375,0.3409522027760744,0.23007117678150532,-0.5335302823895588
1761507787278611700,4.46461181640625,0.026615619724988937,0.14669628961086273,-0.8171398283414543
1761507787288583700,4.474583740234375,-0.17469781073629856,0.14584493347853422,-1.0442290667027234
1761507787298555600,4.4845556640625,-0.2453670917212963,0.17279329228922724,-1.1408880905993282
1761507787308527600,4.494527587890625,-0.22459084567427634,0.22729323650076985,-1.0968415897324681
1761507787318498600,4.50449853515625,-0.09293781141638756,0.3256337106782943,-1.0139508328169584
1761507787328470800,4.514470703125,0.08540273973643779,0.42967020454034205,-0.908077332786098
1761507787338442800,4.52444287109375,0.1814490385621786,0.4825887247793376,-0.7569941333279013
1761507787348414700,4.534414794921875,0.16565408805906773,0.4357070735517889,-0.6800999864786863
1761507787358386700,4.54438671875,0.004913491004705429,0.34169089231416583,-0.6706910837508737
1761507787368358700,4.554358642578125,-0.2512614104568958,0.3002058394331485,-0.7345150288857519
1761507787378329900,4.564329833984375,-0.4721761979669332,0.2893249644566327,-0.768310623242706
1761507787388301600,4.574301513671875,-0.660122781854868,0.23580526345409453,-0.7199511545475572
1761507787398273800,4.584273681640625,-0.7626222023427486,0.13701507274769245,-0.5554585845485329
1761507787408245800,4.594245849609375,-0.8192565282344818,0.06481171406321228,-0.3652346303131431
1761507787418217700,4.6042177734375,-0.8494266255706548,0.0015239216316491366,-0.19419585354104638
1761507787428189000,4.61418896484375,-0.8571668644338846,-0.06502353018298745,-0.0585599236594513
1761507787438160600,4.62416064453125,-0.8354027763932943,-0.13788527971096337,0.02566884039416909
1761507787448132900,4.6341328125,-0.7434411165326833,-0.20040749459750948,0.09161445385813713
1761507787458104600,4.6441044921875,-0.6056453417360782,-0.27785459915436805,0.19456450419034807
1761507787468076800,4.654076904296875,-0.45889469158947466,-0.33880810341946777,0.33341552366092797
1761507787478048800,4.664048828125,-0.35224341211915017,-0.3822007434874773,0.4679900713887065
1761507787488019700,4.674019775390625,-0.2655015327334404,-0.40899559223689136,0.5525024381566792
1761507787497991700,4.68399169921875,-0.1117149926006794,-0.41426198833249506,0.602935425190255
1761507787507963600,4.693963623046875,0.03788753984570503,-0.4140861203089356,0.650022681992501
1761507787517935900,4.703935791015625,0.2305827795654535,-0.4364333419997245,0.6695531657621264
1761507787527907600,4.713907470703125,0.45344870114326474,-0.45999921876527367,0.6580391805138438
1761507787537879800,4.7238798828125,0.6676163524806499,-0.46461540732383727,0.6240524474989623
1761507787547850500,4.7338505859375,0.8421130876868963,-0.45772542861439286,0.5686951192731038
1761507787557822700,4.74382275390625,0.9625076458275318,-0.4229653000742197,0.524243983128108
1761507787567794700,4.753794677734375,1.0229682520091532,-0.37784824736639855,0.48925822913851585
1761507787577766700,4.7637666015625,1.0193781185626982,-0.3166998050510883,0.4400336680466309
1761507787587739000,4.77373876953125,0.9985182858854532,-0.2602297298103571,0.35227227288745344
1761507787597710600,4.783710693359375,0.9531552955925464,-0.22420272313952444,0.24938335989164187
1761507787607681800,4.793681884765625,0.901150383067131,-0.2059568723529577,0.16357823163308202
1761507787617653500,4.803653564453125,0.8766220910102128,-0.20376820320226252,0.07630041873976588
1761507787627625700,4.813625732421875,0.8434200786322354,-0.18208733646571634,-0.0005314399955794215
1761507787637597700,4.82359765625,0.7866115652173757,-0.18071034902408717,-0.03314231807999313
1761507787647569200,4.833569091796875,0.6997849301576614,-0.16211546560414133,-0.05478380265422165
1761507787657541000,4.843541015625,0.6242360604375601,-0.1430349906243384,-0.06717301810076459
1761507787667512000,4.853511962890625,0.5161801748663186,-0.15117109693735836,-0.009943137468677013
1761507787677484000,4.863484130859375,0.394185780313611,-0.1767532088961452,0.04794012903822586
1761507787687456300,4.873456298828125,0.28248773884773254,-0.22497582640387118,0.0759478607087396
1761507787697428000,4.883427978515625,0.21204642139971255,-0.2826277318403125,0.0840918032683432
1761507787707400200,4.893400146484375,0.19384674784243106,-0.35526458657123144,0.11036155043141915
1761507787717372200,4.9033720703125,0.2125619697064161,-0.42708128402568396,0.15435407435502857
1761507787727343000,4.913343017578125,0.21107319245338438,-0.4870992610063404,0.21648440384715795
1761507787737315000,4.923315185546875,0.206239780947566,-0.5183893022831529,0.2805373354323208
1761507787747287000,4.933287109375,0.18062895435094833,-0.5352823502212762,0.34429442587606607
1761507787757259000,4.943259033203125,0.16938275319337845,-0.5257723982717841,0.39538167556729165
1761507787767231000,4.95323095703125,0.12480886745154857,-0.5193411961805076,0.41480654353797436
1761507787777202200,4.9632021484375,0.11763093864619731,-0.5360536268547177,0.36140308932624754
1761507787787174000,4.973173828125,0.19587620784342288,-0.5387572597902268,0.25585235497634856
1761507787797146000,4.98314599609375,0.312073314294219,-0.5853629436206073,0.14411368923913687
1761507787807118000,4.9931181640625,0.4067144224971533,-0.6778118755415081,0.060437439935165455
1761507787817090000,5.003090087890625,0.410014048564434,-0.8003696030654013,0.031268181071453724
1761507787827062000,5.01306201171875,0.2657791806310415,-0.9357387352369725,0.024796304476493967
1761507787837033000,5.023032958984375,0.050399815416336056,-1.014560343017429,0.04185948938371148
1761507787847005200,5.033005126953125,-0.17485153999328612,-1.0668020599734038,0.02321940141543746
1761507787856977000,5.042976806640625,-0.32216157758831976,-1.1802769749186932,-0.09003244536370038
1761507787866949000,5.05294921875,-0.3895060980647802,-1.309124157975614,-0.24988975677751002
1761507787876921000,5.062921142578125,-0.4576555051833391,-1.4362674597240983,-0.39542365154549475
1761507787886893000,5.07289306640625,-0.6767085904747248,-1.5014764294765888,-0.4709894358677789
1761507787896864300,5.0828642578125,-1.0688450370430946,-1.4399986090764403,-0.5467768635841086
1761507787906836000,5.0928359375,-1.5754291160464287,-1.254134384420514,-0.599312010528706
1761507787916808200,5.10280810546875,-2.1165362268984316,-1.088939072979614,-0.6284324892140924
1761507787926780000,5.11277978515625,-2.575994397589564,-0.7678863334160297,-0.6483852900490165
1761507787936752000,5.122752197265625,-2.8580127653598786,-0.4205780396115035,-0.5647960660079494
1761507787946724000,5.13272412109375,-2.8919594586253163,-0.049943084624782204,-0.4215862668059766
1761507787956695000,5.142695068359375,-2.610178991264105,0.30688692463226613,-0.23263178451713173
1761507787966667300,5.152667236328125,-2.019455908849835,0.5669434898328036,-0.0277913855060935
1761507787976639000,5.162638916015625,-1.2498849102824925,0.6932561129108071,0.15318103025397284
1761507787986611200,5.172611083984375,-0.4876362174272537,0.6680952220387757,0.26506487661553546
1761507787996583000,5.1825830078125,0.15214578718841076,0.592782279966399,0.23859153317175805
1761507788006555100,5.19255517578125,0.6481301462441682,0.5523887486491352,0.12868596461322157
1761507788016526000,5.202526123046875,0.9749480252057313,0.5217599477600307,0.0055411031174473465
1761507788026498000,5.212498046875,1.1796189494013785,0.5104512027602642,-0.09181434207810088
1761507788036470300,5.22247021484375,1.272747314953804,0.5634762521136552,-0.17518455307362601
1761507788046442000,5.23244189453125,1.2773457486599682,0.6251881004653871,-0.28828511828118936
1761507788056414200,5.242414306640625,1.2204933961033821,0.6601255583338439,-0.3790827575974166
1761507788066386000,5.252385986328125,1.0983400115966797,0.6862194922722875,-0.4774465395852923
1761507788076357000,5.262357177734375,0.9066472269177436,0.6978365725688636,-0.5750242492293939
1761507788086329000,5.2723291015625,0.7034031206548214,0.7358679047994315,-0.6291572963573038
1761507788096301000,5.282301025390625,0.5189642526268958,0.8337629002317786,-0.6386869759205729
1761507788106273300,5.292273193359375,0.3682575583308935,0.9288914996907115,-0.6000919088600203
1761507788116245000,5.302244873046875,0.24190789117813108,0.9780977214083075,-0.5625928568752482
1761507788126216200,5.31221630859375,0.17956103285849093,0.9892543445862829,-0.5063863279415294
1761507788136188000,5.32218798828125,0.19949439834058283,0.9625056000009179,-0.39534649465605615
1761507788146160000,5.33216015625,0.25374796657562254,0.9727876323014497,-0.22700667464435098
1761507788156132000,5.342132080078125,0.33650165310800073,0.9962577936075627,-0.05923650774676353
1761507788166104000,5.35210400390625,0.3974368910640478,1.009839305844903,0.09476265222337096
1761507788176076300,5.362076171875,0.45421910099387164,1.0597036992102862,0.2241329823715612
1761507788186047000,5.372046875,0.48450493366420266,1.1167977515682577,0.3262082591632381
1761507788196019200,5.382019287109375,0.5317050762563944,1.1734350000694393,0.4278785718832165
1761507788205991000,5.391990966796875,0.6025684185087681,1.2205619312949478,0.49723969287909564
1761507788215963100,5.401963134765625,0.6658160250604153,1.233282588919252,0.5209652902510017
1761507788225935000,5.41193505859375,0.6745967128872871,1.2084905313596128,0.5044059677792713
1761507788235907000,5.421906982421875,0.6675859573423862,1.1940174771100283,0.41823655451927333
1761507788245878000,5.4318779296875,0.6586357581675052,1.1842765659488736,0.3375424308652058
1761507788255850000,5.44185009765625,0.6097773269742727,1.1636268688909708,0.2981791559111327
1761507788265822200,5.451822265625,0.5606026694387197,1.1356621726445852,0.2938118823460303
1761507788275794000,5.4617939453125,0.49391398252248764,1.1331706480897963,0.3129872873339802
1761507788285766100,5.47176611328125,0.4150783462166786,1.1111797655560076,0.34728272097185253
1761507788295737900,5.48173779296875,0.3877817584902048,1.084500506010279,0.3378468206392601
1761507788305709000,5.491708984375,0.45186055516898627,1.087959706553444,0.2612811020268127
1761507788315681000,5.501680908203125,0.5633873317211866,1.0423020441628992,0.13503632002063096
1761507788325653000,5.511653076171875,0.6162824710845947,0.9048601243052631,0.04491992270052433
1761507788335625200,5.521625244140625,0.5370347468465566,0.6890357918020338,-0.029974501698836684
1761507788345597000,5.531596923828125,0.2923497921705246,0.48996502570100126,-0.00682001874577254
1761507788355568000,5.541568115234375,-0.06193944656252861,0.40680765373855826,0.06108038204777985
1761507788365540000,5.5515400390625,-0.44270752689838405,0.3641778147365898,0.12812675982788205
1761507788375512000,5.561511962890625,-0.7148609187364577,0.3256622061204165,0.24096107531469313
1761507788385484000,5.571484130859375,-0.8529051153361796,0.26910496405288575,0.34531112863793967
1761507788395456000,5.5814560546875,-0.8280249411016702,0.16626308680288493,0.4718798453688621
1761507788405428200,5.59142822265625,-0.7000894660621881,-0.0033332360759377477,0.605401632640697
1761507788415399200,5.601399169921875,-0.5388777443647385,-0.16775244857780636,0.6834295692928135
1761507788425371100,5.61137109375,-0.38688159478008743,-0.28467246247567235,0.743673902375251
1761507788435343000,5.621343017578125,-0.2543646371692419,-0.34669279225468635,0.7869275723639875
1761507788445315000,5.631315185546875,-0.13662965362668036,-0.3976348978541791,0.8332072391103953
1761507788455287000,5.641287109375,-0.030448914277553557,-0.44593854470886285,0.8973262947343289
1761507788465259000,5.651259033203125,0.03472527642250061,-0.47999300919771193,0.9546094399236142
1761507788475230000,5.66122998046875,0.07644844890832901,-0.5024673643995076,0.9741614048726857
1761507788485202200,5.6712021484375,0.09421616078913211,-0.5112195567842572,0.9673987788699566
1761507788495174100,5.681174072265625,0.0998456911087036,-0.5213294473882765,0.9463729419760405
1761507788505146000,5.69114599609375,0.13896481857597828,-0.5459720865398645,0.8875742045920342
1761507788515118000,5.7011181640625,0.1703898844093084,-0.5846930084697902,0.8152864555597304
1761507788525090000,5.711090087890625,0.17353753478527068,-0.6408082058582455,0.7449816239729523
1761507788535061200,5.721061279296875,0.08962707943320274,-0.6814659410696476,0.6429018902018666
1761507788545033000,5.731032958984375,-0.07549275561869144,-0.7024562682587653,0.527639324654825
1761507788555005200,5.741005126953125,-0.2779822441220283,-0.6940375456120819,0.426983559272252
1761507788564977200,5.75097705078125,-0.4973778592407703,-0.6963426807492971,0.30320312155298884
1761507788574949000,5.76094921875,-0.651038142645359,-0.7044437157489359,0.1909961076516658
1761507788584920000,5.770920166015625,-0.6836158856451511,-0.7105177019003778,0.05918422957025468
1761507788594892000,5.78089208984375,-0.6147510237336158,-0.7096283518452197,-0.07343852650262415
1761507788604864000,5.790864013671875,-0.4940285488128662,-0.7308187316510826,-0.184980391026102
1761507788614836000,5.8008359375,-0.365729501157999,-0.7721043895024806,-0.3041000703927129
1761507788624808200,5.81080810546875,-0.25993922243118284,-0.7987382755365222,-0.42997598255388436
1761507788634780200,5.8207802734375,-0.16334756468236444,-0.7985693487104027,-0.5581485177522525
1761507788644751000,5.830751220703125,-0.06020750820338726,-0.7709918982159346,-0.6349864409022032
1761507788654722800,5.840722900390625,0.14489946932196615,-0.6962081676494329,-0.5978854117916896
1761507788664695000,5.850695068359375,0.37449382237195966,-0.6267051539648324,-0.4396284847792238
1761507788674667000,5.8606669921875,0.5567231976568698,-0.5597732328772544,-0.18215528713539242
1761507788684639000,5.870638916015625,0.6373235055476427,-0.44433834297060965,0.07084690257422625
1761507788694611200,5.880611083984375,0.6103571726888418,-0.3281178556442261,0.2594837702812627
1761507788704582000,5.890581787109375,0.5250228220134974,-0.2639949275627732,0.37901787566766143
1761507788714554000,5.90055419921875,0.44199031853973864,-0.26151129405349494,0.3986483857456595
1761507788724525800,5.91052587890625,0.34385961465537546,-0.2993014379393309,0.3733323043119162
1761507788734498000,5.920498046875,0.26731121250391005,-0.33856296955198045,0.29154653122993185
1761507788744470000,5.930469970703125,0.305568170183897,-0.296199307205528,0.2574128092261031
1761507788754441000,5.94044091796875,0.3981447470724582,-0.25027064585387704,0.28524211558979
1761507788764413200,5.9504130859375,0.4626449840337038,-0.2508481534808874,0.33716208977811035
1761507788774385000,5.960385009765625,0.4874386490285396,-0.20262933536544442,0.31208979050498453
1761507788784357000,5.970357177734375,0.4560369640707969,-0.16228768036589025,0.2630102091080509
1761507788794328800,5.980328857421875,0.30781799493730067,-0.15025836600661277,0.24986495112981646
1761507788804301000,5.990301025390625,0.041188334956765174,-0.1375399003393948,0.2607861946493387
1761507788814272000,6.00027197265625,-0.30351006861031055,-0.0492504261855036,0.2793688396422192
1761507788824244000,6.010243896484375,-0.6303665260165929,0.11148249901905655,0.3093337697951123
1761507788834216200,6.02021630859375,-0.8470107966005802,0.2956394813656807,0.4187406681165099
1761507788844188000,6.03018798828125,-0.8557990832120179,0.5235903049923479,0.5601718037407845
1761507788854160100,6.04016015625,-0.6934305926948785,0.6473275976896286,0.7696279894515872
1761507788864131800,6.0501318359375,-0.4473550604432821,0.663956953190267,0.8934287027738987
1761507788874103000,6.06010302734375,-0.19828560707271098,0.6472628618903458,0.9178240161009132
1761507788884075000,6.070074951171875,0.07616437126994133,0.6604375468924641,0.8589374543029814
1761507788894047000,6.080046875,0.3959089508444071,0.6707461018737405,0.8471398298077285
1761507788904019200,6.090019287109375,0.6586421879082918,0.6421124203246087,0.8583167651213705
1761507788913991000,6.099990966796875,0.8009089706391096,0.5640261410813778,0.8542235044583678
1761507788923963100,6.109963134765625,0.8321253621578216,0.5287136028228328,0.870243130562827
1761507788933934000,6.11993408203125,0.7080629291594028,0.5346693328894675,0.8734272404916584
1761507788943906000,6.129906005859375,0.5018137958616018,0.5452658379666507,0.9209384948596357
1761507788953878000,6.1398779296875,0.15153320824801922,0.5066701133189723,0.9113215023390948
1761507788963850000,6.14985009765625,-0.3247743904352188,0.4808560923004523,0.7341263948943465
1761507788973822200,6.159822265625,-0.8396826456695795,0.3920789076948538,0.418822501181066
1761507788983794000,6.1697939453125,-1.2699223206609487,0.26410134707931426,0.09996447691647335
1761507788993765000,6.17976513671875,-1.5578005203753709,0.14787676809970288,-0.0947669265396893
1761507789003737000,6.189737060546875,-1.7921300852537154,0.03315912308432162,-0.1971596352500841
1761507789013709000,6.199708984375,-2.0540660344600674,-0.1216382015261799,-0.36382333874311296
1761507789023681000,6.209680908203125,-2.2361989636331794,-0.23835644577424972,-0.6021825609963387
1761507789033653000,6.219653076171875,-2.2567221117019653,-0.28822146019414063,-0.8677917918879539
1761507789043624000,6.2296240234375,-2.107412424722314,-0.3275077974544838,-1.0682678947422652
1761507789053596000,6.239595947265625,-1.7640099061846732,-0.34818566116094585,-1.159111437293142
1761507789063568100,6.249568115234375,-1.251488253825903,-0.2843610584389418,-1.1724091641530394
1761507789073540000,6.2595400390625,-0.6344523340255022,-0.181831096682325,-1.0798229426532984
1761507789083512000,6.269511962890625,-0.05054243875741958,-0.04653627185598015,-0.945861558387801
1761507789093484000,6.279484130859375,0.40566403666138645,0.10100793982110917,-0.7816253012374043
1761507789103455000,6.289455078125,0.6789613378375768,0.2504783703204244,-0.6508396974638104
1761507789113427000,6.299427001953125,0.8264321189522743,0.37759229984395204,-0.5315696498410776
1761507789123399000,6.30939892578125,0.8563298290878534,0.47254305851794776,-0.4254057885615155
1761507789133371100,6.31937109375,0.8247340828627348,0.558198603971675,-0.34986356777790933
1761507789143342800,6.3293427734375,0.7418254980295896,0.6261236277498304,-0.27366454531969503
1761507789153314000,6.33931396484375,0.6188309865236282,0.6814522778704762,-0.19536022114530205
1761507789163286000,6.3492861328125,0.5126239436894655,0.724104036443308,-0.16914846951346843
1761507789173258000,6.359258056640625,0.46673722178339955,0.6589361293535679,-0.20974786213375626
1761507789183230000,6.36922998046875,0.49135903734266756,0.5559919607728719,-0.3090525051683187
1761507789193202000,6.379201904296875,0.5635317086279392,0.4110165036052465,-0.43976241335719823
1761507789203174100,6.389174072265625,0.6444038191974163,0.21971476407051085,-0.5358537203684449
1761507789213145000,6.39914501953125,0.7468781052440404,0.05831029627993702,-0.57485309391357
1761507789223117000,6.409116943359375,0.8177893782913684,-0.07162168633900583,-0.617607874469459
1761507789233089000,6.419089111328125,0.7533452554315329,-0.19503230436518787,-0.6147571612134576
1761507789243061000,6.42906103515625,0.5468751728594303,-0.28019750901870427,-0.5174260102089494
1761507789253033000,6.439032958984375,0.26992051821947094,-0.26831512884944675,-0.35901060469914226
1761507789263005000,6.4490048828125,-0.03199965085089206,-0.18575981443338094,-0.14865304970182477
1761507789272976000,6.458975830078125,-0.2880038719207048,-0.08983699585683644,0.0657388023128733
1761507789282948000,6.468947998046875,-0.433559759324789,0.009478826158866286,0.25802958941757675
1761507789292920000,6.478920166015625,-0.44540217280983924,0.035917408816516394,0.42046055071167643
1761507789302892000,6.48889208984375,-0.3128554045826196,0.032190935639292,0.5349510724402964
1761507789312864000,6.498864013671875,-0.1088777233481407,0.034775691435486075,0.589295058905147
1761507789322836000,6.5088359375,0.17513327954411506,-0.04981032509058714,0.5522631129754707
1761507789332807200,6.51880712890625,0.44045536405742164,-0.15658661918006836,0.5540492657398804
1761507789342779000,6.52877880859375,0.6294523337811231,-0.18637977296262978,0.5530670132368802
1761507789352751000,6.538751220703125,0.693013828587532,-0.1693987544801086,0.5848012180846184
1761507789362723000,6.54872314453125,0.6654904463678598,-0.09208404413126409,0.5904416351243853
1761507789372695000,6.558695068359375,0.6339747796416282,-0.0037806875824928283,0.5823694974256679
1761507789382666000,6.568666015625,0.6019575931340456,0.06384871424995363,0.5500349520646035
1761507789392638000,6.578637939453125,0.6046142451226711,0.09648220602497458,0.4765130215948447
1761507789402610200,6.588610107421875,0.5991267536222934,0.07393829271830618,0.3615337299685925
1761507789412582000,6.598581787109375,0.564337764313817,0.0020692805547267196,0.23865509992726147
1761507789422554000,6.60855419921875,0.5016460380792618,-0.0631829438176006,0.11169596823980099
1761507789432526000,6.618526123046875,0.42891105673611163,-0.08569456228986382,-0.006528241858119145
1761507789442497000,6.6284970703125,0.34855624803900714,-0.0988336645219475,-0.08582407955420203
1761507789452469000,6.638468994140625,0.27004326781630517,-0.13470014686882495,-0.15110994133464992
1761507789462441000,6.64844091796875,0.2005938840150833,-0.16888196406438946,-0.23769630136508493
1761507789472413200,6.6584130859375,0.12975567620396614,-0.20899792054928837,-0.3123244395110756
1761507789482385000,6.668385009765625,0.057711015212535854,-0.26840331858955324,-0.38374786333162336
1761507789492357000,6.678357177734375,-0.04371639212965965,-0.3394738738518208,-0.4059863639509305
1761507789502327800,6.688327880859375,-0.12560323269963264,-0.3883544438116252,-0.38515469792224466
1761507789512300000,6.698300048828125,-0.14982698885202406,-0.44389432553015645,-0.3730803753774613
1761507789522272000,6.70827197265625,-0.08618366098105906,-0.4966807438220828,-0.3173323308009654
1761507789532244000,6.718243896484375,0.0677782357186079,-0.571684035423398,-0.2091858078042045
1761507789542216000,6.7282158203125,0.20627602130472658,-0.6817251034624874,-0.11233401954816653
1761507789552187000,6.738186767578125,0.3146089702516794,-0.7674320868425071,-0.0556358483397169
1761507789562159000,6.7481591796875,0.317062208622694,-0.823294843839854,-0.05131677956420462
1761507789572130800,6.758130859375,0.3168395057827234,-0.8052238381635397,-0.03201184132889612
1761507789582103000,6.76810302734375,0.27307576737999917,-0.727458169176802,0.028390515876444988
1761507789592075000,6.778074951171875,0.22370295692384243,-0.6593437603063881,0.1638504544368945
1761507789602047000,6.788046875,0.1796235767006874,-0.5800026586964726,0.3079464070899412
1761507789612018200,6.79801806640625,0.17490180887579918,-0.5164912866421043,0.4018158368006348
1761507789621990000,6.807989990234375,0.21374971818625926,-0.49526378969624635,0.3543433800730854
1761507789631962000,6.817962158203125,0.25544308005571364,-0.5447733052093535,0.21336470092404633
1761507789641933600,6.82793359375,0.2886620435684919,-0.6588264584340154,0.03048792198053561
1761507789651905500,6.837905517578125,0.2869727753072977,-0.7965369660999625,-0.14316030663759446
1761507789661876700,6.847876708984375,0.2498112116485834,-0.8596869574960321,-0.29905710778944194
1761507789671848400,6.857848388671875,0.14628303263485432,-0.8684238792464136,-0.3620797830114141
1761507789681820700,6.867820556640625,-0.029285131195187566,-0.8750294880565256,-0.40781072983387856
1761507789691792400,6.87779248046875,-0.24173837983012197,-0.9163020672306418,-0.5099342296814545
1761507789701764600,6.8877646484375,-0.46274259918928146,-0.9708139210756868,-0.6802111917681992
1761507789711736600,6.897736572265625,-0.6512590919196606,-0.9430583375353365,-0.7577241281028837
1761507789721707500,6.90770751953125,-0.9101596189528703,-0.8636124603766947,-0.8463263945329934
1761507789731679700,6.9176796875,-1.3241641984581947,-0.8288773201473056,-0.8867390689421445
1761507789741651500,6.9276513671875,-1.7346452800124883,-0.671056117670983,-0.8468716073255985
1761507789751623700,6.937623779296875,-2.074761031964421,-0.4212798677379265,-0.8051744460638612
1761507789761595400,6.947595458984375,-2.2947692260235546,-0.20207345504835247,-0.711104488812387
1761507789771567600,6.957567626953125,-2.3042045783668756,-0.003420439435355365,-0.6112592360951006
1761507789781538600,6.96753857421875,-2.0666402693510055,0.1368898389328271,-0.5005037361763417
1761507789791510500,6.977510498046875,-1.6342250038862227,0.20280162319242953,-0.35299160013794895
1761507789801482800,6.987482666015625,-1.1305962675571442,0.2060870746038854,-0.24213534325845537
1761507789811454500,6.997454345703125,-0.6395651469945908,0.18513956364318726,-0.17546484958603978
1761507789821426700,7.0074267578125,-0.18367372887432573,0.1883626173429191,-0.17455182639434932
1761507789831397600,7.017397705078125,0.2359860999137163,0.20795476817190645,-0.20445054117692632
1761507789841369600,7.02736962890625,0.5481657971918582,0.20349369710981843,-0.2306706039793789
1761507789851341600,7.037341552734375,0.7790940291941165,0.1774227787207812,-0.29306681786607947
1761507789861313500,7.0473134765625,0.953150619417429,0.14002689484953879,-0.39378070664405823
1761507789871285800,7.05728564453125,1.0444541076302527,0.11218436367809771,-0.506724802648276
1761507789881257500,7.067257568359375,1.067264489853382,0.08689706994742155,-0.5531058839425445
1761507789891228700,7.077228759765625,0.9983709863692521,0.09263597892560065,-0.5373312455751001
1761507789901200600,7.08720068359375,0.8604775964170693,0.20197269808761775,-0.4577064681855961
1761507789911172600,7.097172607421875,0.6922153716862202,0.35451866357475514,-0.3751292707312852
1761507789921144600,7.10714453125,0.5510100807070731,0.4756136981349438,-0.3164533560093492
1761507789931116500,7.117116455078125,0.44353520989418027,0.5590023215699941,-0.2863762524525635
1761507789941088800,7.1270888671875,0.3981500077694654,0.6009674861181526,-0.20276534630265086
1761507789951059500,7.1370595703125,0.43198622639775275,0.6395389896400272,-0.10034929324928671
1761507789961031700,7.14703173828125,0.44274727438688277,0.6771064306858927,0.036692101249750704
1761507789971003600,7.157003662109375,0.4184299947321415,0.7199122107766568,0.17285779062649234
1761507789980975600,7.1669755859375,0.3628367023259401,0.7588747594427316,0.2598847522975877
1761507789990947600,7.176947509765625,0.33625323130488394,0.7844741147972643,0.318014248650521
1761507790000918500,7.18691845703125,0.3536702300518751,0.8258393406908958,0.33173948020748795
1761507790010890500,7.196890380859375,0.4099614415943622,0.8581232883758843,0.33646935827359553
1761507790020862500,7.206862548828125,0.482685901543498,0.8767248937975615,0.36239096785243596
1761507790030834700,7.216834716796875,0.571204727473855,0.9052249390296637,0.3952955681864172
1761507790040806700,7.226806640625,0.659695496353507,0.9371961675036699,0.4332459441352635
1761507790050778600,7.236778564453125,0.6932090588986873,0.9973328754931687,0.48189285146966576
1761507790060749600,7.24674951171875,0.6978244437396526,1.0515279184740036,0.5337166718071327
1761507790070721500,7.256721435546875,0.6682002898484468,1.0952174225967377,0.5797641372328624
1761507790080693500,7.266693603515625,0.5539268449366093,1.1250292080145328,0.618223376019299
1761507790090665500,7.27666552734375,0.37426059813797474,1.106498768132925,0.6228373726207762
1761507790100637700,7.2866376953125,0.1721118858963251,1.0760725040785968,0.5513214482111856
1761507790110608600,7.296608642578125,0.004191606470942497,1.0289044371251017,0.43122539809308946
1761507790120580600,7.30658056640625,-0.08932254352867602,0.9299858707986771,0.33074520847313105
1761507790130552600,7.316552490234375,-0.08333645485639572,0.782509317530319,0.2690113674852997
1761507790140524500,7.326524658203125,-0.01175005902647972,0.7054121223896741,0.1744659016765654
1761507790150496500,7.33649658203125,0.09684417120516299,0.6034116643998771,0.11458765282700768
1761507790160468500,7.346468505859375,0.1562999842584133,0.4610729854766279,0.06474476804053411
1761507790170439400,7.356439453125,0.15188859755694864,0.3191299548074603,0.06602814978142268
1761507790180411600,7.36641162109375,0.00030628947019577024,0.21502901740707456,0.11047434488981961
1761507790190383600,7.376383544921875,-0.24701661249399184,0.15061309772841633,0.15590305736269802
1761507790200355600,7.38635546875,-0.5169289474070072,0.11582469294182955,0.20714195395167917
1761507790210327600,7.39632763671875,-0.7114964107394218,0.10864837157167494,0.2727853330660611
1761507790220299500,7.406299560546875,-0.7821306204110383,0.09264730403721332,0.37336423382014033
1761507790230270700,7.416270751953125,-0.7499585356026888,0.07097589924875647,0.5029036003923043
1761507790240242400,7.426242431640625,-0.6241483821541071,0.034356844968907535,0.6399949167139828
1761507790250214700,7.436214599609375,-0.4162269317299127,-0.0027189401024952527,0.7810827187933027
1761507790260186600,7.4461865234375,-0.1907037736415863,-0.05874145423881709,0.9029873161707073
1761507790270158600,7.45615869140625,0.019977204623818395,-0.11942498245611786,0.9437317798174917
1761507790280129800,7.4661298828125,0.21136545339822768,-0.17558474963866172,0.9458835510239004
1761507790290101500,7.4761015625,0.36555005293786524,-0.22382592571638524,0.9040114715866744
1761507790300073700,7.48607373046875,0.4724047460258007,-0.28157935529854144,0.8522923902653157
1761507790310045400,7.49604541015625,0.5325771829158067,-0.3404830874269828,0.7952063750833273
1761507790320017700,7.506017578125,0.5202086997300386,-0.36864400036521255,0.7334912387959659
1761507790329989600,7.51598974609375,0.5035054022103548,-0.37006124675199387,0.633322087886557
1761507790339960600,7.525960693359375,0.4621083929389715,-0.3924251273166388,0.5168067823320627
1761507790349932500,7.5359326171875,0.43448271938860417,-0.4345061367968097,0.4014864221831783
1761507790359904500,7.545904541015625,0.3610550796061754,-0.5169955463698134,0.3193751617401838
1761507790369876700,7.555876708984375,0.2349316224247217,-0.5913043163683265,0.2536666449677199
1761507790379848400,7.565848388671875,0.09347907868623732,-0.642950551649183,0.17380208573928102
1761507790389820700,7.575820556640625,-0.07469488323926925,-0.70553406826891,0.09621727147847413
1761507790399791400,7.585791259765625,-0.23981413376927374,-0.7669896037720143,0.04970463622640818
1761507790409763600,7.595763671875,-0.38316578912734983,-0.7948940211985259,0.022690792697761208
1761507790419735600,7.605735595703125,-0.46421910148262974,-0.7735377102412283,0.021327404523221776
1761507790429707500,7.61570751953125,-0.5112994170874356,-0.7771762128740549,-0.005350676845572888
1761507790439679700,7.6256796875,-0.5591945562064647,-0.8272288953531532,-0.05949729584110901
1761507790449650400,7.635650390625,-0.4927274030864238,-0.8410677433524281,-0.11728518481529317
1761507790459622700,7.64562255859375,-0.3155927205920219,-0.842436328291893,-0.1424551175103057
1761507790469594400,7.655594482421875,-0.09013035278022288,-0.8496325964715331,-0.10993588149840942
1761507790479566600,7.665566650390625,0.13233341773748397,-0.8450549863576888,-0.01755006880844012
1761507790489538600,7.67553857421875,0.30629063923954963,-0.8164717198215424,0.07699687657132745
1761507790499510500,7.685510498046875,0.3529845858752727,-0.7630161700963973,0.15711504523465408
1761507790509481700,7.695481689453125,0.27629180681705473,-0.6637658145323395,0.20834950311053543
1761507790519453400,7.705453369140625,0.10636486374437808,-0.5579963228652254,0.22906822855034842
1761507790529425700,7.71542578125,-0.08731412631571292,-0.4561487173495814,0.24938953390410168
1761507790539397400,7.7253974609375,-0.2485644264578819,-0.3358272609777748,0.2729968751912005
1761507790549369600,7.73536962890625,-0.3156505882591009,-0.22722163256928324,0.31840310183763504
1761507790559341600,7.745341552734375,-0.27856267435848714,-0.15597751083839684,0.39945166495256124
1761507790569312500,7.7553125,-0.20563129366040228,-0.13067450808193534,0.47615814374256876
1761507790579284700,7.76528466796875,-0.14574234988689422,-0.13768866116032003,0.5268445575479418
1761507790589256400,7.77525634765625,-0.12024316697120666,-0.1657398666463792,0.5430862289052456
1761507790599228700,7.785228759765625,-0.09765957924127579,-0.18027553780339658,0.5201274146547541
1761507790609200400,7.795200439453125,-0.0427688821464777,-0.1640525711465627,0.5045199860803783
1761507790619171600,7.805171630859375,0.03286825037896633,-0.13570121367014945,0.49727801559548823
1761507790629143600,7.8151435546875,0.16386252846717833,-0.11065211260952054,0.4038535897059366
1761507790639115500,7.825115478515625,0.28344167857170105,-0.10277582627646624,0.27598146222624925
1761507790649088500,7.835088623046875,0.3659638944357633,-0.09535532088689505,0.19514204834997653
1761507790659060700,7.845060791015625,0.2816787605524063,-0.13104370672050863,0.11660951404343359
1761507790669032700,7.85503271484375,0.04154840044081211,-0.1585561291547492,0.07252670888733119
1761507790679003600,7.865003662109375,-0.32644203138649464,-0.09145418526250869,0.059614866939326744
1761507790688976000,7.874975830078125,-0.737807494559884,0.05918463142905384,0.10835652161878533
1761507790698947600,7.884947509765625,-1.0391910725355147,0.23766185110621152,0.2227658222042024
1761507790708919800,7.894919921875,-1.1468073976457118,0.4150864199252799,0.34070290419012306
1761507790718891500,7.9048916015625,-1.0617191306859255,0.5422471111999825,0.42916736958473917
1761507790728862700,7.91486279296875,-0.8273205922245979,0.5973081964256242,0.5068495250064879
1761507790738834700,7.924834716796875,-0.470203436589241,0.6234688023921102,0.6188386583734303
1761507790748806700,7.934806640625,-0.10123393059670925,0.6413818410277367,0.6269543794855476
1761507790758779000,7.94477880859375,0.22076514990627763,0.6013122079025953,0.5869372802652418
1761507790768750600,7.95475048828125,0.43605859040319916,0.5992892507076263,0.47874746611602603
1761507790778722800,7.964722900390625,0.6070148765236139,0.6253713480778038,0.3458615290623158
1761507790788693800,7.97469384765625,0.7394868259489535,0.6023010362768545,0.242557331530191
1761507790798665700,7.984665771484375,0.8145604793727398,0.564774438698031,0.21527955810204147
1761507790808637700,7.9946376953125,0.8089765417605638,0.539519111008197,0.22377722773645073
1761507790818609700,8.004609619140625,0.697728582149744,0.5202599184606224,0.23213231056239456
1761507790828582000,8.014581787109375,0.4548007002741098,0.4725548585535958,0.15067782439454458
1761507790838552800,8.024552734375,0.10904255852103233,0.3983712858373299,-0.050860117271309714
1761507790848524800,8.03452490234375,-0.25291210027337074,0.3173686807559803,-0.37097865385785694
1761507790858496800,8.044496826171875,-0.5003507375717163,0.2302694758325815,-0.6363182009626179
1761507790868467700,8.0544677734375,-0.6671195088744163,0.10961535344030708,-0.7735621140301228
1761507790878439700,8.064439697265625,-0.7338941205084324,-0.00009304857831448316,-0.8415943245097994
1761507790888411600,8.07441162109375,-0.7095680730253457,-0.046233562582358716,-0.9637450786679983
1761507790898383600,8.084383544921875,-0.690576372307539,-0.10556921985466032,-1.0827959671147167
1761507790908355800,8.09435595703125,-0.6529618041843176,-0.12146993228718637,-1.177228474068269
1761507790918327800,8.104327880859374,-0.5830249291270971,-0.06580883534178138,-1.2271613295599817
1761507790928298800,8.114298828125,-0.432424033293128,0.04804506898373365,-1.2297089682161808
1761507790938270700,8.124270751953125,-0.21145430072546004,0.18617445964887738,-1.1355772708401084
1761507790948242700,8.13424267578125,0.03541325868666172,0.31943748638667163,-0.9484679414939134
1761507790958214700,8.144214599609375,0.2398819383084774,0.4136160185791552,-0.698459161446616
1761507790968186600,8.1541865234375,0.3304460063308477,0.4569291636701673,-0.48599568367861207
1761507790978157800,8.16415771484375,0.29804478894174097,0.4869579528395086,-0.3496672049555927
1761507790988129500,8.174129638671875,0.20432196462750435,0.4877800098121166,-0.28136388591695577
1761507790998101800,8.184101806640625,0.09397416872680187,0.4943367379792034,-0.22446667130533604
1761507791008073700,8.19407373046875,0.02177344039082527,0.49639739683605727,-0.16877189128603784
1761507791018045700,8.204045654296875,-0.00813245305120945,0.46060332213826477,-0.1115255983752664
1761507791028017700,8.214017578125,0.00886836611032486,0.40611952534392476,-0.06936039034351706
1761507791037988600,8.223988525390626,0.08132160790264606,0.32174349830672144,-0.030487711917981504
1761507791047960800,8.2339609375,0.14994389322996138,0.1849616497930139,0.004122194496542215
1761507791057932500,8.2439326171875,0.15969138026237487,0.03483545879870653,0.03471975086401217
1761507791067904800,8.25390478515625,0.06828501619696617,-0.1169841651752591,0.05112597426641732
1761507791077876700,8.263876708984375,-0.08333002511560916,-0.22800065411776302,0.06754705731123685
1761507791087848700,8.2738486328125,-0.277619256028533,-0.27453707210421563,0.07465964752910659
1761507791097820000,8.28381982421875,-0.4477215556681156,-0.30643216660209,0.07068263365691527
1761507791107791600,8.29379150390625,-0.5471773706763983,-0.34240203625820576,0.10971917914096266
1761507791117763800,8.303763916015624,-0.5666173996835947,-0.387616850252077,0.14581610924284905
1761507791127735600,8.313735595703125,-0.4743155480831861,-0.4263983432628214,0.21092700718203558
1761507791137707800,8.323707763671875,-0.27924890305697914,-0.452518946012482,0.2801917733976617
1761507791147678700,8.3336787109375,-0.012363807010650634,-0.4677065782722085,0.35537597452383485
1761507791157650700,8.343650634765625,0.26223054823875425,-0.4747779048979282,0.4056925321035087
1761507791167623000,8.353622802734375,0.4838479310601949,-0.4939362674195319,0.43482316685672845
1761507791177594600,8.3635947265625,0.6063093586027621,-0.4996764915719628,0.43450281232856214
1761507791187566800,8.37356689453125,0.6586930413126945,-0.46829731070697306,0.39059334531221535
1761507791197538600,8.38353857421875,0.638887686124444,-0.41099626453481614,0.3388199034551158
1761507791207509800,8.393509765625,0.603038374108076,-0.32492578160464763,0.2797437921681441
1761507791217481700,8.403481689453125,0.6056283906012773,-0.2539413702558726,0.23762349185720086
1761507791227453700,8.41345361328125,0.6235860720962285,-0.22181027504503725,0.23551879292922093
1761507791237426700,8.4234267578125,0.636981560242176,-0.22882979841828344,0.2048842929516919
1761507791247398700,8.433398681640625,0.6426420702219009,-0.23041889424063264,0.1854270570813678
1761507791257370600,8.44337060546875,0.6227917068481444,-0.23083405091278253,0.1445945680912584
1761507791267342800,8.4533427734375,0.6049807403475046,-0.21982596936002372,0.12389370710169896
1761507791277314600,8.463314453125,0.5867758060932159,-0.21276479880213736,0.11994023850187659
1761507791287285800,8.47328564453125,0.5658031606912612,-0.23070932855457066,0.12901654827445744
1761507791297257700,8.4832578125,0.4926426474124193,-0.26113069723807275,0.14161626466652377
1761507791307229700,8.493229736328125,0.3871627498090267,-0.3038664808325469,0.10995481452774256
1761507791317201700,8.50320166015625,0.23601941766142845,-0.3937925432123244,0.04542726943446323
1761507791327173600,8.513173583984376,0.11031856980621814,-0.5147263227961957,-0.03621909517683088
1761507791337144600,8.52314453125,0.06276596051454544,-0.5711642493329941,-0.09088873339947312
1761507791347116800,8.53311669921875,0.09535130229890346,-0.5835647350922226,-0.09069964056815952
1761507791357088800,8.5430888671875,0.21206278801262377,-0.592448152641207,0.059428724116925145
1761507791367060700,8.553060791015625,0.3520692245960235,-0.6154737850502133,0.19493041489329188
1761507791377032700,8.56303271484375,0.4396481393277645,-0.6065988430686294,0.3541584154276177
1761507791387004700,8.573004638671875,0.41089316948652266,-0.640767873847857,0.4490458265418186
1761507791396975900,8.582975830078125,0.35250586244761944,-0.6535317860919981,0.4795734686113894
1761507791406947600,8.592947509765626,0.2706932561576366,-0.6734427936118096,0.48468993484228845
1761507791416919800,8.602919921875,0.18168576992750166,-0.6736791596509516,0.573869855029881
1761507791426891800,8.612891845703125,0.07974573688805103,-0.6826419260464608,0.6755396197605877
1761507791436863700,8.62286376953125,-0.01079495025873184,-0.6869563551794737,0.73657926793918
1761507791446834700,8.632834716796875,-0.0813853207886219,-0.7011394865717738,0.6907092049069702
1761507791456806700,8.642806640625,-0.10743512332439421,-0.7560092870090156,0.5782366354046389
1761507791466779000,8.65277880859375,-0.1345931793630123,-0.8274730063073337,0.4343340681655332
1761507791476750600,8.66275048828125,-0.2754132704168558,-0.8450088091284036,0.2813741698489524
1761507791486722800,8.672722900390625,-0.5703741218686104,-0.7804901597276329,0.09400672842268831
1761507791496694800,8.68269482421875,-0.9628180269509553,-0.6244374282285571,0.00813037069197744
1761507791506665700,8.692665771484375,-1.450129834729433,-0.4602913335796445,0.07203982041953132
1761507791516637700,8.7026376953125,-1.9719775338381527,-0.2842426196910441,0.10210727936513721
1761507791526609700,8.712609619140625,-2.2492460767328737,-0.06260119840689003,0.15716489399205893
1761507791536581600,8.72258154296875,-2.4596599284946916,0.10450228474289178,0.04110336008705198
1761507791546553600,8.7325537109375,-2.4876012438654898,0.17133176836930214,-0.14401717006210238
1761507791556524800,8.74252490234375,-2.15397076227963,0.22852738140560686,-0.3706871235653758
1761507791566496500,8.75249658203125,-1.5138339528769253,0.22151501842550933,-0.5691829027900472
1761507791576468700,8.76246875,-0.7248819620132446,0.12787446556724608,-0.6080969726718962
1761507791586440700,8.772440673828125,0.01757715774476528,0.07290062023364006,-0.5758248250225558
1761507791596412700,8.78241259765625,0.5905874733358621,0.11432342153340577,-0.5804563938133418
1761507791606384600,8.792384521484376,0.9684259299606084,0.21409327092692254,-0.579593858699873
1761507791616355600,8.80235546875,1.1357231090515851,0.30277810107395053,-0.5685074146812782
1761507791626327800,8.812327880859375,1.1385293986439704,0.36712387812584635,-0.5389415668485685
1761507791636299500,8.822299560546876,1.0346136816173792,0.46303500626459715,-0.5885913310825824
1761507791646272000,8.83227197265625,0.8419540977329015,0.552061489456147,-0.6978188907817006
1761507791656243700,8.84224365234375,0.5795943701565265,0.6070182375244796,-0.818493800233677
1761507791666215000,8.85221484375,0.30873218717277046,0.6775162535957991,-0.9735048406600951
1761507791676187000,8.862186767578125,0.0789975488692522,0.747591221949458,-1.108282582809776
1761507791686158800,8.872158935546874,-0.08964695317745208,0.8174486020296812,-1.1769527989320456
1761507791696131000,8.882131103515626,-0.1647270363420248,0.8682958689525723,-1.1694201384048908
1761507791706102800,8.892102783203125,-0.1836222909480333,0.8778359968446194,-1.094780200223252
1761507791716075000,8.902074951171874,-0.16017770247459412,0.8859436077155173,-0.9379639370057732
1761507791726046000,8.9120458984375,-0.17414134589731692,0.9002896745845675,-0.7095365088433027
1761507791736018000,8.922017822265625,-0.1966208887308836,0.934726197193563,-0.45856052773166445
1761507791745990000,8.931989990234374,-0.18040566698908805,1.0132185730196535,-0.21078049311712382
1761507791755961900,8.9419619140625,-0.06792027453780174,1.1098740897849202,-0.00034976328574120994
1761507791765934000,8.95193408203125,0.1589718338161707,1.1882457618407904,0.19006215126980094
1761507791775904800,8.96190478515625,0.4650403547376394,1.2324271411336958,0.37221064333822573
1761507791785877000,8.971876953125,0.718721101295948,1.1662786985740066,0.5124341567384079
1761507791795849000,8.981848876953125,0.9332669382959604,1.122033460264653,0.5350048484541475
1761507791805821000,8.991821044921876,1.139563417866826,1.1167547892093659,0.5258054968237876
1761507791815793000,9.00179296875,1.3293833944112061,1.1158331443198024,0.5393698387306183
1761507791825764900,9.011764892578125,1.471280759307742,1.0833145841613412,0.5619557280154899
1761507791835735800,9.02173583984375,1.5446382564634085,1.035405270386487,0.5627198442557826
1761507791845707800,9.031707763671875,1.48956168140769,1.0105129673227666,0.5127649961279704
1761507791855680000,9.041679931640624,1.2902823871225118,0.9529400454066693,0.4414773640489206
1761507791865652000,9.05165185546875,0.9494476732462644,0.8915991492591798,0.34407164997085926
1761507791875624000,9.0616240234375,0.49025662905871864,0.8254718956179916,0.2136334165965207
1761507791885595000,9.071594970703124,0.07828267859816551,0.801176681664586,0.03508629175461828
1761507791895566800,9.08156689453125,-0.24943477955162524,0.7509281112872064,-0.09072981651071459
1761507791905538800,9.091538818359375,-0.5177998850226402,0.6613584611296653,-0.1521986133541912
1761507791915510800,9.1015107421875,-0.7209989831000566,0.5502974023930728,-0.18603450318891554
1761507791925483000,9.11148291015625,-0.84093118442595,0.4475239872694015,-0.1918171051783487
1761507791935454700,9.121454833984375,-0.8607470610082149,0.3788543556690216,-0.1947542546087876
1761507791945426000,9.131426025390626,-0.7109773553013801,0.2625968242678791,-0.1151903770936653
1761507791955398000,9.14139794921875,-0.567265634459257,0.18623371555544435,-0.018678981506824493
1761507791965369900,9.151369873046875,-0.4422708890467882,0.11536577019318937,0.1251810982974246
1761507791975341800,9.161341796875,-0.2680716754823923,0.12503069350868462,0.2858615626623854
1761507791985313800,9.171313720703125,-0.09225216723978519,0.13529752824008465,0.44054629374388604
1761507791995286000,9.1812861328125,0.08109948958456516,0.11816928330659866,0.5129400604339316
1761507792005257000,9.191257080078126,0.18255729206502436,0.09501498301662505,0.5681774520745501
1761507792015229000,9.20122900390625,0.2817664388358593,0.14156177626661956,0.7247668112009763
1761507792025201000,9.211200927734374,0.3127735715180635,0.24914076504111288,0.9075934217266738
1761507792035172900,9.2211728515625,0.2930190697342157,0.3518474716041237,1.0641577560096978
1761507792045144800,9.231144775390625,0.2600374221086502,0.4126089604284614,1.214675503604859
1761507792055116000,9.241115966796874,0.2442594227403402,0.4249156304243952,1.300466512006521
1761507792065087700,9.251087646484375,0.2566156309664249,0.3446132825668901,1.281905165529996
1761507792075060000,9.26106005859375,0.310204597812891,0.1775416558600962,1.1852819435991346
1761507792085032000,9.271031982421874,0.3109697369664907,-0.027150530319288373,1.0693275598630307
1761507792095004000,9.28100390625,0.2929688008517027,-0.19257351303622125,0.9332968950428068
1761507792104975000,9.29097509765625,0.2591319977015257,-0.3080477851051837,0.8168315661098807
1761507792114946800,9.30094677734375,0.20377777474820613,-0.3716260849159211,0.6721604256510734
1761507792124919000,9.3109189453125,0.17921265781223772,-0.44868112141527233,0.5579760472621769
1761507792134890800,9.320890869140625,0.1494511412769556,-0.5461573069136589,0.4730871753320098
1761507792144863000,9.330863037109374,0.10811901393532752,-0.6491166730634867,0.3863183348741382
1761507792154835000,9.3408349609375,0.016234510964155197,-0.7623962846323847,0.3051332493653521
1761507792164806000,9.350805908203125,-0.16130933685302734,-0.8625120979193598,0.1930254945874214
1761507792174778000,9.360778076171876,-0.35810324406325816,-0.8881330805838108,0.13788988282084463
1761507792184749800,9.370749755859375,-0.5516401953041553,-0.8440467591632157,0.07807586744707078
1761507792194722000,9.38072216796875,-0.6812620159953833,-0.8706101372443139,0.03910858780695125
1761507792204693800,9.39069384765625,-0.7152116318702697,-0.882827521521598,-0.08131654813503846
1761507792214665000,9.4006650390625,-0.5781938557088375,-0.9192373900301753,-0.2600198499193415
1761507792224636700,9.41063671875,-0.45817631418704985,-1.1040111160356552,-0.36118385708499695
1761507792234609000,9.42060888671875,-0.42949207149446006,-1.1909754790656268,-0.4020270318659022
1761507792244580900,9.430580810546875,-0.4649643668919801,-1.179515781287849,-0.4295193613601848
1761507792254552800,9.440552734375,-0.6512029778182507,-1.069413557646051,-0.4729145221788436
1761507792264525000,9.450525146484376,-0.8117740635246038,-0.7755370673649012,-0.5471759459042921
1761507792274495700,9.460495849609375,-0.8857762883245944,-0.468539887291193,-0.5114307883821427
1761507792284468000,9.470468017578124,-0.8006938665837049,-0.3642799234041944,-0.15555186930485068
1761507792294439700,9.480439697265625,-0.5262649310290813,-0.365781815867126,0.25092746579479425
1761507792304412000,9.490411865234375,-0.13690788604617118,-0.29625187764298166,0.47589346492439505
1761507792314384000,9.5003837890625,0.22388415870964526,-0.1897323713261634,0.546686518419534
1761507792324354800,9.510354736328125,0.45798459100723266,-0.13833068539090454,0.578298338996619
1761507792334327000,9.5203271484375,0.44622517963051794,-0.0494759420370683,0.6420832672953606
1761507792344298800,9.530298828125,0.4790595277398824,0.08096285759285092,0.6361053619295358
1761507792354271000,9.54027099609375,0.49572775394618507,0.16571232105232775,0.5816212363416329
1761507792364242700,9.55024267578125,0.47025253642797465,0.16063735587559638,0.5139108416948467
1761507792374215000,9.56021484375,0.3939391120761633,0.12462876164428889,0.3982150723623112
1761507792384185900,9.570185791015625,0.23726561833024024,0.03398459585672244,0.20612072114516047
1761507792394157800,9.58015771484375,0.0035281741261482236,-0.06274265270419419,0.06493420793171972
1761507792404130000,9.590130126953126,-0.24374913513064383,-0.11549162506256253,0.024179222890920934
1761507792414101800,9.600101806640625,-0.5377700753837824,-0.0609203509141691,0.016831198215670883
1761507792424074000,9.610073974609374,-0.7387766318529844,0.09467769561996683,-0.034875462015531954
1761507792434045000,9.620044921875,-0.7647264811456203,0.2978799355025403,-0.09952712667882442
1761507792444017000,9.630016845703125,-0.6131733991533518,0.47797260928601026,-0.10324585494101048
1761507792453988900,9.63998876953125,-0.3766623985826969,0.5719052769586443,0.059610784419253465
1761507792463960800,9.6499609375,-0.09194529324769973,0.5869800964936613,0.2428677309199236
1761507792473933000,9.65993310546875,0.2544727737188339,0.5727361748248339,0.33080464704278856
1761507792483904000,9.669904052734376,0.572004937940836,0.5534939334120601,0.3156194624684751
1761507792493876000,9.6798759765625,0.8201911787360906,0.5284480837544426,0.2842735080196522
1761507792503848000,9.689847900390625,0.980562357956171,0.5083035962723196,0.22438984320946037
1761507792513820000,9.69981982421875,1.0714315464049577,0.4649683124147355,0.23158932625949383
1761507792523792000,9.7097919921875,1.0971534321606158,0.4692542095730081,0.26683645286532115
1761507792533763800,9.719763916015625,0.9900912338018417,0.45912075543031095,0.3716526806619018
1761507792543734800,9.72973486328125,0.7272434304475784,0.4629513465691358,0.4450125159051269
1761507792553707000,9.73970703125,0.1258615913748741,0.4972653387770056,0.43763391342852265
1761507792563679000,9.749678955078124,-0.4812836335301399,0.42400410507004704,0.30200852320725097
1761507792573651000,9.75965087890625,-0.7864999215364455,0.5876095900362357,0.0015604725160636007
1761507792583623000,9.769622802734375,-0.9413865318655967,0.5153433952486142,0.04256630877908319
1761507792593593900,9.77959375,-0.8793909712016582,0.5373567088099196,-0.12491088478760794
1761507792603565800,9.78956591796875,-0.8378887479901314,0.5276645686939359,-0.3459646241106093
1761507792613537800,9.799537841796875,-0.8378238660603761,0.33763723300918935,-0.5402224735045805
1761507792623509800,9.809509765625,-0.8907657671749591,0.15184073982723056,-0.7341641696214676
