time,seconds_elapsed,z,y,x
1761507782891004400,0.07700439453125,-0.023919781669974327,-0.0422913022339344,0.07475869357585907
1761507782900975400,0.086975341796875,-0.027090275660157204,-0.027331523597240448,0.07258342206478119
1761507782910947300,0.096947265625,-0.03527345508337021,-0.011737397871911526,0.06422524154186249
1761507782920919300,0.106919189453125,-0.044996388256549835,0.005409098230302334,0.05176537483930588
1761507782930891300,0.116891357421875,-0.05679856613278389,0.0038109850138425827,0.03059760481119156
1761507782940863500,0.126863525390625,-0.06440640985965729,0.004281565546989441,0.012416737154126167
1761507782950835500,0.13683544921875,-0.06458410620689392,0.0028263372369110584,0.00026830669958144426
1761507782960806400,0.146806396484375,-0.06227168068289757,-0.0018027696060016751,-0.00418263440951705
1761507782970778400,0.1567783203125,-0.05227445438504219,-0.010116584599018097,-0.006679707206785679
1761507782980750300,0.166750244140625,-0.04720965400338173,-0.03438491001725197,-0.0025664546992629766
1761507782990722300,0.176722412109375,-0.0385015644133091,-0.05181503668427467,0.005248932633548975
1761507783000694300,0.1866943359375,-0.03888878598809242,-0.06749093532562256,0.008649522438645363
1761507783010666500,0.19666650390625,-0.03706146776676178,-0.06783004850149155,0.01781904697418213
1761507783020637200,0.20663720703125,-0.03377033397555351,-0.05480053275823593,0.024589868262410164
1761507783030609400,0.216609375,-0.033560656011104584,-0.031660571694374084,0.029529614374041557
1761507783040581400,0.226581298828125,-0.03256196901202202,-0.015379071235656738,0.0223260298371315
1761507783050553300,0.23655322265625,-0.033826932311058044,0.0019206930883228779,0.02083929255604744
1761507783060525300,0.246525390625,-0.03212624043226242,0.003230435773730278,0.01470816321671009
1761507783070497300,0.256497314453125,-0.02758118323981762,0.0009656137553974986,0.013765530660748482
1761507783080469200,0.26646923828125,-0.026347873732447624,0.0051529016345739365,0.023282868787646294
1761507783090440200,0.276440185546875,-0.022048112004995346,0.010860602371394634,0.03467385843396187
1761507783100412400,0.286412353515625,-0.016447484493255615,0.011416669934988022,0.043805304914712906
1761507783110384400,0.29638427734375,-0.010660149157047272,0.013196952641010284,0.048778049647808075
1761507783120356400,0.3063564453125,-0.014453290030360222,0.013136764988303185,0.0407683290541172
1761507783130328300,0.316328369140625,-0.016873696818947792,0.007939163595438004,0.029552429914474487
1761507783140300300,0.32630029296875,-0.018820200115442276,0.007282694336026907,0.020450279116630554
1761507783150271500,0.336271484375,-0.023454684764146805,0.007368376478552818,0.0029859114438295364
1761507783160243200,0.3462431640625,-0.02860950119793415,0.006277811713516712,-0.01074108574539423
1761507783170215400,0.35621533203125,-0.027783049270510674,0.009790844283998013,-0.028013525530695915
1761507783180187400,0.3661875,-0.023948365822434425,0.007539940532296896,-0.03455664962530136
1761507783190159400,0.376159423828125,-0.0131352748721838,-0.003369305282831192,-0.04202263802289963
1761507783200131300,0.38613134765625,-0.0022259014658629894,-0.02862406149506569,-0.0479138158261776
1761507783210102300,0.396102294921875,0.008558321744203568,-0.05663391947746277,-0.04611426964402199
1761507783220074500,0.406074462890625,0.007301841862499714,-0.07870566844940186,-0.040920570492744446
1761507783230046200,0.416046142578125,-0.000615985132753849,-0.08094701915979385,-0.023650411516427994
1761507783240018400,0.426018310546875,-0.0063356561586260796,-0.06363701075315475,-0.007433358579874039
1761507783249990400,0.435990478515625,-0.008917908184230328,-0.044424768537282944,-0.0006392591167241335
1761507783259962400,0.44596240234375,-0.012079347856342793,-0.03532421588897705,-0.001084273331798613
1761507783269934300,0.455934326171875,-0.016499681398272514,-0.02934194542467594,-0.011003348976373672
1761507783279905300,0.4659052734375,-0.01124286837875843,-0.01844402402639389,-0.020404573529958725
1761507783289877500,0.47587744140625,-0.005687406752258539,-0.002355649834498763,-0.019068030640482903
1761507783299849200,0.48584912109375,-0.0037259883247315884,0.003479069797322154,-0.01718038320541382
1761507783309821400,0.495821533203125,0.00017108581960201263,-0.003180374391376972,-0.012772295624017715
1761507783319793400,0.50579345703125,0.0005631032399833202,-0.03045833483338356,-0.011235118843615055
1761507783329765400,0.515765380859375,-0.00031666364520788193,-0.05695747211575508,-0.012308327481150627
1761507783339736600,0.525736572265625,-0.009930673986673355,-0.06791158765554428,-0.018671683967113495
1761507783349708300,0.535708251953125,-0.02081325650215149,-0.061616361141204834,-0.035757631063461304
1761507783359680500,0.545680419921875,-0.030039511620998383,-0.03593523055315018,-0.05768848955631256
1761507783369652200,0.55565234375,-0.0343811921775341,0.018632441759109497,-0.07830244302749634
1761507783379624400,0.56562451171875,-0.02954542264342308,0.08461252599954605,-0.0849321186542511
1761507783389596400,0.575596435546875,-0.018852584064006805,0.13631415367126465,-0.0656236782670021
1761507783399567400,0.5855673828125,0.0027922578155994415,0.1733161211013794,-0.02352389506995678
1761507783409539600,0.59553955078125,0.01480046845972538,0.20771664381027222,0.023508116602897644
1761507783419511300,0.60551123046875,0.033607445657253265,0.23068560659885406,0.06799489259719849
1761507783429483500,0.6154833984375,0.03668007627129555,0.2674676477909088,0.09047996252775192
1761507783439455200,0.625455322265625,0.0457976758480072,0.25561633706092834,0.07953676581382751
1761507783449427500,0.635427490234375,0.056492771953344345,0.20041269063949585,0.07772918045520782
1761507783459399400,0.6453994140625,0.0726456418633461,0.13551358878612518,0.08613331615924835
1761507783469370400,0.655370361328125,0.0790603756904602,0.06578226387500763,0.10770517587661743
1761507783479342300,0.66534228515625,0.0744810700416565,0.018770549446344376,0.14178726077079773
1761507783489314300,0.675314208984375,0.07329841703176498,-0.009827736765146255,0.17551261186599731
1761507783499286500,0.68528662109375,0.07830782234668732,-0.020405812188982964,0.19015014171600342
1761507783509258200,0.69525830078125,0.0804247334599495,-0.034001678228378296,0.1794840395450592
1761507783519230500,0.70523046875,0.07305363565683365,-0.05919704586267471,0.13927243649959564
1761507783529201200,0.715201171875,0.05819319933652878,-0.06862996518611908,0.08587153255939484
1761507783539173400,0.72517333984375,0.035378698259592056,-0.057051073759794235,0.0275227390229702
1761507783549145300,0.735145263671875,0.00854005292057991,-0.04262443259358406,-0.03605671599507332
1761507783559117300,0.745117431640625,-0.021087879315018654,-0.03111291490495205,-0.10269619524478912
1761507783569089500,0.755089599609375,-0.04263470321893692,-0.01992102526128292,-0.16697974503040314
1761507783579061200,0.765061279296875,-0.05139569938182831,-0.0041913315653800964,-0.2155294418334961
1761507783589032400,0.775032470703125,-0.05220743641257286,-0.0005198764847591519,-0.24556240439414978
1761507783599004200,0.785004150390625,-0.05832578241825104,-0.006093606352806091,-0.25232869386672974
1761507783608976400,0.794976318359375,-0.07578741014003754,-0.009231357835233212,-0.24175472557544708
1761507783618948400,0.8049482421875,-0.10402144491672516,-0.009620445780456066,-0.22614780068397522
1761507783628920300,0.81492041015625,-0.12279503792524338,0.008203001692891121,-0.19323545694351196
1761507783638892300,0.824892333984375,-0.13175204396247864,0.03457442298531532,-0.14804986119270325
1761507783648863500,0.834863525390625,-0.11719036102294922,0.07520128041505814,-0.08287309855222702
1761507783658835500,0.84483544921875,-0.10906638205051422,0.10761994123458862,-0.00278199790045619
1761507783668807400,0.854807373046875,-0.10023399442434311,0.10888117551803589,0.06867043673992157
1761507783678779400,0.864779296875,-0.10583356022834778,0.11366474628448486,0.12598618865013123
1761507783688751400,0.87475146484375,-0.11308775842189789,0.10170271247625351,0.14777350425720215
1761507783698723600,0.8847236328125,-0.11769236624240875,0.08451147377490997,0.13287365436553955
1761507783708695300,0.8946953125,-0.12243163585662842,0.06750287860631943,0.10501138120889664
1761507783718666500,0.90466650390625,-0.12798139452934265,0.05342673882842064,0.07440287619829178
1761507783728638500,0.914638427734375,-0.13398289680480957,0.04451068863272667,0.050907380878925323
1761507783738610400,0.9246103515625,-0.13775180280208588,0.03597818687558174,0.03962676227092743
1761507783748582400,0.93458251953125,-0.1402147114276886,0.02101847343146801,0.03234882280230522
1761507783758554400,0.944554443359375,-0.14192739129066467,0.0035468051210045815,0.029377002269029617
1761507783768526600,0.954526611328125,-0.137942835688591,-0.016753993928432465,0.0316166989505291
1761507783778497500,0.96449755859375,-0.12982605397701263,-0.024696072563529015,0.03558294475078583
1761507783788469500,0.974469482421875,-0.12008285522460938,-0.017689114436507225,0.04925660043954849
1761507783798441500,0.98444140625,-0.1022692322731018,-0.0003583274083212018,0.06594423204660416
1761507783808413400,0.994413330078125,-0.08564512431621552,0.02063765563070774,0.08265659213066101
1761507783818385400,1.004385498046875,-0.07111598551273346,0.0398305244743824,0.0902647078037262
1761507783828357400,1.014357421875,-0.062384866178035736,0.05589885637164116,0.08637465536594391
1761507783838328300,1.024328369140625,-0.05126270279288292,0.056544672697782516,0.06244855001568794
1761507783848300500,1.034300537109375,-0.04339512065052986,0.05982227995991707,0.03665399178862572
1761507783858272500,1.0442724609375,-0.028137341141700745,0.06306707859039307,0.018645165488123894
1761507783868244500,1.054244384765625,-0.004776268266141415,0.06314615905284882,0.007045309524983168
1761507783878216400,1.064216552734375,0.013317514210939407,0.05674898624420166,0.013505872339010239
1761507783888188400,1.0741884765625,0.03746998682618141,0.046644970774650574,0.01735205017030239
1761507783898160400,1.084160400390625,0.06231355294585228,0.03731964901089668,0.023569200187921524
1761507783908131300,1.09413134765625,0.08752564340829849,0.03104245848953724,0.022502366453409195
1761507783918103600,1.104103515625,0.10290007293224335,0.023658310994505882,0.022580664604902267
1761507783928075500,1.114075439453125,0.11467757821083069,0.03213530033826828,0.02391812950372696
1761507783938047500,1.124047607421875,0.13312770426273346,0.04782451316714287,0.028463613241910934
1761507783948019500,1.13401953125,0.15519265830516815,0.06953099370002747,0.026723818853497505
1761507783957991400,1.143991455078125,0.17921650409698486,0.08482339233160019,0.015903927385807037
1761507783967962600,1.153962646484375,0.19524550437927246,0.0816362276673317,-0.0003388372715562582
1761507783977934300,1.163934326171875,0.20728619396686554,0.06773905456066132,-0.021019347012043
1761507783987906600,1.173906494140625,0.21492120623588562,0.04860399290919304,-0.03770347684621811
1761507783997878500,1.18387841796875,0.22688572108745575,0.04079374298453331,-0.04251980409026146
1761507784007850500,1.1938505859375,0.23731794953346252,0.04167310893535614,-0.03813670203089714
1761507784017822500,1.203822509765625,0.25614967942237854,0.04205287620425224,-0.030154937878251076
1761507784027793400,1.21379345703125,0.27423202991485596,0.04007171094417572,-0.025874346494674683
1761507784037765400,1.223765380859375,0.29566648602485657,0.02237367257475853,-0.02147267386317253
1761507784047737300,1.2337373046875,0.31214991211891174,-0.000055126030929386616,-0.01740081235766411
1761507784057709600,1.24370947265625,0.3228246569633484,-0.017792843282222748,-0.006202487275004387
1761507784067681500,1.253681640625,0.32972514629364014,-0.03604917600750923,0.014740148559212685
1761507784077653500,1.263653564453125,0.3290100693702698,-0.05036899447441101,0.03307361900806427
1761507784087625500,1.27362548828125,0.32075124979019165,-0.05596502497792244,0.04285448044538498
1761507784097596400,1.283596435546875,0.2950160503387451,-0.047692980617284775,0.05116061493754387
1761507784107568400,1.293568359375,0.25035548210144043,-0.019829463213682175,0.057520635426044464
1761507784117540400,1.303540283203125,0.20569851994514465,0.026995565742254257,0.06085731089115143
1761507784127512600,1.3135126953125,0.16284653544425964,0.08580304682254791,0.06390184164047241
1761507784137484500,1.323484619140625,0.136330246925354,0.14475585520267487,0.059634122997522354
1761507784147456500,1.33345654296875,0.13038954138755798,0.16383551061153412,0.04693231359124184
1761507784157427500,1.343427490234375,0.12601317465305328,0.13497669994831085,0.029996739700436592
1761507784167399400,1.3533994140625,0.1195395216345787,0.06880763918161392,0.007521912455558777
1761507784177371400,1.363371337890625,0.10602983832359314,0.0033948090858757496,-0.010768678039312363
1761507784187343400,1.37334326171875,0.09784970432519913,-0.049082085490226746,-0.023016944527626038
1761507784197315300,1.3833154296875,0.09317000210285187,-0.09035123139619827,-0.02922290936112404
1761507784207287600,1.39328759765625,0.1103004664182663,-0.10831595212221146,-0.028828423470258713
1761507784217258500,1.403258544921875,0.13678693771362305,-0.10063166171312332,-0.014118720777332783
1761507784227230500,1.41323046875,0.16958501935005188,-0.058297064155340195,0.026476578786969185
1761507784237202400,1.423202392578125,0.20868875086307526,0.023652128875255585,0.0938849151134491
1761507784247174400,1.43317431640625,0.2524588704109192,0.1322678178548813,0.1792658567428589
1761507784257146400,1.443146484375,0.287998765707016,0.23239175975322723,0.2620134651660919
1761507784267118300,1.453118408203125,0.31268393993377686,0.2861458957195282,0.32372787594795227
1761507784277089300,1.46308935546875,0.3294985890388489,0.2932853102684021,0.34840127825737
1761507784287061500,1.4730615234375,0.3326486051082611,0.24982024729251862,0.33848392963409424
1761507784297033500,1.483033447265625,0.33681005239486694,0.1622171550989151,0.30486977100372314
1761507784307005400,1.49300537109375,0.34536051750183105,0.05246187001466751,0.2648477852344513
1761507784316977400,1.502977294921875,0.3541494607925415,-0.040671803057193756,0.2226039469242096
1761507784326949400,1.512949462890625,0.3495085537433624,-0.11250737309455872,0.18380853533744812
1761507784336920600,1.522920654296875,0.33628302812576294,-0.16385045647621155,0.14603586494922638
1761507784346892300,1.532892333984375,0.3020245134830475,-0.20898549258708954,0.109359510242939
1761507784356864500,1.542864501953125,0.2589779794216156,-0.2464388608932495,0.06660671532154083
1761507784366836500,1.55283642578125,0.2143954038619995,-0.2727378308773041,0.01749943196773529
1761507784376808400,1.562808349609375,0.18322549760341644,-0.2913093864917755,-0.030729882419109344
1761507784386780400,1.572780517578125,0.1648603081703186,-0.2861238420009613,-0.09254009276628494
1761507784396751400,1.58275146484375,0.1512851119041443,-0.27301469445228577,-0.1585252285003662
1761507784406723600,1.5927236328125,0.14439836144447327,-0.24701428413391113,-0.21869498491287231
1761507784416695300,1.6026953125,0.1342431902885437,-0.2109990119934082,-0.2551616430282593
1761507784426667500,1.61266748046875,0.11862564831972122,-0.17177234590053558,-0.26517120003700256
1761507784436639500,1.622639404296875,0.09736163914203644,-0.12917853891849518,-0.2519693970680237
1761507784446611500,1.632611572265625,0.0810471922159195,-0.0708741694688797,-0.22730877995491028
1761507784456582700,1.642582763671875,0.06569778919219971,-0.014963234774768353,-0.19530583918094635
1761507784466554400,1.652554443359375,0.053096551448106766,0.021324878558516502,-0.16611215472221375
1761507784476526600,1.662526611328125,0.029195744544267654,0.03714112564921379,-0.14421138167381287
1761507784486498300,1.672498291015625,0.004102248698472977,0.038247283548116684,-0.14211347699165344
1761507784496470500,1.682470458984375,-0.019154870882630348,0.03673167899250984,-0.1432541161775589
1761507784506442500,1.6924423828125,-0.046058475971221924,0.03568502143025398,-0.152318075299263
1761507784516414500,1.70241455078125,-0.06373573839664459,0.0493403784930706,-0.1640349179506302
1761507784526385700,1.7123857421875,-0.06845653057098389,0.0836370661854744,-0.16578912734985352
1761507784536357400,1.722357421875,-0.06736037135124207,0.13312818109989166,-0.1557292938232422
1761507784546329600,1.73232958984375,-0.052823103964328766,0.16594907641410828,-0.13891303539276123
1761507784556301300,1.74230126953125,-0.02847169153392315,0.16712938249111176,-0.12349226325750351
1761507784566273500,1.7522734375,0.009879551827907562,0.13272230327129364,-0.10623928904533386
1761507784576245500,1.76224560546875,0.04489905387163162,0.07528723776340485,-0.09307394921779633
1761507784586216400,1.772216552734375,0.07962945103645325,0.001202840474434197,-0.08156359940767288
1761507784596188700,1.782188720703125,0.09516046941280365,-0.07004737108945847,-0.08206374198198318
1761507784606160400,1.792160400390625,0.08780968189239502,-0.1257404088973999,-0.09754440933465958
1761507784616132600,1.802132568359375,0.06294241547584534,-0.15265510976314545,-0.12029765546321869
1761507784626104300,1.812104248046875,0.03441134840250015,-0.14941564202308655,-0.15207882225513458
1761507784636076300,1.822076171875,0.006843369919806719,-0.1341453343629837,-0.18027371168136597
1761507784646047200,1.832047119140625,-0.014484662562608719,-0.1016070544719696,-0.2022998332977295
1761507784656019200,1.842019287109375,-0.030585866421461105,-0.05826330557465553,-0.21242623031139374
1761507784665991200,1.8519912109375,-0.04842466115951538,-0.014967055991292,-0.2139919102191925
1761507784675963100,1.861963134765625,-0.06410029530525208,0.019853508099913597,-0.204672172665596
1761507784685935000,1.87193505859375,-0.07123018056154251,0.04781797528266907,-0.1819213330745697
1761507784695907000,1.881906982421875,-0.07644917815923691,0.06955123692750931,-0.15861362218856812
1761507784705878000,1.8918779296875,-0.0752318799495697,0.09232615679502487,-0.1392613798379898
1761507784715850200,1.901850341796875,-0.06642693281173706,0.11150384694337845,-0.13328710198402405
1761507784725822200,1.911822265625,-0.04952266439795494,0.1293858140707016,-0.1378760039806366
1761507784735794200,1.921794189453125,-0.03201397880911827,0.14297352731227875,-0.14958620071411133
1761507784745766100,1.93176611328125,-0.018395425751805305,0.15293899178504944,-0.16853797435760498
1761507784755738000,1.941738037109375,-0.0008933977223932743,0.14854690432548523,-0.17750456929206848
1761507784765709000,1.951708984375,0.009474057704210281,0.12768197059631348,-0.18436211347579956
1761507784775681000,1.961680908203125,0.015278950333595276,0.10067752003669739,-0.18613497912883759
1761507784785653000,1.971653076171875,0.027221186086535454,0.062483254820108414,-0.1913224756717682
1761507784795625200,1.981625244140625,0.041060835123062134,0.01834961399435997,-0.20188723504543304
1761507784805597200,1.99159716796875,0.05935985967516899,-0.014182241633534431,-0.21083343029022217
1761507784815569200,2.001569091796875,0.07031211256980896,-0.02868075668811798,-0.21405719220638275
1761507784825540000,2.0115400390625,0.08309419453144073,-0.03814421594142914,-0.20522136986255646
1761507784835512000,2.021511962890625,0.08492725342512131,-0.03785153478384018,-0.17949843406677246
1761507784845484000,2.031484130859375,0.08792442828416824,-0.0326676145195961,-0.15494340658187866
1761507784855456000,2.0414560546875,0.09047946333885193,-0.029554111883044243,-0.13461175560951233
1761507784865428200,2.05142822265625,0.09682254493236542,-0.028233859688043594,-0.11756975948810577
1761507784875400200,2.061400146484375,0.09996534138917923,-0.03174257278442383,-0.10593654215335846
1761507784885371100,2.07137109375,0.10195432603359222,-0.03437954559922218,-0.09728499501943588
1761507784895343000,2.081343017578125,0.0965166836977005,-0.040353816002607346,-0.09065159410238266
1761507784905315000,2.091315185546875,0.08958525210618973,-0.04985455051064491,-0.08256722241640091
1761507784915287000,2.101287109375,0.08703287690877914,-0.0644204393029213,-0.06920800358057022
1761507784925259000,2.111259033203125,0.09083931148052216,-0.09171004593372345,-0.05358937382698059
1761507784935231200,2.121231201171875,0.10047968477010727,-0.1337411254644394,-0.03472566977143288
1761507784945202200,2.1312021484375,0.10514417290687561,-0.1721821427345276,-0.021356215700507164
1761507784955174100,2.141174072265625,0.1064499244093895,-0.199555441737175,-0.006386320106685162
1761507784965146000,2.15114599609375,0.1070978194475174,-0.2100132554769516,0.014299853704869747
1761507784975118000,2.1611181640625,0.10377819091081619,-0.2135549932718277,0.036612618714571
1761507784985090300,2.17109033203125,0.08916336297988892,-0.1989312469959259,0.057515256106853485
1761507784995062000,2.18106201171875,0.061370085924863815,-0.17781557142734528,0.06295742839574814
1761507785005033200,2.191033203125,0.032987356185913086,-0.14578227698802948,0.052471112459897995
1761507785015005200,2.201005126953125,0.005893154069781303,-0.10154131799936295,0.036888159811496735
1761507785024977200,2.21097705078125,-0.013754673302173615,-0.07397866249084473,0.010871930047869682
1761507785034949000,2.22094921875,-0.03299148380756378,-0.06130015105009079,-0.009946266189217567
1761507785044921000,2.230921142578125,-0.044502269476652145,-0.05213174223899841,-0.021543290466070175
1761507785054893300,2.240893310546875,-0.05130797624588013,-0.04496544227004051,-0.011919423937797546
1761507785064864300,2.2508642578125,-0.0499371774494648,-0.028335560113191605,0.010247909463942051
1761507785074836200,2.260836181640625,-0.04578877240419388,-0.013775259256362915,0.04625171422958374
1761507785084808200,2.27080810546875,-0.033093661069869995,0.0008249988895840943,0.09032688289880753
1761507785094780200,2.2807802734375,-0.015714935958385468,0.011333832517266273,0.12486221641302109
1761507785104752000,2.290752197265625,0.0028663473203778267,0.02343854494392872,0.15136630833148956
1761507785114724000,2.30072412109375,0.011334666982293129,0.03403446450829506,0.16819030046463013
1761507785124695000,2.310695068359375,0.013085179962217808,0.03322029113769531,0.15905308723449707
1761507785134667300,2.320667236328125,0.008624118752777576,0.021252047270536423,0.13670358061790466
1761507785144639200,2.33063916015625,0.013099579140543938,-0.003612886182963848,0.10108011960983276
1761507785154611200,2.340611083984375,0.023004939779639244,-0.006703484337776899,0.05960697680711746
1761507785164583200,2.350583251953125,0.0441025011241436,-0.000546256429515779,0.01579025760293007
1761507785174555100,2.36055517578125,0.07426866143941879,-0.031902849674224854,-0.03643086925148964
1761507785184527000,2.370527099609375,0.1042657271027565,-0.10379306226968765,-0.08191490918397903
1761507785194498000,2.380498046875,0.10436373203992844,-0.21134987473487854,-0.10663596540689468
1761507785204470300,2.39047021484375,0.06422169506549835,-0.2993502616882324,-0.10608804225921631
1761507785214442200,2.400442138671875,-0.00452594505622983,-0.34478938579559326,-0.08976899087429047
1761507785224414200,2.410414306640625,-0.061119772493839264,-0.3398652672767639,-0.06901885569095612
1761507785234386200,2.42038623046875,-0.09629108011722565,-0.2806679904460907,-0.0277547724545002
1761507785244358100,2.430358154296875,-0.10777157545089722,-0.17829938232898712,0.031000107526779175
1761507785254329000,2.4403291015625,-0.11720874905586243,-0.04956989735364914,0.095680832862854
1761507785264301000,2.450301025390625,-0.13058976829051971,0.09470994025468826,0.16173268854618073
1761507785274273300,2.460273193359375,-0.15298429131507874,0.25699979066848755,0.2234511822462082
1761507785284245200,2.470245361328125,-0.19037261605262756,0.40074077248573303,0.2716509997844696
1761507785294217200,2.48021728515625,-0.23364737629890442,0.48231151700019836,0.281974732875824
1761507785304189200,2.490189208984375,-0.2650845944881439,0.4679000675678253,0.2516981065273285
1761507785314160000,2.50016015625,-0.28465187549591064,0.3731706440448761,0.2046927809715271
1761507785324132000,2.510132080078125,-0.3014713227748871,0.2453870177268982,0.1504068225622177
1761507785334104000,2.52010400390625,-0.33709216117858887,0.13453374803066254,0.10829053074121475
1761507785344076000,2.530075927734375,-0.3936960995197296,0.07646986097097397,0.07430111616849899
1761507785354048300,2.54004833984375,-0.4630911648273468,0.07055045664310455,0.04433735832571983
1761507785364020200,2.550020263671875,-0.5016195178031921,0.0917627215385437,0.015557767823338509
1761507785373991200,2.5599912109375,-0.5019944906234741,0.17059709131717682,-0.021181339398026466
1761507785383963100,2.569963134765625,-0.4668095111846924,0.23740637302398682,-0.0392080582678318
1761507785393935000,2.57993505859375,-0.4237035810947418,0.2696945369243622,-0.026048844680190086
1761507785403907000,2.589906982421875,-0.38662177324295044,0.2775004208087921,0.03391336277127266
1761507785413879000,2.599879150390625,-0.36639082431793213,0.23052386939525604,0.11998539417982101
1761507785423851300,2.609851318359375,-0.3576940596103668,0.15003322064876556,0.2310628890991211
1761507785433822200,2.619822265625,-0.36574453115463257,0.07183855026960373,0.34855252504348755
1761507785443794200,2.629794189453125,-0.3828393518924713,0.03351328894495964,0.4530661702156067
1761507785453766100,2.63976611328125,-0.40730020403862,0.03241739794611931,0.5143694877624512
1761507785463738000,2.649738037109375,-0.43373239040374756,0.06551758944988251,0.5244534015655518
1761507785473710000,2.6597099609375,-0.4506186842918396,0.10958971083164215,0.4963738024234772
1761507785483682000,2.66968212890625,-0.4610307216644287,0.15537792444229126,0.4426141381263733
1761507785493653000,2.679653076171875,-0.46774882078170776,0.19017159938812256,0.3766750693321228
1761507785503625200,2.689625244140625,-0.46530020236968994,0.19487062096595764,0.30070003867149353
1761507785513597200,2.69959716796875,-0.4516797363758087,0.16193610429763794,0.23348240554332733
1761507785523569200,2.709569091796875,-0.4390873908996582,0.10614577680826187,0.17474393546581268
1761507785533541000,2.719541015625,-0.4282779097557068,0.007899370975792408,0.13562849164009094
1761507785543512000,2.729511962890625,-0.4136083126068115,-0.10502026230096817,0.11225266754627228
1761507785553484300,2.739484375,-0.3844458758831024,-0.22572271525859833,0.099422886967659
1761507785563456000,2.7494560546875,-0.3376694917678833,-0.3344235420227051,0.10516306757926941
1761507785573428200,2.75942822265625,-0.2926899790763855,-0.42013952136039734,0.10334199666976929
1761507785583400200,2.769400146484375,-0.26125144958496094,-0.4674633741378784,0.0848362073302269
1761507785593372200,2.7793720703125,-0.2541607916355133,-0.47618815302848816,0.04145357385277748
1761507785603343400,2.78934326171875,-0.27657291293144226,-0.4469265639781952,-0.0424637570977211
1761507785613315000,2.799315185546875,-0.32910165190696716,-0.3834682106971741,-0.14992551505565643
1761507785623287300,2.809287353515625,-0.3851988613605499,-0.2806032598018646,-0.2565004527568817
1761507785633259000,2.819259033203125,-0.41813844442367554,-0.16110777854919434,-0.3165193200111389
1761507785643231700,2.829231689453125,-0.42213043570518494,-0.04289451241493225,-0.33440664410591125
1761507785653203700,2.83920361328125,-0.3960293233394623,0.0456305593252182,-0.3109862506389618
1761507785663174700,2.849174560546875,-0.359619140625,0.10365400463342667,-0.26338067650794983
1761507785673146600,2.859146728515625,-0.316463440656662,0.15393154323101044,-0.19303807616233826
1761507785683118800,2.869118896484375,-0.2651726007461548,0.18359880149364471,-0.12547138333320618
1761507785693090600,2.879090576171875,-0.21427135169506073,0.18580150604248047,-0.06537448614835739
1761507785703062800,2.889062744140625,-0.16530193388462067,0.15544545650482178,-0.015469511970877647
1761507785713034800,2.89903466796875,-0.12801554799079895,0.08267911523580551,0.01815076544880867
1761507785723005700,2.909005615234375,-0.10594043135643005,-0.010959488339722157,0.04238119348883629
1761507785732977700,2.918977783203125,-0.09062459319829941,-0.0774514302611351,0.06025180220603943
1761507785742949600,2.92894970703125,-0.08100392669439316,-0.09832661598920822,0.06916140764951706
1761507785752921900,2.938921875,-0.07400380820035934,-0.07990632951259613,0.06264732033014297
1761507785762893600,2.9488935546875,-0.06362839043140411,-0.019577493891119957,0.045194514095783234
1761507785772865800,2.95886572265625,-0.043628592044115067,0.04455169290304184,0.0216353926807642
1761507785782836700,2.968836669921875,-0.023316998034715652,0.07488104701042175,-0.011467722244560719
1761507785792808700,2.97880859375,-0.004735324066132307,0.04984759911894798,-0.042292747646570206
1761507785802780700,2.98878076171875,0.004569260869175196,0.0016008832026273012,-0.05663368105888367
1761507785812752600,2.998752685546875,0.01608450338244438,-0.045683007687330246,-0.06144334748387337
1761507785822724900,3.008724853515625,0.023244624957442284,-0.07628682255744934,-0.056568630039691925
1761507785832696600,3.018696533203125,0.028611427173018456,-0.09252119064331055,-0.05930209904909134
1761507785842667800,3.028667724609375,0.03260783851146698,-0.08446961641311646,-0.07140697538852692
1761507785852639700,3.0386396484375,0.03797623887658119,-0.05578736960887909,-0.09544413536787033
1761507785862611700,3.04861181640625,0.04268532991409302,-0.025145292282104492,-0.12804298102855682
1761507785872583700,3.058583740234375,0.05910105258226395,-0.0022722017019987106,-0.15527833998203278
1761507785882555600,3.0685556640625,0.07893934845924377,0.021470507606863976,-0.16631925106048584
1761507785892527900,3.07852783203125,0.09251747280359268,0.04668957367539406,-0.1622568666934967
1761507785902498800,3.088498779296875,0.08492077887058258,0.08269403874874115,-0.15575779974460602
1761507785912470800,3.098470703125,0.06130918487906456,0.1213839128613472,-0.1405511498451233
1761507785922442800,3.10844287109375,0.026199085637927055,0.1573588252067566,-0.12210264801979065
1761507785932414700,3.118414794921875,-0.004153227899223566,0.19008773565292358,-0.10945156216621399
1761507785942386700,3.12838671875,-0.014531072229146957,0.2227936089038849,-0.11246849596500397
1761507785952358700,3.138358642578125,-0.0024286024272441864,0.24480010569095612,-0.1261076182126999
1761507785962329600,3.14832958984375,0.022925719618797302,0.24898165464401245,-0.14633974432945251
1761507785972301800,3.1583017578125,0.04758286103606224,0.22350932657718658,-0.17608726024627686
1761507785982273800,3.168273681640625,0.06719141453504562,0.17215515673160553,-0.19441767036914825
1761507785992245800,3.178245849609375,0.09299691766500473,0.10372550785541534,-0.1901978999376297
1761507786002217700,3.1882177734375,0.12787266075611115,0.04137700796127319,-0.15731404721736908
1761507786012189700,3.198189697265625,0.16579420864582062,-0.004266909323632717,-0.10086674988269806
1761507786022161000,3.208160888671875,0.20751288533210754,-0.026024358347058296,-0.0369214192032814
1761507786032132600,3.218132568359375,0.24317607283592224,-0.019596286118030548,0.014272525906562805
1761507786042104800,3.228104736328125,0.27608606219291687,-0.008103575557470322,0.052252788096666336
1761507786052076800,3.238076904296875,0.30851882696151733,-0.004990340676158667,0.06749751418828964
1761507786062048800,3.248048828125,0.34136196970939636,-0.019125821068882942,0.06942448765039444
1761507786072020700,3.258020751953125,0.3610997200012207,-0.07752788066864014,0.047373514622449875
1761507786081991700,3.26799169921875,0.3539409935474396,-0.17564894258975983,-0.00042197469156235456
1761507786091963600,3.277963623046875,0.32041552662849426,-0.2724364697933197,-0.0615905225276947
1761507786101935600,3.287935546875,0.2771342694759369,-0.32372522354125977,-0.1283416748046875
1761507786111907800,3.297907958984375,0.23736661672592163,-0.33701199293136597,-0.18201075494289398
1761507786121879800,3.3078798828125,0.20504164695739746,-0.30350232124328613,-0.20635956525802612
1761507786131851800,3.317851806640625,0.1884421557188034,-0.21293380856513977,-0.16834720969200134
1761507786141822700,3.32782275390625,0.17521575093269348,-0.061726171523332596,-0.08116976916790009
1761507786151794700,3.337794677734375,0.17026786506175995,0.12172435224056244,0.04691736400127411
1761507786161766700,3.3477666015625,0.18842291831970215,0.29509902000427246,0.163886159658432
1761507786171738600,3.357738525390625,0.2397521436214447,0.42439788579940796,0.258583128452301
1761507786181710800,3.3677109375,0.296822190284729,0.4584236741065979,0.32366782426834106
1761507786191682800,3.377682861328125,0.35672682523727417,0.4084867537021637,0.3587925434112549
1761507786201653800,3.38765380859375,0.40641024708747864,0.29425063729286194,0.36839166283607483
1761507786211625700,3.397625732421875,0.4453062415122986,0.14764443039894104,0.36212044954299927
1761507786221597700,3.40759765625,0.47266796231269836,-0.007466496899724007,0.34553056955337524
1761507786231569700,3.417569580078125,0.4826495051383972,-0.15870821475982666,0.31993547081947327
1761507786241541600,3.427541748046875,0.4886222779750824,-0.2937465012073517,0.27961963415145874
1761507786251513600,3.437513671875,0.4815143048763275,-0.42480677366256714,0.2345981001853943
1761507786261484500,3.447484619140625,0.4723316431045532,-0.5317649841308594,0.20073921978473663
1761507786271456800,3.457456787109375,0.438982754945755,-0.5814627408981323,0.1665727198123932
1761507786281428700,3.4674287109375,0.3862837553024292,-0.5826957821846008,0.12552903592586517
1761507786291400700,3.477400634765625,0.3254166841506958,-0.526042640209198,0.058499664068222046
1761507786301372700,3.48737255859375,0.25010937452316284,-0.40106064081192017,-0.033863168209791183
1761507786311344600,3.4973447265625,0.1750391274690628,-0.2531801462173462,-0.14592047035694122
1761507786321315800,3.50731591796875,0.1003786101937294,-0.10628721117973328,-0.24597427248954773
1761507786331287600,3.51728759765625,0.051605746150016785,0.012671397998929024,-0.3091047704219818
1761507786341259800,3.527259765625,0.03522256761789322,0.0960710272192955,-0.3113677501678467
1761507786351231700,3.537231689453125,0.035659059882164,0.1356746256351471,-0.267593115568161
1761507786361203700,3.54720361328125,0.054457567632198334,0.14499446749687195,-0.1800422966480255
1761507786371175700,3.55717578125,0.08269799500703812,0.11536546051502228,-0.0844646543264389
1761507786381146600,3.567146728515625,0.1191743016242981,0.06464726477861404,0.007010065019130707
1761507786391118800,3.577118896484375,0.14804697036743164,0.007329911459237337,0.07702270895242691
1761507786401090600,3.587090576171875,0.15852908790111542,-0.0273056048899889,0.11915712803602219
1761507786411062800,3.597062744140625,0.14849989116191864,-0.03133523464202881,0.12989020347595215
1761507786421034800,3.60703466796875,0.11955065280199051,-0.012558993883430958,0.1137724369764328
1761507786431006700,3.6170068359375,0.09258055686950684,0.024298621341586113,0.0764136090874672
1761507786440978000,3.62697802734375,0.07510259002447128,0.05765791982412338,0.029485903680324554
1761507786450949600,3.63694970703125,0.07428392767906189,0.07998133450746536,-0.018524764105677605
1761507786460921900,3.646921875,0.07912873476743698,0.08578893542289734,-0.06162093207240105
1761507786470893600,3.6568935546875,0.08803967386484146,0.05181685462594032,-0.09545052796602249
1761507786480865800,3.66686572265625,0.09850355237722397,-0.01010420173406601,-0.1141665056347847
1761507786490837800,3.676837646484375,0.10205168277025223,-0.09346593916416168,-0.11490499973297119
1761507786500808700,3.68680859375,0.09715010225772858,-0.16995741426944733,-0.10998760908842087
1761507786510781000,3.696781005859375,0.0982169657945633,-0.2254267930984497,-0.09496764838695526
1761507786520752600,3.706752685546875,0.09468543529510498,-0.23739424347877502,-0.08157773315906525
1761507786530724900,3.716724853515625,0.0882166177034378,-0.2139967828989029,-0.0902138352394104
1761507786540696600,3.726696533203125,0.07878687232732773,-0.16571493446826935,-0.11066190153360367
1761507786550668800,3.736668701171875,0.06249099224805832,-0.11483285576105118,-0.14658847451210022
1761507786560639700,3.7466396484375,0.037575218826532364,-0.06422973424196243,-0.17405429482460022
1761507786570611700,3.75661181640625,0.009945189580321312,-0.01669151708483696,-0.20606735348701477
1761507786580584000,3.766583984375,-0.02163088135421276,0.014783957973122597,-0.22932355105876923
1761507786590555600,3.7765556640625,-0.04471942037343979,0.02243655174970627,-0.242268905043602
1761507786600528000,3.78652783203125,-0.06626074016094208,0.03890923038125038,-0.24435093998908997
1761507786610498600,3.79649853515625,-0.07764948159456253,0.06230377033352852,-0.2395668476819992
1761507786620470800,3.806470703125,-0.08278441429138184,0.09954699873924255,-0.23936377465724945
1761507786630442500,3.8164423828125,-0.07979021966457367,0.1359683871269226,-0.24018588662147522
1761507786640414700,3.826414794921875,-0.07713115960359573,0.17380131781101227,-0.24996088445186615
1761507786650386700,3.83638671875,-0.06971824914216995,0.20474912226200104,-0.25850242376327515
1761507786660358700,3.846358642578125,-0.05436219647526741,0.2192947417497635,-0.26311007142066956
1761507786670329900,3.856329833984375,-0.03412510082125664,0.21103841066360474,-0.26038697361946106
1761507786680301600,3.866301513671875,-0.013377921655774117,0.17103984951972961,-0.25505951046943665
1761507786690273800,3.876273681640625,0.01836988888680935,0.10235346853733063,-0.25020724534988403
1761507786700245500,3.88624560546875,0.05734620988368988,0.01763331890106201,-0.2422572821378708
1761507786710217700,3.8962177734375,0.08591260761022568,-0.06994606554508209,-0.23542708158493042
1761507786720189700,3.906189697265625,0.11300656199455261,-0.1329871267080307,-0.21710842847824097
1761507786730160600,3.91616064453125,0.12245811522006989,-0.14564406871795654,-0.1985083818435669
1761507786740132900,3.9261328125,0.12230969220399857,-0.12222158908843994,-0.16877515614032745
1761507786750104600,3.9361044921875,0.11341340094804764,-0.08032873272895813,-0.14890503883361816
1761507786760076800,3.946076904296875,0.09900395572185516,-0.0272685419768095,-0.12998807430267334
1761507786770048500,3.956048583984375,0.08618589490652084,0.010488690808415413,-0.1148645207285881
1761507786780020700,3.966020751953125,0.06979586184024811,0.03154514357447624,-0.10251970589160919
1761507786789991700,3.97599169921875,0.050217367708683014,0.03341202065348625,-0.0902545154094696
1761507786799963600,3.985963623046875,0.03592173382639885,0.01157424971461296,-0.07373169809579849
1761507786809936000,3.995935791015625,0.024784395471215248,-0.020068097859621048,-0.05723049119114876
1761507786819907600,4.005907470703125,0.019862784072756767,-0.04743580147624016,-0.03822198510169983
1761507786829879800,4.0158798828125,0.01613675430417061,-0.06593118607997894,-0.008797252550721169
1761507786839850800,4.025850830078125,0.009871969930827618,-0.07210823148488998,0.02309397980570793
1761507786849822700,4.03582275390625,-0.008948322385549545,-0.07552427053451538,0.04686056077480316
1761507786859794700,4.045794677734375,-0.03486594185233116,-0.08156085759401321,0.07569407671689987
1761507786869766700,4.0557666015625,-0.06907104700803757,-0.08050811290740967,0.09117556363344193
1761507786879737600,4.065737548828125,-0.11070592701435089,-0.0741729885339737,0.09455126523971558
1761507786889709800,4.075709716796875,-0.14521943032741547,-0.058720264583826065,0.07768147438764572
1761507786899681800,4.085681884765625,-0.1723969429731369,-0.043691396713256836,0.06453687697649002
1761507786909653800,4.09565380859375,-0.18985795974731445,-0.03308189660310745,0.05009003356099129
1761507786919625700,4.105625732421875,-0.2000160962343216,-0.025802526623010635,0.04631130024790764
1761507786929597700,4.11559765625,-0.2022387683391571,-0.014076627790927887,0.05828886851668358
1761507786939568600,4.125568603515625,-0.20733223855495453,-0.005727668758481741,0.08845679461956024
1761507786949540600,4.13554052734375,-0.21909062564373016,-0.003996348008513451,0.11987943202257156
1761507786959512800,4.145512939453125,-0.23433415591716766,-0.010540910065174103,0.14666146039962769
1761507786969484800,4.15548486328125,-0.24346107244491577,-0.004075286909937859,0.17033323645591736
1761507786979456800,4.165456787109375,-0.2501448094844818,0.008988848887383938,0.18422961235046387
1761507786989428700,4.1754287109375,-0.25472572445869446,0.022484684363007545,0.18782007694244385
1761507786999399700,4.185399658203125,-0.2630157768726349,0.034067846834659576,0.18266645073890686
1761507787009371600,4.19537158203125,-0.27440211176872253,0.008466878905892372,0.16094118356704712
1761507787019343600,4.205343505859375,-0.2836191654205322,-0.0747012048959732,0.11390741169452667
1761507787029315600,4.215315673828125,-0.2887606918811798,-0.1685779094696045,0.05257188528776169
1761507787039287800,4.225287841796875,-0.2936137020587921,-0.2552354335784912,-0.004013079218566418
1761507787049258800,4.2352587890625,-0.31304651498794556,-0.32606565952301025,-0.055772148072719574
1761507787059230700,4.245230712890625,-0.33893096446990967,-0.3662654459476471,-0.09786446392536163
1761507787069202700,4.25520263671875,-0.36560970544815063,-0.37894076108932495,-0.12033648788928986
1761507787079174700,4.265174560546875,-0.37589746713638306,-0.3691766560077667,-0.11696211993694305
1761507787089146600,4.275146728515625,-0.3825575113296509,-0.3246491551399231,-0.08433893322944641
1761507787099118600,4.28511865234375,-0.38970890641212463,-0.2475053071975708,-0.030804691836237907
1761507787109089500,4.295089599609375,-0.397670716047287,-0.1186613067984581,0.027042629197239876
1761507787119061800,4.305061767578125,-0.40169769525527954,0.04989242181181908,0.08228132128715515
1761507787129033700,4.31503369140625,-0.40302395820617676,0.2069195955991745,0.10827537626028061
1761507787139005700,4.325005615234375,-0.3965882658958435,0.30105042457580566,0.09653855860233307
1761507787148977700,4.334977783203125,-0.37313780188560486,0.3157143294811249,0.07169473171234131
1761507787158949600,4.34494970703125,-0.3240106403827667,0.26988813281059265,0.05055202543735504
1761507787168920800,4.3549208984375,-0.25513729453086853,0.1841641664505005,0.04404991492629051
1761507787178892500,4.364892578125,-0.1762738972902298,0.06994254887104034,0.06284047663211823
1761507787188864800,4.37486474609375,-0.1052045151591301,-0.04416618496179581,0.1086425855755806
1761507787198836700,4.384836669921875,-0.061110466718673706,-0.13793769478797913,0.160812109708786
1761507787208808700,4.39480859375,-0.04718267172574997,-0.20549622178077698,0.2121506780385971
1761507787218780700,4.40478076171875,-0.04374754801392555,-0.24459142982959747,0.244816392660141
1761507787228751600,4.414751708984375,-0.036058999598026276,-0.26024389266967773,0.23937875032424927
1761507787238724600,4.424724609375,-0.006242974661290646,-0.26808473467826843,0.19062423706054688
1761507787248696800,4.43469677734375,0.02998640388250351,-0.2576792240142822,0.11949600279331207
1761507787258667800,4.444667724609375,0.0435139425098896,-0.2400059998035431,0.07661893963813782
1761507787268639700,4.4546396484375,0.004391043446958065,-0.21956942975521088,0.08136975765228271
1761507787278611700,4.46461181640625,-0.08785901963710785,-0.19511032104492188,0.127397820353508
1761507787288583700,4.474583740234375,-0.2003304362297058,-0.15645401179790497,0.17999525368213654
1761507787298555600,4.4845556640625,-0.29871702194213867,-0.09755102545022964,0.22150631248950958
1761507787308527600,4.494527587890625,-0.35970979928970337,-0.014507804065942764,0.22201071679592133
1761507787318498600,4.50449853515625,-0.38043662905693054,0.07010446488857269,0.1775428205728531
1761507787328470800,4.514470703125,-0.35888418555259705,0.11213020980358124,0.1069117933511734
1761507787338442800,4.52444287109375,-0.3064097464084625,0.10169126093387604,0.04092072322964668
1761507787348414700,4.534414794921875,-0.26778751611709595,0.04511426016688347,0.0005993982776999474
1761507787358386700,4.54438671875,-0.2534526288509369,-0.0255195964127779,-0.014767570421099663
1761507787368358700,4.554358642578125,-0.26239287853240967,-0.07432202994823456,-0.013598443940281868
1761507787378329900,4.564329833984375,-0.27131184935569763,-0.09128405898809433,-0.003884491976350546
1761507787388301600,4.574301513671875,-0.2642994821071625,-0.08405091613531113,0.0029457174241542816
1761507787398273800,4.584273681640625,-0.25542154908180237,-0.07612492889165878,0.006269220728427172
1761507787408245800,4.594245849609375,-0.24727359414100647,-0.04608553275465965,0.006529145408421755
1761507787418217700,4.6042177734375,-0.23090986907482147,-0.013049615547060966,0.014232535846531391
1761507787428189000,4.61418896484375,-0.21645475924015045,0.03704817220568657,0.026249250397086143
1761507787438160600,4.62416064453125,-0.20671051740646362,0.0938270166516304,0.03756920248270035
1761507787448132900,4.6341328125,-0.20111706852912903,0.1387854367494583,0.04811318963766098
1761507787458104600,4.6441044921875,-0.18919411301612854,0.15473566949367523,0.060538291931152344
1761507787468076800,4.654076904296875,-0.17368119955062866,0.15095824003219604,0.08912812918424606
1761507787478048800,4.664048828125,-0.14779849350452423,0.15296605229377747,0.12259229272603989
1761507787488019700,4.674019775390625,-0.12642556428909302,0.15897999703884125,0.1525547206401825
1761507787497991700,4.68399169921875,-0.10231958329677582,0.1686602681875229,0.1856696605682373
1761507787507963600,4.693963623046875,-0.08021561056375504,0.17491097748279572,0.21549706161022186
1761507787517935900,4.703935791015625,-0.054964639246463776,0.16697251796722412,0.23175999522209167
1761507787527907600,4.713907470703125,-0.04239904135465622,0.1493849903345108,0.23046915233135223
1761507787537879800,4.7238798828125,-0.03907623887062073,0.13240954279899597,0.20733343064785004
1761507787547850500,4.7338505859375,-0.03200181573629379,0.11793100088834763,0.18028104305267334
1761507787557822700,4.74382275390625,-0.020711254328489304,0.10158424824476242,0.1447681337594986
1761507787567794700,4.753794677734375,-0.0033197468146681786,0.08127658069133759,0.11968513578176498
1761507787577766700,4.7637666015625,0.008949258364737034,0.062413934618234634,0.09860949218273163
1761507787587739000,4.77373876953125,0.018299883231520653,0.04477928206324577,0.08990761637687683
1761507787597710600,4.783710693359375,0.025143638253211975,0.03895798325538635,0.0811920017004013
1761507787607681800,4.793681884765625,0.024406209588050842,0.03979608044028282,0.06668496876955032
1761507787617653500,4.803653564453125,0.02212565578520298,0.049276139587163925,0.035997819155454636
1761507787627625700,4.813625732421875,0.018191101029515266,0.0676540806889534,-0.011823762208223343
1761507787637597700,4.82359765625,0.02048136666417122,0.11393040418624878,-0.06664273142814636
1761507787647569200,4.833569091796875,0.023629222065210342,0.15750370919704437,-0.1146019995212555
1761507787657541000,4.843541015625,0.03929814696311951,0.1731209009885788,-0.15062469244003296
1761507787667512000,4.853511962890625,0.05879781022667885,0.17490282654762268,-0.1689283400774002
1761507787677484000,4.863484130859375,0.08027004450559616,0.17086637020111084,-0.1602332592010498
1761507787687456300,4.873456298828125,0.0925685241818428,0.17146186530590057,-0.14447933435440063
1761507787697428000,4.883427978515625,0.09515095502138138,0.17742611467838287,-0.1332276463508606
1761507787707400200,4.893400146484375,0.095458023250103,0.18912404775619507,-0.12455481290817261
1761507787717372200,4.9033720703125,0.09450361132621765,0.20534354448318481,-0.12830398976802826
1761507787727343000,4.913343017578125,0.10344703495502472,0.21622627973556519,-0.12884727120399475
1761507787737315000,4.923315185546875,0.12350122630596161,0.21293233335018158,-0.1275109201669693
1761507787747287000,4.933287109375,0.1583702564239502,0.1973179578781128,-0.11427900195121765
1761507787757259000,4.943259033203125,0.20082996785640717,0.15901993215084076,-0.08187414705753326
1761507787767231000,4.95323095703125,0.23966525495052338,0.12450884282588959,-0.03375242277979851
1761507787777202200,4.9632021484375,0.2638283967971802,0.0921635776758194,0.007583710364997387
1761507787787174000,4.973173828125,0.2728131115436554,0.05620371177792549,0.03177027031779289
1761507787797146000,4.98314599609375,0.28495749831199646,0.02096450701355934,0.018722765147686005
1761507787807118000,4.9931181640625,0.3024722933769226,-0.003189033828675747,-0.005425979848951101
1761507787817090000,5.003090087890625,0.331656813621521,-0.021813862025737762,-0.032902657985687256
1761507787827062000,5.01306201171875,0.3780837059020996,-0.04109115153551102,-0.04118295758962631
1761507787837033000,5.023032958984375,0.4445687532424927,-0.07378815114498138,-0.02126903086900711
1761507787847005200,5.033005126953125,0.509392499923706,-0.11294221132993698,0.013920115306973457
1761507787856977000,5.042976806640625,0.539863646030426,-0.19051474332809448,0.03235684707760811
1761507787866949000,5.05294921875,0.5269861817359924,-0.2703733444213867,0.004278607666492462
1761507787876921000,5.062921142578125,0.4808351695537567,-0.35395413637161255,-0.059780947864055634
1761507787886893000,5.07289306640625,0.4283900558948517,-0.40593451261520386,-0.13537530601024628
1761507787896864300,5.0828642578125,0.3865623474121094,-0.4071506857872009,-0.19499944150447845
1761507787906836000,5.0928359375,0.3184716999530792,-0.3747008740901947,-0.21245166659355164
1761507787916808200,5.10280810546875,0.23333707451820374,-0.32820355892181396,-0.18698693811893463
1761507787926780000,5.11277978515625,0.1561104655265808,-0.2204294353723526,-0.09784267842769623
1761507787936752000,5.122752197265625,0.10035862028598785,-0.07255878299474716,0.025212623178958893
1761507787946724000,5.13272412109375,0.07914654165506363,0.09956078231334686,0.16296516358852386
1761507787956695000,5.142695068359375,0.09114209562540054,0.26572805643081665,0.2842956483364105
1761507787966667300,5.152667236328125,0.13908325135707855,0.37609606981277466,0.3713951110839844
1761507787976639000,5.162638916015625,0.1893712729215622,0.4135739505290985,0.41473492980003357
1761507787986611200,5.172611083984375,0.23351158201694489,0.36619019508361816,0.4304329454898834
1761507787996583000,5.1825830078125,0.2586633265018463,0.2815626859664917,0.4276885688304901
1761507788006555100,5.19255517578125,0.26388391852378845,0.16252154111862183,0.4217582643032074
1761507788016526000,5.202526123046875,0.2658613622188568,0.024778254330158234,0.41368332505226135
1761507788026498000,5.212498046875,0.2654709219932556,-0.13363482058048248,0.40275663137435913
1761507788036470300,5.22247021484375,0.26596879959106445,-0.27831777930259705,0.3952295184135437
1761507788046442000,5.23244189453125,0.2641810178756714,-0.38357070088386536,0.3767852485179901
1761507788056414200,5.242414306640625,0.2521728277206421,-0.46621638536453247,0.3462148606777191
1761507788066386000,5.252385986328125,0.22812184691429138,-0.5046229362487793,0.3026231527328491
1761507788076357000,5.262357177734375,0.18855857849121094,-0.49724021553993225,0.25250717997550964
1761507788086329000,5.2723291015625,0.1430739164352417,-0.44588354229927063,0.20348717272281647
1761507788096301000,5.282301025390625,0.10450122505426407,-0.3573973476886749,0.1605272889137268
1761507788106273300,5.292273193359375,0.07673723250627518,-0.23226657509803772,0.11179302632808685
1761507788116245000,5.302244873046875,0.05264946073293686,-0.08393459767103195,0.06131719797849655
1761507788126216200,5.31221630859375,0.015091698616743088,0.06762323528528214,0.013813595287501812
1761507788136188000,5.32218798828125,-0.020489966496825218,0.18313457071781158,-0.028586894273757935
1761507788146160000,5.33216015625,-0.042783819139003754,0.23394635319709778,-0.042369283735752106
1761507788156132000,5.342132080078125,-0.05744517222046852,0.24032524228096008,-0.027542706578969955
1761507788166104000,5.35210400390625,-0.06753456592559814,0.20592492818832397,0.0012756253127008677
1761507788176076300,5.362076171875,-0.07429302483797073,0.16795113682746887,0.026282386854290962
1761507788186047000,5.372046875,-0.06690994650125504,0.15415330231189728,0.04324033111333847
1761507788196019200,5.382019287109375,-0.039690323173999786,0.16325390338897705,0.043273258954286575
1761507788205991000,5.391990966796875,-0.006821858696639538,0.17326605319976807,0.01905260980129242
1761507788215963100,5.401963134765625,0.022833257913589478,0.1756623089313507,-0.023703059181571007
1761507788225935000,5.41193505859375,0.0422852523624897,0.18617913126945496,-0.07154594361782074
1761507788235907000,5.421906982421875,0.04493840038776398,0.1805717796087265,-0.12906931340694427
1761507788245878000,5.4318779296875,0.04440417140722275,0.1588561087846756,-0.1753385365009308
1761507788255850000,5.44185009765625,0.04352850839495659,0.10980340093374252,-0.2040301412343979
1761507788265822200,5.451822265625,0.04935097694396973,0.046018555760383606,-0.21177168190479279
1761507788275794000,5.4617939453125,0.05076626315712929,-0.013034101575613022,-0.192697212100029
1761507788285766100,5.47176611328125,0.05660710856318474,-0.030550245195627213,-0.1621859073638916
1761507788295737900,5.48173779296875,0.06099097803235054,-0.03376133367419243,-0.13912656903266907
1761507788305709000,5.491708984375,0.06534790992736816,-0.06951640546321869,-0.145783931016922
1761507788315681000,5.501680908203125,0.06495754420757294,-0.13862426578998566,-0.17401936650276184
1761507788325653000,5.511653076171875,0.04407409951090813,-0.2303890734910965,-0.22557976841926575
1761507788335625200,5.521625244140625,0.004291387274861336,-0.30858808755874634,-0.29215261340141296
1761507788345597000,5.531596923828125,-0.04405510425567627,-0.3326635956764221,-0.3497099280357361
1761507788355568000,5.541568115234375,-0.07561445236206055,-0.2664411962032318,-0.3826419413089752
1761507788365540000,5.5515400390625,-0.08186887949705124,-0.12831661105155945,-0.39042824506759644
1761507788375512000,5.561511962890625,-0.06971888244152069,0.03833991289138794,-0.38826632499694824
1761507788385484000,5.571484130859375,-0.04300977289676666,0.181253120303154,-0.3758549094200134
1761507788395456000,5.5814560546875,-0.01062057539820671,0.2508646547794342,-0.35212138295173645
1761507788405428200,5.59142822265625,0.02325882762670517,0.24626486003398895,-0.3065653443336487
1761507788415399200,5.601399169921875,0.04398021101951599,0.19732382893562317,-0.25191837549209595
1761507788425371100,5.61137109375,0.06215894967317581,0.12753117084503174,-0.19476136565208435
1761507788435343000,5.621343017578125,0.07847738265991211,0.06905028969049454,-0.13678309321403503
1761507788445315000,5.631315185546875,0.09297509491443634,0.02319704368710518,-0.11160023510456085
1761507788455287000,5.641287109375,0.10791652649641037,-0.0014439584920182824,-0.0888708084821701
1761507788465259000,5.651259033203125,0.11907463520765305,0.0006274481420405209,-0.08463238924741745
1761507788475230000,5.66122998046875,0.1295967698097229,0.028566449880599976,-0.08798780292272568
1761507788485202200,5.6712021484375,0.13763472437858582,0.05944846570491791,-0.09005920588970184
1761507788495174100,5.681174072265625,0.1405896693468094,0.09014036506414413,-0.10026092827320099
1761507788505146000,5.69114599609375,0.13692915439605713,0.09799163043498993,-0.1090669333934784
1761507788515118000,5.7011181640625,0.13130351901054382,0.08678895235061646,-0.12549391388893127
1761507788525090000,5.711090087890625,0.12524855136871338,0.049002956598997116,-0.13869094848632812
1761507788535061200,5.721061279296875,0.12262099236249924,0.004369968548417091,-0.13454532623291016
1761507788545033000,5.731032958984375,0.12221752852201462,-0.04253282770514488,-0.11056036502122879
1761507788555005200,5.741005126953125,0.12847796082496643,-0.07820335775613785,-0.06245563551783562
1761507788564977200,5.75097705078125,0.13892261683940887,-0.09004829823970795,-0.0054389555007219315
1761507788574949000,5.76094921875,0.144197478890419,-0.08020750433206558,0.04566127434372902
1761507788584920000,5.770920166015625,0.14477938413619995,-0.04896702617406845,0.08977067470550537
1761507788594892000,5.78089208984375,0.14007119834423065,-0.023300325497984886,0.1156764104962349
1761507788604864000,5.790864013671875,0.13213391602039337,-0.006770351901650429,0.12756049633026123
1761507788614836000,5.8008359375,0.10871560126543045,0.006660713814198971,0.14169546961784363
1761507788624808200,5.81080810546875,0.06256888061761856,0.014857657253742218,0.1527760773897171
1761507788634780200,5.8207802734375,-0.003442911896854639,0.02981216460466385,0.1629927158355713
1761507788644751000,5.830751220703125,-0.0830027163028717,0.04233328253030777,0.16763725876808167
1761507788654722800,5.840722900390625,-0.15597043931484222,0.050613947212696075,0.14940400421619415
1761507788664695000,5.850695068359375,-0.21071331202983856,0.043630070984363556,0.10284796357154846
1761507788674667000,5.8606669921875,-0.23805825412273407,0.04184191673994064,0.04938601702451706
1761507788684639000,5.870638916015625,-0.24050302803516388,0.042097847908735275,-0.0013059197226539254
1761507788694611200,5.880611083984375,-0.22853735089302063,0.042758259922266006,-0.027218306437134743
1761507788704582000,5.890581787109375,-0.2206895351409912,0.047919731587171555,-0.03929813951253891
1761507788714554000,5.90055419921875,-0.22810082137584686,0.05010449141263962,-0.03785371780395508
1761507788724525800,5.91052587890625,-0.24673974514007568,0.07664263248443604,-0.03363047540187836
1761507788734498000,5.920498046875,-0.27829137444496155,0.09621930122375488,-0.03152493014931679
1761507788744470000,5.930469970703125,-0.29608049988746643,0.06469705700874329,-0.0457502044737339
1761507788754441000,5.94044091796875,-0.30028778314590454,0.004821750335395336,-0.06730099022388458
1761507788764413200,5.9504130859375,-0.3051419258117676,-0.061941564083099365,-0.10570590943098068
1761507788774385000,5.960385009765625,-0.3190854787826538,-0.12386336922645569,-0.17502422630786896
1761507788784357000,5.970357177734375,-0.3409622609615326,-0.16525767743587494,-0.24634288251399994
1761507788794328800,5.980328857421875,-0.3685387670993805,-0.18518483638763428,-0.3093591034412384
1761507788804301000,5.990301025390625,-0.4106889069080353,-0.16991667449474335,-0.3520543575286865
1761507788814272000,6.00027197265625,-0.45813924074172974,-0.0967676192522049,-0.3579031527042389
1761507788824244000,6.010243896484375,-0.49743393063545227,0.03981925547122955,-0.3416714668273926
1761507788834216200,6.02021630859375,-0.5176235437393188,0.2178952395915985,-0.30185431241989136
1761507788844188000,6.03018798828125,-0.5112375617027283,0.4003196358680725,-0.2565059959888458
1761507788854160100,6.04016015625,-0.49522268772125244,0.5407906174659729,-0.21369977295398712
1761507788864131800,6.0501318359375,-0.49262183904647827,0.660335898399353,-0.18200655281543732
1761507788874103000,6.06010302734375,-0.496450275182724,0.7401831746101379,-0.15362264215946198
1761507788884075000,6.070074951171875,-0.49217191338539124,0.760054349899292,-0.13142278790473938
1761507788894047000,6.080046875,-0.48284465074539185,0.7206255197525024,-0.13078227639198303
1761507788904019200,6.090019287109375,-0.46424514055252075,0.6137470006942749,-0.1450813263654709
1761507788913991000,6.099990966796875,-0.43502742052078247,0.47649139165878296,-0.17089588940143585
1761507788923963100,6.109963134765625,-0.3946395218372345,0.3174031972885132,-0.2035294622182846
1761507788933934000,6.11993408203125,-0.32493120431900024,0.14471535384655,-0.224878191947937
1761507788943906000,6.129906005859375,-0.22854474186897278,-0.032878339290618896,-0.24047446250915527
1761507788953878000,6.1398779296875,-0.12243447452783585,-0.20224232971668243,-0.22297604382038116
1761507788963850000,6.14985009765625,-0.033365584909915924,-0.32739174365997314,-0.16771411895751953
1761507788973822200,6.159822265625,0.03063567727804184,-0.4074878692626953,-0.09618905931711197
1761507788983794000,6.1697939453125,0.08301392942667007,-0.44861480593681335,-0.028547964990139008
1761507788993765000,6.17976513671875,0.1532776653766632,-0.4924870729446411,0.041052497923374176
1761507789003737000,6.189737060546875,0.2195538878440857,-0.5402242541313171,0.13176481425762177
1761507789013709000,6.199708984375,0.2548716366291046,-0.5634738206863403,0.25126492977142334
1761507789023681000,6.209680908203125,0.22887945175170898,-0.5513838529586792,0.38111481070518494
1761507789033653000,6.219653076171875,0.15809266269207,-0.4848787188529968,0.492149293422699
1761507789043624000,6.2296240234375,0.05684994161128998,-0.3736334443092346,0.5631099939346313
1761507789053596000,6.239595947265625,-0.05262089520692825,-0.21746297180652618,0.5828214883804321
1761507789063568100,6.249568115234375,-0.16063499450683594,-0.03961627930402756,0.5403488278388977
1761507789073540000,6.2595400390625,-0.2530514597892761,0.13065925240516663,0.44276636838912964
1761507789083512000,6.269511962890625,-0.31646743416786194,0.2697840929031372,0.32517609000205994
1761507789093484000,6.279484130859375,-0.34031155705451965,0.3557173013687134,0.21893712878227234
1761507789103455000,6.289455078125,-0.3444597125053406,0.36233341693878174,0.14896230399608612
1761507789113427000,6.299427001953125,-0.3334388732910156,0.28807610273361206,0.12053132802248001
1761507789123399000,6.30939892578125,-0.3041329085826874,0.16549824178218842,0.130030557513237
1761507789133371100,6.31937109375,-0.2639526128768921,0.02706063725054264,0.16348549723625183
1761507789143342800,6.3293427734375,-0.19205021858215332,-0.10868627578020096,0.212824285030365
1761507789153314000,6.33931396484375,-0.09913316369056702,-0.225246399641037,0.28025108575820923
1761507789163286000,6.3492861328125,-0.0011594626121222973,-0.30708587169647217,0.3421298861503601
1761507789173258000,6.359258056640625,0.07242058962583542,-0.36385998129844666,0.38747650384902954
1761507789183230000,6.36922998046875,0.1101626381278038,-0.39481496810913086,0.3944694399833679
1761507789193202000,6.379201904296875,0.11870554834604263,-0.3902980089187622,0.36185726523399353
1761507789203174100,6.389174072265625,0.10708750784397125,-0.36031484603881836,0.2784731686115265
1761507789213145000,6.39914501953125,0.0716550350189209,-0.3148046135902405,0.15309423208236694
1761507789223117000,6.409116943359375,0.02371441200375557,-0.27275437116622925,0.01001270767301321
1761507789233089000,6.419089111328125,-0.036926548928022385,-0.23109272122383118,-0.1103261262178421
1761507789243061000,6.42906103515625,-0.10067170858383179,-0.18366341292858124,-0.19738273322582245
1761507789253033000,6.439032958984375,-0.1430632472038269,-0.13112816214561462,-0.24114996194839478
1761507789263005000,6.4490048828125,-0.16419942677021027,-0.07099903374910355,-0.23663723468780518
1761507789272976000,6.458975830078125,-0.1573255956172943,0.00020633172243833542,-0.19794249534606934
1761507789282948000,6.468947998046875,-0.1348849982023239,0.061188459396362305,-0.13738834857940674
1761507789292920000,6.478920166015625,-0.10962945222854614,0.13508163392543793,-0.07738746702671051
1761507789302892000,6.48889208984375,-0.08909168839454651,0.18422414362430573,-0.024515198543667793
1761507789312864000,6.498864013671875,-0.08432061970233917,0.21545791625976562,-0.009541966021060944
1761507789322836000,6.5088359375,-0.08482901751995087,0.24122853577136993,-0.03770223259925842
1761507789332807200,6.51880712890625,-0.09121352434158325,0.2517786920070648,-0.07980644702911377
1761507789342779000,6.52877880859375,-0.09409986436367035,0.2462126910686493,-0.11559107899665833
1761507789352751000,6.538751220703125,-0.08559095114469528,0.22986775636672974,-0.1264781653881073
1761507789362723000,6.54872314453125,-0.06261559575796127,0.20504522323608398,-0.11549635976552963
1761507789372695000,6.558695068359375,-0.0256735198199749,0.17687447369098663,-0.09205028414726257
1761507789382666000,6.568666015625,0.02396433800458908,0.15223944187164307,-0.056661393493413925
1761507789392638000,6.578637939453125,0.064232237637043,0.120152547955513,-0.03162271901965141
1761507789402610200,6.588610107421875,0.10017772018909454,0.08158518373966217,-0.0201218593865633
1761507789412582000,6.598581787109375,0.12102971225976944,0.041604310274124146,-0.01644262485206127
1761507789422554000,6.60855419921875,0.13590426743030548,0.0029836816247552633,-0.016102006658911705
1761507789432526000,6.618526123046875,0.15254071354866028,-0.034976910799741745,-0.02101035788655281
1761507789442497000,6.6284970703125,0.16876789927482605,-0.058735501021146774,-0.029145250096917152
1761507789452469000,6.638468994140625,0.18718276917934418,-0.06530764698982239,-0.03898517042398453
1761507789462441000,6.64844091796875,0.19610010087490082,-0.06237231194972992,-0.04963887855410576
1761507789472413200,6.6584130859375,0.19869588315486908,-0.04389983043074608,-0.06410516798496246
1761507789482385000,6.668385009765625,0.19608332216739655,-0.016115602105855942,-0.07575037330389023
1761507789492357000,6.678357177734375,0.19031216204166412,0.024070702493190765,-0.07750414311885834
1761507789502327800,6.688327880859375,0.18052025139331818,0.08380167931318283,-0.07621277868747711
1761507789512300000,6.698300048828125,0.16827331483364105,0.134219691157341,-0.07182197272777557
1761507789522272000,6.70827197265625,0.1487227827310562,0.17266827821731567,-0.07446756213903427
1761507789532244000,6.718243896484375,0.12658405303955078,0.19367198646068573,-0.09558168053627014
1761507789542216000,6.7282158203125,0.09313048422336578,0.23019884526729584,-0.13703671097755432
1761507789552187000,6.738186767578125,0.05654435232281685,0.29671335220336914,-0.19622081518173218
1761507789562159000,6.7481591796875,0.02458854950964451,0.35644885897636414,-0.2509588897228241
1761507789572130800,6.758130859375,0.023957110941410065,0.3873974680900574,-0.2827405035495758
1761507789582103000,6.76810302734375,0.05259008705615997,0.3748001754283905,-0.2721504271030426
1761507789592075000,6.778074951171875,0.11072565615177155,0.2998897135257721,-0.22255375981330872
1761507789602047000,6.788046875,0.19502107799053192,0.17774516344070435,-0.1287897229194641
1761507789612018200,6.79801806640625,0.2817157804965973,0.0418081134557724,-0.014409573748707771
1761507789621990000,6.807989990234375,0.34626466035842896,-0.09122797101736069,0.08555883914232254
1761507789631962000,6.817962158203125,0.38549500703811646,-0.19970981776714325,0.14853055775165558
1761507789641933600,6.82793359375,0.397707462310791,-0.2693434953689575,0.16474175453186035
1761507789651905500,6.837905517578125,0.39225900173187256,-0.294832319021225,0.14151333272457123
1761507789661876700,6.847876708984375,0.39027121663093567,-0.29452869296073914,0.09541135281324387
1761507789671848400,6.857848388671875,0.388068825006485,-0.2848016023635864,0.04642433673143387
1761507789681820700,6.867820556640625,0.3939482867717743,-0.27129802107810974,0.004582614172250032
1761507789691792400,6.87779248046875,0.3746851980686188,-0.265412300825119,-0.04013647884130478
1761507789701764600,6.8877646484375,0.3298860490322113,-0.26186761260032654,-0.0963696613907814
1761507789711736600,6.897736572265625,0.27320995926856995,-0.279155969619751,-0.1615956425666809
1761507789721707500,6.90770751953125,0.2093747854232788,-0.27846619486808777,-0.19990681111812592
1761507789731679700,6.9176796875,0.14963966608047485,-0.22760233283042908,-0.1980130672454834
1761507789741651500,6.9276513671875,0.09338173270225525,-0.15364289283752441,-0.17168985307216644
1761507789751623700,6.937623779296875,0.05774306133389473,-0.040849022567272186,-0.1043691337108612
1761507789761595400,6.947595458984375,0.036231644451618195,0.09402143955230713,-0.010781397111713886
1761507789771567600,6.957567626953125,0.035621315240859985,0.2168952226638794,0.08270973712205887
1761507789781538600,6.96753857421875,0.042890679091215134,0.3134414851665497,0.17185240983963013
1761507789791510500,6.977510498046875,0.06527252495288849,0.357820600271225,0.22948439419269562
1761507789801482800,6.987482666015625,0.0835961401462555,0.36370378732681274,0.2767358124256134
1761507789811454500,6.997454345703125,0.10319625586271286,0.3331707715988159,0.31074145436286926
1761507789821426700,7.0074267578125,0.121053546667099,0.2706812918186188,0.3314858675003052
1761507789831397600,7.017397705078125,0.14040155708789825,0.1881180703639984,0.33552536368370056
1761507789841369600,7.02736962890625,0.16082800924777985,0.09824942797422409,0.32969677448272705
1761507789851341600,7.037341552734375,0.1666492223739624,0.012023724615573883,0.30175891518592834
1761507789861313500,7.0473134765625,0.15778249502182007,-0.0694439709186554,0.26042529940605164
1761507789871285800,7.05728564453125,0.12959185242652893,-0.15688928961753845,0.210001140832901
1761507789881257500,7.067257568359375,0.08274257928133011,-0.2275373637676239,0.15788760781288147
1761507789891228700,7.077228759765625,0.03547515720129013,-0.280048668384552,0.10927581042051315
1761507789901200600,7.08720068359375,0.0008093230426311493,-0.2856588661670685,0.07027354836463928
1761507789911172600,7.097172607421875,-0.022942235693335533,-0.23244071006774902,0.029809072613716125
1761507789921144600,7.10714453125,-0.04408746957778931,-0.14563125371932983,-0.010363645851612091
1761507789931116500,7.117116455078125,-0.06961314380168915,-0.03703104704618454,-0.05255315825343132
1761507789941088800,7.1270888671875,-0.09596884995698929,0.0652010440826416,-0.0965680181980133
1761507789951059500,7.1370595703125,-0.1168755441904068,0.12554346024990082,-0.13668151199817657
1761507789961031700,7.14703173828125,-0.1151663288474083,0.15774215757846832,-0.14594903588294983
1761507789971003600,7.157003662109375,-0.10465299338102341,0.1608903408050537,-0.12843289971351624
1761507789980975600,7.1669755859375,-0.08514214307069778,0.13009941577911377,-0.08553657680749893
1761507789990947600,7.176947509765625,-0.07541555911302567,0.0931757315993309,-0.038429100066423416
1761507790000918500,7.18691845703125,-0.0718650370836258,0.06417710334062576,0.006932519376277924
1761507790010890500,7.196890380859375,-0.07580500841140747,0.049032509326934814,0.03290785476565361
1761507790020862500,7.206862548828125,-0.07976672798395157,0.03892048820853233,0.0422787182033062
1761507790030834700,7.216834716796875,-0.08600600063800812,0.04013947769999504,0.014775404706597328
1761507790040806700,7.226806640625,-0.08767792582511902,0.04276588559150696,-0.027178436517715454
1761507790050778600,7.236778564453125,-0.06987794488668442,0.043847016990184784,-0.07620374113321304
1761507790060749600,7.24674951171875,-0.0422242134809494,0.04622015729546547,-0.1221131756901741
1761507790070721500,7.256721435546875,-0.0018966053612530231,0.03058825433254242,-0.15747453272342682
1761507790080693500,7.266693603515625,0.04758758842945099,-0.0012580928159877658,-0.1782703548669815
1761507790090665500,7.27666552734375,0.09256494045257568,-0.031033357605338097,-0.16995565593242645
1761507790100637700,7.2866376953125,0.12778949737548828,-0.05338659882545471,-0.14108805358409882
1761507790110608600,7.296608642578125,0.14573010802268982,-0.0765509307384491,-0.09621153771877289
1761507790120580600,7.30658056640625,0.14816318452358246,-0.10096918791532516,-0.04759366810321808
1761507790130552600,7.316552490234375,0.1427466720342636,-0.122871033847332,-0.022795571014285088
1761507790140524500,7.326524658203125,0.1364951729774475,-0.1237831711769104,-0.032169632613658905
1761507790150496500,7.33649658203125,0.12315551191568375,-0.12069825828075409,-0.07802527397871017
1761507790160468500,7.346468505859375,0.09613854438066483,-0.13038603961467743,-0.14670899510383606
1761507790170439400,7.356439453125,0.068874791264534,-0.1474989801645279,-0.2182352989912033
1761507790180411600,7.36641162109375,0.04089828208088875,-0.14892908930778503,-0.27160826325416565
1761507790190383600,7.376383544921875,0.022867346182465553,-0.12430444359779358,-0.29052969813346863
1761507790200355600,7.38635546875,0.0017748437821865082,-0.07327374815940857,-0.28098466992378235
1761507790210327600,7.39632763671875,-0.013275900855660439,-0.0016965577378869057,-0.2541382908821106
1761507790220299500,7.406299560546875,-0.02513921819627285,0.06938374787569046,-0.22233454883098602
1761507790230270700,7.416270751953125,-0.020640553906559944,0.12855075299739838,-0.17817674577236176
1761507790240242400,7.426242431640625,-0.0038594421930611134,0.16312284767627716,-0.1462361216545105
1761507790250214700,7.436214599609375,0.02358153834939003,0.16990475356578827,-0.11493157595396042
1761507790260186600,7.4461865234375,0.053997501730918884,0.1494857668876648,-0.08751752972602844
1761507790270158600,7.45615869140625,0.07902263104915619,0.11903801560401917,-0.07267774641513824
1761507790280129800,7.4661298828125,0.10225579142570496,0.07751721143722534,-0.062091145664453506
1761507790290101500,7.4761015625,0.12170302122831345,0.03819951415061951,-0.05634687468409538
1761507790300073700,7.48607373046875,0.13514800369739532,0.011755921877920628,-0.05976397544145584
1761507790310045400,7.49604541015625,0.14769485592842102,-0.0014887610450387,-0.0650826022028923
1761507790320017700,7.506017578125,0.1615813672542572,0.0025512543506920338,-0.07104568928480148
1761507790329989600,7.51598974609375,0.17254167795181274,0.015974469482898712,-0.07002399116754532
1761507790339960600,7.525960693359375,0.17721818387508392,0.015885520726442337,-0.07069670408964157
1761507790349932500,7.5359326171875,0.17150594294071198,-0.0035653540398925543,-0.07411971688270569
1761507790359904500,7.545904541015625,0.16864465177059174,-0.026713814586400986,-0.0801033079624176
1761507790369876700,7.555876708984375,0.16548308730125427,-0.050635285675525665,-0.07533647119998932
1761507790379848400,7.565848388671875,0.1600518375635147,-0.0752069428563118,-0.06661461293697357
1761507790389820700,7.575820556640625,0.14834147691726685,-0.08756694197654724,-0.05344787612557411
1761507790399791400,7.585791259765625,0.1348930448293686,-0.08343477547168732,-0.034370057284832
1761507790409763600,7.595763671875,0.13234664499759674,-0.06102437898516655,-0.012611765414476395
1761507790419735600,7.605735595703125,0.13538424670696259,-0.03938273340463638,0.024513497948646545
1761507790429707500,7.61570751953125,0.1336020529270172,-0.010743850842118263,0.07356935739517212
1761507790439679700,7.6256796875,0.11251167953014374,0.009333986788988113,0.13616164028644562
1761507790449650400,7.635650390625,0.07868384569883347,0.02324448898434639,0.18351447582244873
1761507790459622700,7.64562255859375,0.03903576731681824,0.016464080661535263,0.2166529893875122
1761507790469594400,7.655594482421875,0.001204201951622963,-0.011981845833361149,0.21876469254493713
1761507790479566600,7.665566650390625,-0.033796124160289764,-0.046651676297187805,0.1875588297843933
1761507790489538600,7.67553857421875,-0.06859080493450165,-0.08147825300693512,0.13476988673210144
1761507790499510500,7.685510498046875,-0.0939672663807869,-0.10451938956975937,0.08091411739587784
1761507790509481700,7.695481689453125,-0.11723808944225311,-0.10447826981544495,0.04691465198993683
1761507790519453400,7.705453369140625,-0.14290271699428558,-0.0896814838051796,0.03225048631429672
1761507790529425700,7.71542578125,-0.1673736423254013,-0.06098156049847603,0.04217996820807457
1761507790539397400,7.7253974609375,-0.18897001445293427,-0.03077838569879532,0.06611565500497818
1761507790549369600,7.73536962890625,-0.19950006902217865,-0.007329782471060753,0.09362117201089859
1761507790559341600,7.745341552734375,-0.19429412484169006,-0.0001200726255774498,0.11366066336631775
1761507790569312500,7.7553125,-0.18770365417003632,0.0008763793157413602,0.1172109916806221
1761507790579284700,7.76528466796875,-0.18431052565574646,0.0042892200872302055,0.11724534630775452
1761507790589256400,7.77525634765625,-0.18738555908203125,0.028737246990203857,0.11217294633388519
1761507790599228700,7.785228759765625,-0.19968989491462708,0.06284487992525101,0.10430943220853806
1761507790609200400,7.795200439453125,-0.2194289267063141,0.10042272508144379,0.08868464082479477
1761507790619171600,7.805171630859375,-0.2369607836008072,0.1500810980796814,0.04290463775396347
1761507790629143600,7.8151435546875,-0.24632985889911652,0.18320968747138977,-0.03441121429204941
1761507790639115500,7.825115478515625,-0.2395089566707611,0.16613882780075073,-0.127250075340271
1761507790649088500,7.835088623046875,-0.23298785090446472,0.10797779262065887,-0.2166440635919571
1761507790659060700,7.845060791015625,-0.24283383786678314,0.02052251249551773,-0.2756892740726471
1761507790669032700,7.85503271484375,-0.27563366293907166,-0.08004728704690933,-0.29548078775405884
1761507790679003600,7.865003662109375,-0.3083505928516388,-0.1545388251543045,-0.2622682452201843
1761507790688976000,7.874975830078125,-0.31918907165527344,-0.17297610640525818,-0.19227395951747894
1761507790698947600,7.884947509765625,-0.31852805614471436,-0.1235574260354042,-0.10976789891719818
1761507790708919800,7.894919921875,-0.31069326400756836,-0.03691350296139717,-0.04130022972822189
1761507790718891500,7.9048916015625,-0.30347076058387756,0.0727461501955986,0.00922925304621458
1761507790728862700,7.91486279296875,-0.2924090623855591,0.18898624181747437,0.03369481861591339
1761507790738834700,7.924834716796875,-0.2806227207183838,0.27601516246795654,0.035047437995672226
1761507790748806700,7.934806640625,-0.27057284116744995,0.3496822714805603,0.023301178589463234
1761507790758779000,7.94477880859375,-0.27633488178253174,0.40273696184158325,-0.000667538377456367
1761507790768750600,7.95475048828125,-0.2872888743877411,0.4103260934352875,-0.024838531389832497
1761507790778722800,7.964722900390625,-0.29733166098594666,0.38425666093826294,-0.048174478113651276
1761507790788693800,7.97469384765625,-0.3001667857170105,0.30736327171325684,-0.061643391847610474
1761507790798665700,7.984665771484375,-0.28630876541137695,0.17544813454151154,-0.0738246887922287
1761507790808637700,7.9946376953125,-0.25189143419265747,0.013863329775631428,-0.07214389741420746
1761507790818609700,8.004609619140625,-0.2067663073539734,-0.13620953261852264,-0.05035364627838135
1761507790828582000,8.014581787109375,-0.15838029980659485,-0.25688907504081726,-0.018489602953195572
1761507790838552800,8.024552734375,-0.12839870154857635,-0.32693710923194885,0.03605113551020622
1761507790848524800,8.03452490234375,-0.11722225695848465,-0.3510005474090576,0.09457480162382126
1761507790858496800,8.044496826171875,-0.10942238569259644,-0.3702525198459625,0.14954057335853577
1761507790868467700,8.0544677734375,-0.10198231786489487,-0.38090837001800537,0.20449170470237732
1761507790878439700,8.064439697265625,-0.10701505094766617,-0.38893789052963257,0.2370697557926178
1761507790888411600,8.07441162109375,-0.1403936892747879,-0.3730044662952423,0.2577672004699707
1761507790898383600,8.084383544921875,-0.2063221037387848,-0.3215862810611725,0.26555320620536804
1761507790908355800,8.09435595703125,-0.2901557385921478,-0.2270127236843109,0.26591867208480835
1761507790918327800,8.104327880859374,-0.3839948773384094,-0.0958365872502327,0.24078749120235443
1761507790928298800,8.114298828125,-0.46185174584388733,0.053939543664455414,0.18293611705303192
1761507790938270700,8.124270751953125,-0.5069462656974792,0.17841197550296783,0.1108536645770073
1761507790948242700,8.13424267578125,-0.5138067007064819,0.2411242425441742,0.038239069283008575
1761507790958214700,8.144214599609375,-0.4968048334121704,0.22790935635566711,-0.013176453299820423
1761507790968186600,8.1541865234375,-0.46327900886535645,0.1611674576997757,-0.02388882264494896
1761507790978157800,8.16415771484375,-0.42928561568260193,0.07081492990255356,-0.00840627122670412
1761507790988129500,8.174129638671875,-0.40664470195770264,-0.01696014404296875,0.027705686166882515
1761507790998101800,8.184101806640625,-0.3800956606864929,-0.08174286782741547,0.06732499599456787
1761507791008073700,8.19407373046875,-0.3473668694496155,-0.11141133308410645,0.10067726671695709
1761507791018045700,8.204045654296875,-0.3063606023788452,-0.11448702216148376,0.11793295294046402
1761507791028017700,8.214017578125,-0.2713377773761749,-0.11115019023418427,0.11519273370504379
1761507791037988600,8.223988525390626,-0.24068264663219452,-0.1141664907336235,0.09072760492563248
1761507791047960800,8.2339609375,-0.21515178680419922,-0.13438184559345245,0.052497778087854385
1761507791057932500,8.2439326171875,-0.19806894659996033,-0.1727691888809204,0.014638278633356094
1761507791067904800,8.25390478515625,-0.1871461570262909,-0.20207221806049347,-0.009926113300025463
1761507791077876700,8.263876708984375,-0.1786583960056305,-0.20622114837169647,-0.019695919007062912
1761507791087848700,8.2738486328125,-0.16914017498493195,-0.17910590767860413,-0.012321866117417812
1761507791097820000,8.28381982421875,-0.16390812397003174,-0.12768292427062988,0.008748264983296394
1761507791107791600,8.29379150390625,-0.1533353328704834,-0.06698453426361084,0.04538759961724281
1761507791117763800,8.303763916015624,-0.1423359513282776,-0.012261904776096344,0.08693663775920868
1761507791127735600,8.313735595703125,-0.13190096616744995,0.027312615886330605,0.11857772618532181
1761507791137707800,8.323707763671875,-0.11454220861196518,0.05008743703365326,0.14864161610603333
1761507791147678700,8.3336787109375,-0.0960623025894165,0.048520803451538086,0.1608227789402008
1761507791157650700,8.343650634765625,-0.07648274302482605,0.022399455308914185,0.1523006558418274
1761507791167623000,8.353622802734375,-0.06955272704362869,-0.014640643261373043,0.13879676163196564
1761507791177594600,8.3635947265625,-0.06889359652996063,-0.044839292764663696,0.11965316534042358
1761507791187566800,8.37356689453125,-0.0669102817773819,-0.0533575713634491,0.10332445055246353
1761507791197538600,8.38353857421875,-0.06764557957649231,-0.03562730923295021,0.09667134284973145
1761507791207509800,8.393509765625,-0.06089996173977852,-0.012501005083322525,0.08477010577917099
1761507791217481700,8.403481689453125,-0.052811410278081894,0.010598988272249699,0.07720886170864105
1761507791227453700,8.41345361328125,-0.04041473567485809,0.024731263518333435,0.0693506971001625
1761507791237426700,8.4234267578125,-0.02890242263674736,0.019276311621069908,0.06018596142530441
1761507791247398700,8.433398681640625,-0.02070578560233116,0.013763146474957466,0.05155935138463974
1761507791257370600,8.44337060546875,-0.01798136904835701,0.01525984238833189,0.04543434828519821
1761507791267342800,8.4533427734375,-0.004751510452479124,0.02041017822921276,0.027947742491960526
1761507791277314600,8.463314453125,0.014410199597477913,0.023628076538443565,0.0038298906292766333
1761507791287285800,8.47328564453125,0.04472906515002251,0.02695883996784687,-0.020301375538110733
1761507791297257700,8.4832578125,0.09249765425920486,0.02941986732184887,-0.032484270632267
1761507791307229700,8.493229736328125,0.14572174847126007,0.02561516873538494,-0.023445358499884605
1761507791317201700,8.50320166015625,0.17012163996696472,0.021872628480196,0.002109003718942404
1761507791327173600,8.513173583984376,0.15975788235664368,0.020510051399469376,0.038772545754909515
1761507791337144600,8.52314453125,0.12778957188129425,0.03587169572710991,0.060785967856645584
1761507791347116800,8.53311669921875,0.10366594046354294,0.06719717383384705,0.06348959356546402
1761507791357088800,8.5430888671875,0.10330375283956528,0.10857870429754257,0.03526167944073677
1761507791367060700,8.553060791015625,0.11421385407447815,0.14800086617469788,-0.006772960070520639
1761507791377032700,8.56303271484375,0.11392703652381897,0.18036200106143951,-0.05025758966803551
1761507791387004700,8.573004638671875,0.10787195712327957,0.20259122550487518,-0.08738480508327484
1761507791396975900,8.582975830078125,0.10337547957897186,0.23823976516723633,-0.11174340546131134
1761507791406947600,8.592947509765626,0.11646082997322083,0.240428626537323,-0.11294589191675186
1761507791416919800,8.602919921875,0.1501772552728653,0.21218633651733398,-0.09073912352323532
1761507791426891800,8.612891845703125,0.19311241805553436,0.1557902693748474,-0.05029086768627167
1761507791436863700,8.62286376953125,0.24572902917861938,0.09306483715772629,-0.00612846901640296
1761507791446834700,8.632834716796875,0.2939661741256714,0.025123078376054764,0.034262482076883316
1761507791456806700,8.642806640625,0.3254002630710602,-0.07628530263900757,0.032507725059986115
1761507791466779000,8.65277880859375,0.3314701318740845,-0.20420710742473602,0.006073505152016878
1761507791476750600,8.66275048828125,0.3221820890903473,-0.31020331382751465,-0.04741901531815529
1761507791486722800,8.672722900390625,0.32555297017097473,-0.37671175599098206,-0.09382190555334091
1761507791496694800,8.68269482421875,0.3706605136394501,-0.4319124221801758,-0.10892602801322937
1761507791506665700,8.692665771484375,0.4530952274799347,-0.4709169864654541,-0.051302433013916016
1761507791516637700,8.7026376953125,0.5503155589103699,-0.47447630763053894,0.06307394057512283
1761507791526609700,8.712609619140625,0.6378014087677002,-0.48770764470100403,0.2247929722070694
1761507791536581600,8.72258154296875,0.6952298283576965,-0.4294605851173401,0.43348491191864014
1761507791546553600,8.7325537109375,0.7039480209350586,-0.29719579219818115,0.6343398094177246
1761507791556524800,8.74252490234375,0.6612250208854675,-0.14235694706439972,0.7607923150062561
1761507791566496500,8.75249658203125,0.586773693561554,0.011774826794862747,0.7714345455169678
1761507791576468700,8.76246875,0.5158246755599976,0.15682975947856903,0.6912097334861755
1761507791586440700,8.772440673828125,0.45157864689826965,0.2876560091972351,0.5543278455734253
1761507791596412700,8.78241259765625,0.39409247040748596,0.3780463635921478,0.4007289707660675
1761507791606384600,8.792384521484376,0.36187320947647095,0.3918778896331787,0.26590198278427124
1761507791616355600,8.80235546875,0.34616270661354065,0.3268214166164398,0.17283807694911957
1761507791626327800,8.812327880859375,0.3413223326206207,0.1900932639837265,0.12699340283870697
1761507791636299500,8.822299560546876,0.3336401879787445,0.005622764118015766,0.11523233354091644
1761507791646272000,8.83227197265625,0.31923556327819824,-0.18075504899024963,0.1266678273677826
1761507791656243700,8.84224365234375,0.29560932517051697,-0.3115071952342987,0.13874100148677826
1761507791666215000,8.85221484375,0.2534628212451935,-0.37261033058166504,0.14283685386180878
1761507791676187000,8.862186767578125,0.20352162420749664,-0.36787179112434387,0.12415371090173721
1761507791686158800,8.872158935546874,0.15043920278549194,-0.31373685598373413,0.09079388529062271
1761507791696131000,8.882131103515626,0.09476476162672043,-0.22762539982795715,0.04297496750950813
1761507791706102800,8.892102783203125,0.03479176387190819,-0.13946694135665894,-0.01703815534710884
1761507791716075000,8.902074951171874,-0.029374441131949425,-0.04628054425120354,-0.06597720086574554
1761507791726046000,8.9120458984375,-0.08008512854576111,0.057256560772657394,-0.09556318074464798
1761507791736018000,8.922017822265625,-0.10762354731559753,0.16627439856529236,-0.09866602718830109
1761507791745990000,8.931989990234374,-0.11427628248929977,0.2576093077659607,-0.06475582718849182
1761507791755961900,8.9419619140625,-0.11053107678890228,0.33162227272987366,-0.014809043146669865
1761507791765934000,8.95193408203125,-0.09349454939365387,0.36918237805366516,0.032329708337783813
1761507791775904800,8.96190478515625,-0.07473071664571762,0.37119174003601074,0.08250100165605545
1761507791785877000,8.971876953125,-0.056615326553583145,0.3597826659679413,0.1204933226108551
1761507791795849000,8.981848876953125,-0.053005147725343704,0.34540238976478577,0.13311536610126495
1761507791805821000,8.991821044921876,-0.048178136348724365,0.3125697672367096,0.11492505669593811
1761507791815793000,9.00179296875,-0.036329999566078186,0.2585512697696686,0.06197955086827278
1761507791825764900,9.011764892578125,-0.01078794151544571,0.18989087641239166,-0.013976925984025002
1761507791835735800,9.02173583984375,0.017214132472872734,0.08841325342655182,-0.09958396852016449
1761507791845707800,9.031707763671875,0.040054306387901306,-0.0408150888979435,-0.17058607935905457
1761507791855680000,9.041679931640624,0.052798595279455185,-0.18772996962070465,-0.21607498824596405
1761507791865652000,9.05165185546875,0.05497543513774872,-0.313578337430954,-0.227903351187706
1761507791875624000,9.0616240234375,0.04169611260294914,-0.3819904029369354,-0.22806979715824127
1761507791885595000,9.071594970703124,0.016102654859423637,-0.39430156350135803,-0.22344736754894257
1761507791895566800,9.08156689453125,-0.00628041522577405,-0.3603888750076294,-0.22754384577274323
1761507791905538800,9.091538818359375,-0.034610096365213394,-0.28144389390945435,-0.23494087159633636
1761507791915510800,9.1015107421875,-0.06520023196935654,-0.17377042770385742,-0.2504998743534088
1761507791925483000,9.11148291015625,-0.09778065979480743,-0.0822230875492096,-0.26638802886009216
1761507791935454700,9.121454833984375,-0.1496180295944214,-0.020366648212075233,-0.28450655937194824
1761507791945426000,9.131426025390626,-0.19965492188930511,0.0056401873007416725,-0.30504491925239563
1761507791955398000,9.14139794921875,-0.2528134882450104,0.03115753084421158,-0.32442742586135864
1761507791965369900,9.151369873046875,-0.3018002510070801,0.0556209534406662,-0.35117673873901367
1761507791975341800,9.161341796875,-0.34837228059768677,0.08054547756910324,-0.3876305818557739
1761507791985313800,9.171313720703125,-0.39402154088020325,0.10565029829740524,-0.43583834171295166
1761507791995286000,9.1812861328125,-0.4313018023967743,0.137283593416214,-0.4779072403907776
1761507792005257000,9.191257080078126,-0.4515573978424072,0.1770586520433426,-0.5075429677963257
1761507792015229000,9.20122900390625,-0.4361478388309479,0.19974851608276367,-0.5114054083824158
1761507792025201000,9.211200927734374,-0.38730138540267944,0.21790258586406708,-0.49581795930862427
1761507792035172900,9.2211728515625,-0.30805638432502747,0.22997257113456726,-0.45198577642440796
1761507792045144800,9.231144775390625,-0.20242567360401154,0.22865860164165497,-0.39095136523246765
1761507792055116000,9.241115966796874,-0.09685131162405014,0.21073713898658752,-0.31177985668182373
1761507792065087700,9.251087646484375,-0.007798417005687952,0.17883865535259247,-0.23842738568782806
1761507792075060000,9.26106005859375,0.04167352616786957,0.11303859204053879,-0.1712092012166977
1761507792085032000,9.271031982421874,0.06535473465919495,0.02887599542737007,-0.11431357264518738
1761507792095004000,9.28100390625,0.07211942970752716,-0.0364375002682209,-0.0592133030295372
1761507792104975000,9.29097509765625,0.07630638778209686,-0.07691924273967743,-0.014939466491341591
1761507792114946800,9.30094677734375,0.07654181122779846,-0.09800481796264648,0.00035160593688488007
1761507792124919000,9.3109189453125,0.069819375872612,-0.09598828107118607,-0.011713165789842606
1761507792134890800,9.320890869140625,0.05664338916540146,-0.08360884338617325,-0.05975046753883362
1761507792144863000,9.330863037109374,0.04018779844045639,-0.06594542413949966,-0.13030892610549927
1761507792154835000,9.3408349609375,0.014913070946931839,-0.045607391744852066,-0.19872421026229858
1761507792164806000,9.350805908203125,-0.013024179264903069,-0.0298420712351799,-0.2524634599685669
1761507792174778000,9.360778076171876,-0.0411791168153286,-0.03147192671895027,-0.27961546182632446
1761507792184749800,9.370749755859375,-0.08303563296794891,-0.04808270186185837,-0.2786155045032501
1761507792194722000,9.38072216796875,-0.13660618662834167,-0.0660819411277771,-0.28164219856262207
1761507792204693800,9.39069384765625,-0.20605884492397308,-0.08468945324420929,-0.2885723412036896
1761507792214665000,9.4006650390625,-0.29055055975914,-0.1159038320183754,-0.31839093565940857
1761507792224636700,9.41063671875,-0.39682725071907043,-0.17645035684108734,-0.3469168543815613
1761507792234609000,9.42060888671875,-0.5361068844795227,-0.2237425148487091,-0.3565945029258728
1761507792244580900,9.430580810546875,-0.7058095932006836,-0.2226533442735672,-0.324514776468277
1761507792254552800,9.440552734375,-0.8834935426712036,-0.150005504488945,-0.23612792789936066
1761507792264525000,9.450525146484376,-1.0178555250167847,-0.10972842574119568,-0.10933326929807663
1761507792274495700,9.460495849609375,-1.0579051971435547,-0.10946743935346603,0.020892636850476265
1761507792284468000,9.470468017578124,-1.0337129831314087,-0.1373865157365799,0.12934070825576782
1761507792294439700,9.480439697265625,-0.9918491840362549,-0.20765748620033264,0.2034468799829483
1761507792304412000,9.490411865234375,-0.9555200934410095,-0.2608576714992523,0.20900821685791016
1761507792314384000,9.5003837890625,-0.909683883190155,-0.27395695447921753,0.14515040814876556
1761507792324354800,9.510354736328125,-0.8323672413825989,-0.21998420357704163,0.04092305153608322
1761507792334327000,9.5203271484375,-0.7095035910606384,-0.12341266125440598,-0.07596281915903091
1761507792344298800,9.530298828125,-0.5600364804267883,-0.03081466071307659,-0.19423837959766388
1761507792354271000,9.54027099609375,-0.4152745008468628,0.040338609367609024,-0.28490251302719116
1761507792364242700,9.55024267578125,-0.31040266156196594,0.09000512957572937,-0.3506195843219757
1761507792374215000,9.56021484375,-0.26333901286125183,0.0944046750664711,-0.3931606709957123
1761507792384185900,9.570185791015625,-0.26686036586761475,0.04676668345928192,-0.4016534388065338
1761507792394157800,9.58015771484375,-0.2965889573097229,-0.026180226355791092,-0.37901973724365234
1761507792404130000,9.590130126953126,-0.33301860094070435,-0.08005250990390778,-0.3038078248500824
1761507792414101800,9.600101806640625,-0.3687984347343445,-0.051234979182481766,-0.18596826493740082
1761507792424074000,9.610073974609374,-0.3975726068019867,0.08530306071043015,-0.04269328713417053
1761507792434045000,9.620044921875,-0.4165809154510498,0.2616559863090515,0.10029342770576477
1761507792444017000,9.630016845703125,-0.4208779036998749,0.39525386691093445,0.22614173591136932
1761507792453988900,9.63998876953125,-0.42337995767593384,0.45382797718048096,0.2945556640625
1761507792463960800,9.6499609375,-0.42561379075050354,0.45222070813179016,0.30316492915153503
1761507792473933000,9.65993310546875,-0.4134495258331299,0.447562575340271,0.24628514051437378
1761507792483904000,9.669904052734376,-0.3921111822128296,0.4788716435432434,0.13782645761966705
1761507792493876000,9.6798759765625,-0.36677679419517517,0.5368300080299377,-0.016461919993162155
1761507792503848000,9.689847900390625,-0.340446799993515,0.60760897397995,-0.203426793217659
1761507792513820000,9.69981982421875,-0.31801047921180725,0.6572228670120239,-0.40566378831863403
1761507792523792000,9.7097919921875,-0.2989973723888397,0.6389877796173096,-0.5857443809509277
1761507792533763800,9.719763916015625,-0.26948022842407227,0.5617592930793762,-0.7084535360336304
1761507792543734800,9.72973486328125,-0.297872394323349,0.4112066328525543,-0.6047588586807251
1761507792553707000,9.73970703125,-0.33713299036026,0.185768723487854,-0.4344415068626404
1761507792563679000,9.749678955078124,-0.32284021377563477,-0.030885975807905197,-0.20909780263900757
1761507792573651000,9.75965087890625,-0.24926529824733734,-0.1705847531557083,0.00504937581717968
1761507792583623000,9.769622802734375,-0.20091140270233154,-0.17404595017433167,0.15365687012672424
1761507792593593900,9.77959375,-0.19824343919754028,-0.12130710482597351,0.19521816074848175
1761507792603565800,9.78956591796875,-0.25476741790771484,-0.03342018648982048,0.14769218862056732
1761507792613537800,9.799537841796875,-0.35302767157554626,0.08676134794950485,0.09009625762701035
1761507792623509800,9.809509765625,-0.4489864110946655,0.23699691891670227,0.06774013489484787
