time,seconds_elapsed,z,y,x
1761506833744837400,0.08083740234375,-0.023781857603788373,0.017453458299860357,-0.2455265200667083
1761506833754809300,0.090809326171875,-0.06384089626967906,0.009585282208025455,-0.30387791554201393
1761506833764780300,0.1007802734375,-0.05896306110024452,-0.012488529368862508,-0.24694438750799744
1761506833774752300,0.110752197265625,-0.0245867442458868,0.039201033597066996,-0.19399678730498998
1761506833784724200,0.12072412109375,-0.009970774394273758,0.04001271530613303,-0.23010164498500524
1761506833794696400,0.130696533203125,-0.007218260815739631,-0.028036080982163546,-0.21610888506565243
1761506833804667100,0.140667236328125,0.03469721937179565,-0.013633023228868842,-0.22306601072717458
1761506833814639400,0.150639404296875,0.08879355121850967,0.01257474634759128,-0.17222068003304303
1761506833824611000,0.160611083984375,0.145393974840641,0.011615180600434542,-0.10903762661758809
1761506833834583300,0.170583251953125,0.2149678618043661,0.0028601386714726686,-0.07399970404934138
1761506833844555300,0.18055517578125,0.22068682397305964,-0.015932678473368288,-0.08267462994679808
1761506833854526200,0.190526123046875,0.1606651937305927,-0.0065328358348459,-0.08909629702474921
1761506833864498400,0.20049853515625,0.0699783761113882,-0.006837737065553665,-0.08486355482582002
1761506833874470100,0.21047021484375,0.00720481681227684,-0.002927285623550415,-0.12293996830713003
1761506833884442400,0.2204423828125,-0.047183775979280466,0.015432254670560358,-0.09819416104201227
1761506833894413300,0.230413330078125,-0.05543605601787567,0.01653743943348527,-0.012919723860360681
1761506833904385300,0.24038525390625,0.001463058289885521,0.02518061848580837,0.05188623631549999
1761506833914357200,0.250357177734375,0.062304188221693035,0.022640286353230475,0.10004976231344044
1761506833924329200,0.2603291015625,0.06649404112696647,0.009613777650147676,0.120313638391532
1761506833934301400,0.270301513671875,0.04930383687317371,0.01618855293057859,0.14104215457299724
1761506833944272400,0.2802724609375,0.02032031897306442,0.01229775603711605,0.1575390062677674
1761506833954244400,0.290244384765625,-0.03525894490778446,0.021426453584060073,0.16878244921267033
1761506833964216300,0.30021630859375,-0.07574117742180823,0.02862944376543164,0.20431248441310598
1761506833974188300,0.310188232421875,-0.06321721141338348,0.02394815408140421,0.22947739387312902
1761506833984159200,0.3201591796875,-0.06401333022713661,0.030682942229136822,0.22720373158641158
1761506833994131200,0.330131103515625,-0.0858510680258274,0.012689751029387115,0.22793571738908067
1761506834004103200,0.340103271484375,-0.09949497797489165,0.015091040017455815,0.19040018758513033
1761506834014075400,0.350075439453125,-0.0980856956988573,-0.0023597148686647414,0.13444942351076752
1761506834024046000,0.360046142578125,-0.09622866965532302,-0.03077500442676246,0.08112562867281958
1761506834034018300,0.370018310546875,-0.11807634432613849,-0.02529072779677808,0.02438899318408221
1761506834043990300,0.379990234375,-0.1261369011849165,-0.027100407567247745,0.019238332422636447
1761506834053962200,0.389962158203125,-0.13081482986807821,-0.025983386236056685,0.012595460342057049
1761506834063934200,0.399934326171875,-0.13648176958858965,-0.021919570863246918,-0.0070913282341323785
1761506834073905200,0.4099052734375,-0.12539806551635266,-0.023840236727520822,-0.02603350898809731
1761506834083877400,0.41987744140625,-0.10277063864469528,-0.042474721505492925,-0.03765605091108009
1761506834093849000,0.42984912109375,-0.08286942186653613,-0.035083515275642276,-0.037969646904896945
1761506834103821300,0.4398212890625,-0.03696048812866211,-0.0075401131812483065,-0.026283319030702114
1761506834113792300,0.449792236328125,0.013341712132096289,-0.0035931291211396452,-0.006428078552428633
1761506834123764200,0.45976416015625,0.0693377401202917,0.008514145845174789,0.012640651190653442
1761506834133736400,0.469736328125,0.12206044552624225,0.011426453095301985,0.04349178959354758
1761506834143708200,0.479708251953125,0.15055062695145607,0.013040464163199067,0.062232602556515484
1761506834153680400,0.489680419921875,0.17155483653545378,-0.000247764215990901,0.07811698490874841
1761506834163651300,0.4996513671875,0.17123276497423648,0.003487988246232271,0.09273140212409198
1761506834173623300,0.509623291015625,0.1607043566972017,0.03234707604907453,0.10206254517426713
1761506834183595300,0.51959521484375,0.10920622465014457,0.059536915465444325,0.09832580633135513
1761506834193567200,0.529567138671875,0.06102291623950004,0.064225219412148,0.07540438321549445
1761506834203538200,0.5395380859375,0.025924130329489706,0.06694083504639566,0.05268348764041438
1761506834213510400,0.549510498046875,0.009493220010399818,0.0677187606163323,0.043222306736093015
1761506834223482400,0.559482421875,0.015683891344070434,0.06615976767130195,0.0268948750577867
1761506834233454300,0.569454345703125,-0.006502221500873566,0.06478935610093176,-0.0039386728894896805
1761506834243426300,0.57942626953125,-0.025070143848657606,0.05212583549134433,-0.032430827076081185
1761506834253397200,0.589397216796875,-0.05383797317147255,0.024487667785584925,-0.06500975738596171
1761506834263369200,0.599369140625,-0.10918868899345398,0.028207126700133082,-0.11500848118811845
1761506834273341200,0.609341064453125,-0.11571546041369438,0.013070274779573083,-0.15116094086952506
1761506834283313200,0.619313232421875,-0.09672025256454944,-0.010129106761142611,-0.17100050885463133
1761506834293284400,0.629284423828125,-0.06962474036812782,-0.021489655013382434,-0.18505992253571749
1761506834303256300,0.63925634765625,-0.040075405278801914,-0.03876994870342314,-0.18289706367971376
1761506834313228300,0.649228271484375,-0.010890227326750756,-0.03235153302848339,-0.18699797792620956
1761506834323200300,0.6592001953125,0.025590368330478667,-0.04053462028838694,-0.19276669752076267
1761506834333172200,0.669172119140625,0.051257893550395964,-0.03651077159978449,-0.1879532510907389
1761506834343143200,0.67914306640625,0.07771160071194172,-0.029410072749108073,-0.15936684274943544
1761506834353115400,0.689115478515625,0.11379413696229457,-0.030145474351570008,-0.10672507535889744
1761506834363087400,0.69908740234375,0.14422551558315752,-0.025148104455694556,-0.06912565000588074
1761506834373059300,0.709059326171875,0.15973872653543947,-0.022642916701734066,-0.04249353580381721
1761506834383030500,0.719030517578125,0.17365034750998018,-0.019449673618376254,-0.026610011968109755
1761506834393002200,0.729002197265625,0.1765343785136938,-0.03453033837229013,-0.01606078009875491
1761506834402974500,0.738974365234375,0.1913619452893734,-0.040920623931288716,0.0015505356439389287
1761506834412946200,0.7489462890625,0.20093699836432932,-0.03961392524689436,0.03185129188876599
1761506834422918400,0.75891845703125,0.18628829528689383,-0.023154008029028773,0.06236598314521834
1761506834432889300,0.768889404296875,0.16651450428068637,-0.004757862051576376,0.08794435051064937
1761506834442861300,0.778861328125,0.10849193890094756,0.009269494257122278,0.1145588559907861
1761506834452833500,0.78883349609375,0.027680034086108207,0.028910891055315732,0.1248958698815666
1761506834462805200,0.79880517578125,-0.004137245935201645,0.03741992233395576,0.13315602269936352
1761506834472776400,0.8087763671875,-0.023143559700250626,0.03975377210900187,0.15838073605522512
1761506834482748200,0.818748046875,-0.020815993535518645,0.06098711427375674,0.172790442745015
1761506834492720400,0.828720458984375,0.0031359599381685253,0.07790646569691598,0.1664330730749294
1761506834502692000,0.838692138671875,0.046316930016875264,0.07194792261868715,0.1396749578730203
1761506834512663300,0.848663330078125,0.0792372028440237,0.03743197809793055,0.11402230142867192
1761506834522635300,0.85863525390625,0.11375555851757525,-0.007922828888520597,0.0774509404817596
1761506834532607200,0.868607177734375,0.07807283523976802,-0.02773899773173034,0.022080917171109465
1761506834542579500,0.878579345703125,0.007405307820439338,-0.020714578987658022,-0.018873079306818544
1761506834552551200,0.88855126953125,-0.057223523956537244,-0.010973740891739725,-0.044367403384298086
1761506834562522400,0.8985224609375,-0.08808920234143733,-0.0074460051570087666,-0.042604942022729665
1761506834572494300,0.908494384765625,-0.09227613263726234,0.0053551703575998545,-0.01406365146478638
1761506834582466300,0.91846630859375,-0.04198796090185642,-0.013105053832009434,0.004147347204107791
1761506834592438300,0.928438232421875,-0.0012760112851858138,-0.04405468417331576,-0.0022312113844789564
1761506834602409500,0.938409423828125,0.004843932899832725,-0.05669497003778815,-0.004110303129348904
1761506834612381200,0.948381103515625,-0.0034311434924602507,-0.051900721498578786,-0.002649034937750548
1761506834622353400,0.958353515625,-0.053747372278571126,-0.03679996380470693,0.012447302309330553
1761506834632325400,0.968325439453125,-0.1209732348114252,0.008491641752421855,0.02071684400998056
1761506834642297300,0.97829736328125,-0.18520692979097364,0.041290260961279274,0.03850229247687384
1761506834652268300,0.988268310546875,-0.2139092926621437,0.0648828065380454,0.06432464293232187
1761506834662240300,0.998240234375,-0.2090852335065603,0.06982632735483348,0.06382542470591142
1761506834672212500,1.00821240234375,-0.15611059916615486,0.049011137536913156,0.06817576540252193
1761506834682184200,1.01818408203125,-0.09807634334862232,0.034679318388924,0.061938715910166496
1761506834692155400,1.0281552734375,-0.05805588312745094,0.01750781883560121,0.04687065490949899
1761506834702127000,1.038127197265625,-0.03385959950387478,0.02210720238983631,0.03177959662573412
1761506834712099000,1.04809912109375,-0.02481587682664394,0.04572049849368631,-0.008185352282226084
1761506834722071000,1.058071044921875,0.00003565583527088165,0.057259252857044335,-0.02531367028094828
1761506834732043000,1.06804296875,0.03152969525158405,0.045874300815910096,-0.026705142905656246
1761506834742014000,1.078013916015625,0.027529227438569066,0.051589975048974154,-0.03873120586192235
1761506834751986000,1.08798583984375,0.015497428861260413,0.05417100451812148,-0.03271731586726382
1761506834761958100,1.097958251953125,0.009784311911463736,0.05364858807921409,-0.05852289785100147
1761506834771929900,1.107929931640625,0.009962591087818145,0.04242613312341273,-0.09858467646325006
1761506834781901000,1.117901123046875,-0.0008218377768993377,0.03443805697895586,-0.14078487360998987
1761506834791873000,1.127873046875,0.005323825371265411,0.026700667659938334,-0.1733822711583227
1761506834801845000,1.137844970703125,0.04312427145540714,0.023406448420137164,-0.18999440152952446
1761506834811817000,1.14781689453125,0.06735445734858513,0.01898329821564257,-0.18323579411478713
1761506834821789000,1.157788818359375,0.06756546975076198,0.009508198383823037,-0.19325239867847413
1761506834831760000,1.167759765625,0.06393617333769798,0.0006570026040077209,-0.20230848764693363
1761506834841732000,1.177732177734375,0.05447802464067936,0.0030698358993977307,-0.2015868040425703
1761506834851704000,1.1877041015625,0.05386895283162593,-0.009779343475401402,-0.19137820230443028
1761506834861676000,1.197676025390625,0.05298340216875076,0.008979790595546364,-0.16680051814783364
1761506834871647200,1.207647216796875,0.052422261154651636,0.005949336858466267,-0.13399020850118248
1761506834881619000,1.217618896484375,0.05472235479056835,0.017046631064638496,-0.08207792442897334
1761506834891591200,1.227591064453125,0.0315928236156702,0.03208659848198295,-0.0707628410199657
1761506834901563000,1.23756298828125,0.007085574346780777,0.038426030636578797,-0.06506347860088571
1761506834911535000,1.24753515625,-0.029006314253807067,0.02645889479331672,-0.07608933327235282
1761506834921506000,1.257506103515625,-0.030433132186532017,0.01967858700342476,-0.06487800249876455
1761506834931478000,1.26747802734375,-0.006276011529564857,0.011846651268750428,-0.028539774454291907
1761506834941450200,1.2774501953125,0.0047439796566963194,0.002366948327049613,0.016945490511413662
1761506834951422000,1.287421875,-0.003186228820681572,0.0174679252166301,0.047888526715151966
1761506834961393200,1.29739306640625,0.008052373552322387,0.02245060900002718,0.04431191033739596
1761506834971364900,1.30736474609375,0.039488545301556585,0.01059774718619883,0.041363490594271565
1761506834981337000,1.317337158203125,0.04409457779228687,-0.00664915569089353,0.02917335965009406
1761506834991309000,1.32730908203125,0.021566519641876218,-0.010282324561476706,0.027639866472501304
1761506835001280000,1.337280029296875,-0.003525836038589477,-0.016006328231468796,0.038309692514222116
1761506835011252200,1.347252197265625,-0.03620879297852516,-0.010688055818155408,0.043648770253546534
1761506835021224000,1.357223876953125,-0.04131809881627559,-0.002709112828224897,0.05268927806038409
1761506835031196200,1.367196044921875,-0.01692833844721317,0.0026031682357192036,0.07054375490918754
1761506835041168000,1.37716796875,0.004638765716552734,-0.003293415522202849,0.08911518438830972
1761506835051139000,1.38713916015625,0.05432429538369178,-0.011774535880610346,0.0937023660480976
1761506835061111000,1.397111083984375,0.10235504358112811,-0.023984102177619933,0.09444063546108081
1761506835071083000,1.4070830078125,0.11056932969689369,-0.023180822970718145,0.07373230355111882
1761506835081055200,1.41705517578125,0.09486907173991203,-0.028816783031076192,0.0638175153940916
1761506835091026200,1.427026123046875,0.06563596299290657,-0.01361957922540605,0.06339488780153915
1761506835100998100,1.436998046875,-0.015440730237960814,0.022484365139156578,0.05150277168955653
1761506835110970000,1.44697021484375,-0.08287409804165363,0.05678294058218598,0.06841669801892712
1761506835120942000,1.456942138671875,-0.06491641654670238,0.050835065028443926,0.08961348929926753
1761506835130914000,1.4669140625,-0.022672435057163237,0.035934213820844885,0.10762390562845393
1761506835140885000,1.476885009765625,0.022162731969356534,0.012804901841655373,0.12536686666049063
1761506835150857000,1.48685693359375,0.050632455128431314,0.011880261277407407,0.13519076166367158
1761506835160829200,1.4968291015625,0.06177753399908542,0.04200812690705061,0.1380504984763451
1761506835170801200,1.50680126953125,0.01868482672572136,0.07443959330394864,0.10658254334935918
1761506835180772000,1.516772216796875,-0.032116555228829384,0.09762275436222553,0.07032253164025024
1761506835190744000,1.526744140625,-0.07795651538372039,0.11696831001900136,0.02577091252915561
1761506835200716000,1.536716064453125,-0.09574410100877284,0.09715499072000383,0.016184424744732678
1761506835210688000,1.54668798828125,-0.06638122840225696,0.06689582686088978,0.02179537822799757
1761506835220660000,1.556659912109375,-0.010372925454378127,0.04310892775580287,0.041885779169015584
1761506835230631200,1.566631103515625,0.026552491360902784,0.03202566207498312,0.0402440763765946
1761506835240603000,1.576602783203125,0.02679448342323303,0.03386697909273207,0.012177417593076825
1761506835250575000,1.5865751953125,0.04997136087119579,0.015683818278834222,-0.02210544882416725
1761506835260547000,1.596547119140625,0.05948211653828621,0.007295636900886893,-0.04727010255586356
1761506835270518000,1.60651806640625,0.05802841059863567,-0.005753741221129894,-0.0609976356677711
1761506835280490200,1.616490234375,0.06053191785216331,-0.021936083606630564,-0.06862666924148797
1761506835290462000,1.6264619140625,0.03999415673613548,-0.017681275706365702,-0.08697890301197767
1761506835300434200,1.63643408203125,0.005913023436069489,-0.04307619452998042,-0.07451174522470683
1761506835310405000,1.646405029296875,-0.018691256466507912,-0.04241027796715498,-0.08391381635293364
1761506835320377000,1.656377197265625,-0.033767245045304296,-0.042250192034617065,-0.09227321002781391
1761506835330349000,1.66634912109375,-0.02193593747615814,-0.04050327530205249,-0.10183423457741737
1761506835340321000,1.676321044921875,0.015054945790767668,-0.046768107850477095,-0.07861099723707884
1761506835350293200,1.686293212890625,0.06710194389224051,-0.040747459321469066,-0.05877747540026903
1761506835360264000,1.696263916015625,0.0853285054564476,-0.03802022631466388,-0.04523370135743171
1761506835370236200,1.706236083984375,0.04593465270102024,-0.016022183387726544,-0.03445917283222079
1761506835380208000,1.7162080078125,-0.012088497200608252,0.0017968202888965605,-0.02501183779016137
1761506835390180000,1.72618017578125,-0.09184475548267364,0.03781878545843065,-0.0280026901692152
1761506835400151000,1.736151123046875,-0.1274175886452198,0.06136778415441513,-0.017605068664997815
1761506835410123000,1.746123046875,-0.09582534955143927,0.08167699721157551,-0.00008632657658308744
1761506835420095000,1.756094970703125,0.001432078629732132,0.06513378562442958,0.029586817555502055
1761506835430067000,1.76606689453125,0.09816285258829593,0.02462108490690589,0.03648399319071322
1761506835440039200,1.7760390625,0.13414952724874019,0.008193973980098962,0.0159692476240918
1761506835450010000,1.786010009765625,0.0668412471294403,0.040783845809102055,-0.016460647870227694
1761506835459982000,1.795982177734375,-0.0003378536522388458,0.07129296584129333,-0.03483019810169935
1761506835469954000,1.8059541015625,-0.03505553129017353,0.07928411072567104,-0.034275194567441936
1761506835479926000,1.815926025390625,-0.0685229166060686,0.0909432765983045,-0.028240006056427954
1761506835489897000,1.82589697265625,-0.07335165193676949,0.07134148115813732,-0.032190935639292
1761506835499869200,1.835869140625,-0.029110943672060966,0.039435426874831314,-0.03083360274620354
1761506835509841000,1.8458408203125,-0.0034141923576593396,0.03327383550517261,-0.0459769209401682
1761506835519813000,1.855813232421875,0.015611410629749297,0.02689472892731428,-0.042793980055116115
1761506835529785000,1.86578515625,0.034496728363633156,0.027127880096063015,-0.060010999250598246
1761506835539756000,1.875756103515625,0.030270635101199147,0.02130823403187096,-0.07718527528289705
1761506835549728300,1.885728271484375,0.03885843070447444,0.011226108217611908,-0.07160984977073967
1761506835559700000,1.895699951171875,0.046779286831617355,0.0024373101495206353,-0.06682732820194213
1761506835569672200,1.905672119140625,0.03601180910170078,0.010679141859337687,-0.05775061657056212
1761506835579643100,1.91564306640625,0.050670449051260946,-0.0008135814052075147,-0.04488547244165093
1761506835589615000,1.925614990234375,0.04898585696518421,-0.003995353246480226,-0.04011420291922986
1761506835599587000,1.935587158203125,0.046989130190014834,-0.011256868682056664,-0.030364268201403317
1761506835609559000,1.94555908203125,0.025973814690113065,-0.010813801089674233,-0.03489365525934845
1761506835619530000,1.955530029296875,0.020732406905293464,-0.007540040116012096,-0.049076348260231314
1761506835629502000,1.965501953125,-0.027252748584747313,-0.007219137598574161,-0.057124630159325895
1761506835639474200,1.97547412109375,-0.08315525307059288,-0.003900076178461313,-0.06774279907904565
1761506835649446000,1.98544580078125,-0.10512158568501472,0.000036678748577833174,-0.06961812796425074
1761506835659418000,1.995418212890625,-0.09545242458581923,0.0015655688162893055,-0.04416424549501389
1761506835669389000,2.00538916015625,-0.0650765755444765,-0.003867050691694021,-0.007050247305072844
1761506835679361000,2.015361083984375,-0.013377367967367172,-0.012456819056347011,0.00977170815821737
1761506835689333000,2.0253330078125,0.01271685823202133,-0.014915464254841207,0.009131327895447612
1761506835699305000,2.035304931640625,0.013415946412086486,-0.022151772183924914,-0.017179536729305982
1761506835709276200,2.045276123046875,0.004610124143958091,-0.013619871486350894,-0.04069846908058971
1761506835719248400,2.055248291015625,0.013703531181812285,-0.0002917494881898165,-0.048744960881397126
1761506835729220000,2.06522021484375,0.009390344157814978,-0.0006494768846780062,-0.040736974460072815
1761506835739192300,2.0751923828125,-0.006301730492711067,-0.0034287323396652936,-0.037177784141153095
1761506835749164000,2.0851640625,-0.01602466760575771,-0.006669175565615296,-0.027955928418040274
1761506835759135200,2.09513525390625,-0.02269230880141258,-0.0004123801931738853,-0.02329608338084072
1761506835769107200,2.105107177734375,-0.013859014004468918,0.005491948479786515,-0.02327255637478083
1761506835779079200,2.1150791015625,0.03444119878411293,-0.004475464913621545,-0.014942096533440053
1761506835789051400,2.125051513671875,0.07092354800701141,0.0014107435807585716,-0.0038100963400676843
1761506835799022000,2.13502197265625,0.08994155220985411,0.0058105859749019145,0.007454955648444592
1761506835808994300,2.144994384765625,0.07998422181904316,0.028698490413650867,0.03191427412237972
1761506835818966300,2.15496630859375,0.06290799933373928,0.05926153259016573,0.039845761241391296
1761506835828938200,2.164938232421875,0.01488017374575138,0.08427205520607531,0.02863335275556892
1761506835838909200,2.1749091796875,-0.07545768430531025,0.10738587735518812,0.008501286363601684
1761506835848881200,2.184881103515625,-0.11631927152574062,0.12625256345383823,-0.017111184200830756
1761506835858853000,2.19485302734375,-0.07631459339559078,0.1090335714969784,-0.011577625069022178
1761506835868825000,2.2048251953125,-0.006629062750935554,0.07473324248827994,0.005912146653234958
1761506835878797300,2.21479736328125,0.09029343438744544,0.04373305100351572,0.029183168658055363
1761506835888768300,2.224768310546875,0.14912322449684143,0.026411110128834844,0.05627060714587569
1761506835898740200,2.234740234375,0.13820727820694445,0.04193009323477745,0.0491788953192532
1761506835908712200,2.244712158203125,0.08418050446510314,0.04990815944187343,0.029358525224961338
1761506835918684200,2.25468408203125,0.04830839609503746,0.06052665715515613,-0.002382511222362518
1761506835928655000,2.264655029296875,0.04576163422167301,0.036052652568742634,-0.029664157108031212
1761506835938627300,2.27462744140625,0.07392857504189014,0.002296659569814801,-0.04208513766601681
1761506835948599000,2.28459912109375,0.15319032780528066,-0.04203340747877955,-0.03273202024605125
1761506835958571300,2.2945712890625,0.21420389169454573,-0.0705163554456085,-0.034286848472617565
1761506835968543200,2.304543212890625,0.24192367326915262,-0.08158281612209975,-0.027590565704368054
1761506835978514200,2.31451416015625,0.15921850205361843,-0.06418664096742868,-0.030559023588523266
1761506835988486400,2.324486328125,0.05276128385066986,-0.036596330991387364,-0.06713789198845624
1761506835998458000,2.3344580078125,-0.07542085942625999,-0.02783566303923726,-0.0700472400965169
1761506836008430300,2.344430419921875,-0.183867205619812,0.008584946059063077,-0.06913783363401889
1761506836018401000,2.354401123046875,-0.24565584553480146,0.016496011444553732,-0.03695884416084736
1761506836028373200,2.364373291015625,-0.2614706697821617,0.015957520653679967,0.02114789237100631
1761506836038345200,2.37434521484375,-0.25376667127609254,0.019665654456615448,0.062495034618675706
1761506836048317200,2.384317138671875,-0.2332365089446306,0.020542437291145323,0.0796678858788684
1761506836058289400,2.394289306640625,-0.19094576570391653,0.014899170707166193,0.05925236290302127
1761506836068260000,2.404260009765625,-0.1331944184809923,0.0040779169633984565,0.05229015920758247
1761506836078232300,2.414232421875,-0.07696925791203975,0.0023534312583506104,0.04310962187554687
1761506836088204000,2.4242041015625,0.007660743886232376,-0.023505671010911465,0.04231072658281773
1761506836098176300,2.43417626953125,0.06773147396743297,-0.04204758213460445,0.046297896522842344
1761506836108147200,2.444147216796875,0.07715805848240852,-0.028358298673853276,0.03758797237724065
1761506836118119200,2.454119140625,0.05817571011483669,-0.019409633868932723,0.02302895687725395
1761506836128091100,2.464091064453125,0.030772154882550237,-0.0037424013987183567,0.0014989333208650349
1761506836138063000,2.47406298828125,0.014655132818222045,0.021645210901275275,-0.009248195740766824
1761506836148034000,2.484033935546875,0.03266951293647289,0.028254838299378752,-0.01006725703869015
1761506836158006300,2.49400634765625,0.06765899325311184,0.04069185667671263,-0.005032295078784227
1761506836167978200,2.503978271484375,0.11088730960488319,0.032900983604788776,0.006589424860291183
1761506836177950200,2.5139501953125,0.11197452031970023,0.027954540178552267,-0.005444017684832215
1761506836187922200,2.523922119140625,0.08233399981558323,0.040214813749492165,-0.02995280132368207
1761506836197893000,2.53389306640625,0.06924889279305935,0.04165412583760917,-0.052164633131772276
1761506836207865300,2.543865234375,0.06999883437752723,0.031791268797218795,-0.05552051943093538
1761506836217837000,2.553837158203125,0.07316460493206978,0.02843333667144179,-0.03942713397052139
1761506836227809300,2.563809326171875,0.06793430306315422,0.023915859246999023,-0.013291662445291876
1761506836237780200,2.5737802734375,0.06376490842401981,0.019813830755650998,-0.010170973141491412
1761506836247752200,2.583752197265625,0.018293197059631346,0.025482012585178015,-0.01308788350149989
1761506836257724200,2.59372412109375,-0.007436287480592727,0.023019275733456013,-0.020276516363956033
1761506836267696000,2.603696044921875,-0.033742110604047776,0.029141923332214353,-0.023314313157275317
1761506836277668400,2.61366845703125,-0.028169278907775878,0.02894537784680724,-0.015339169559627771
1761506836287639000,2.62363916015625,0.007032382854819297,0.02041457312777638,0.00222954915035516
1761506836297611300,2.633611328125,0.019326047238707542,0.026018165288493034,0.004851604749634862
1761506836307583200,2.643583251953125,0.003258709535002708,0.01793115881420672,0.008990458120033145
1761506836317555200,2.65355517578125,0.013452186769247055,0.006058934712782502,0.008971607289090753
1761506836327526400,2.6635263671875,0.05311024341881275,0.0028146920945495368,0.026985366352833808
1761506836337498000,2.673498046875,0.0849012199550867,-0.0027861966524273156,0.047512240748666223
1761506836347470300,2.68347021484375,0.059171735414862627,-0.003386062241718173,0.03896170841585844
1761506836357442000,2.693442138671875,0.024538228929042814,0.006067118019238114,0.012755838535539805
1761506836367413200,2.703413330078125,0.008928571864962577,-0.0017952128536999224,-0.026162030738592145
1761506836377385200,2.71338525390625,-0.014350596913695335,0.002437090953812003,-0.031208025549165904
1761506836387357200,2.723357177734375,-0.04219780426025391,0.009486790269613266,-0.03352890624478459
1761506836397329400,2.733329345703125,-0.07073474743664264,-0.003199672824144363,-0.037733993251807985
1761506836407301000,2.743301025390625,-0.08212766358852386,-0.006719079121947288,-0.04928783558644354
1761506836417272300,2.753272216796875,-0.0407078579634428,-0.01117386657372117,-0.04283007428180426
1761506836427244300,2.763244384765625,0.00000526069700717926,-0.023150062506273387,-0.04675893816333264
1761506836437216300,2.77321630859375,0.03572363981008529,-0.0270751269955188,-0.030688714382797477
1761506836447188200,2.783188232421875,0.03472819903194904,-0.016145882832631468,-0.02606039699502289
1761506836457159200,2.7931591796875,0.014299158987402916,-0.015493191077560186,-0.002257934994623065
1761506836467131100,2.803131103515625,0.01224631811082363,-0.0045564942605793475,-0.008434870063886046
1761506836477103400,2.813103271484375,-0.01215221008658409,0.00860569658614695,-0.017554909380339084
1761506836487075300,2.823075439453125,-0.03304945216476917,0.013060484037920832,-0.025705044218711552
1761506836497047300,2.83304736328125,0.0008896423161029815,0.01686864414922893,-0.022282705087214708
1761506836507018200,2.843018310546875,0.0697170948266983,-0.004405614547803998,-0.010469590761885045
1761506836516990200,2.852990234375,0.10959142457544803,-0.027071254537999627,0.01903027916252613
1761506836526962200,2.862962158203125,0.13417641525566576,-0.024426146856695412,0.03520315959993749
1761506836536934100,2.87293408203125,0.10517185456752777,-0.01656681165844202,0.024237090557999906
1761506836546905300,2.8829052734375,0.022799276307225225,0.01009264720827341,0.000005297229625284672
1761506836556877000,2.892876953125,-0.05181494291126728,0.037272038295865055,-0.015130458712391555
1761506836566849300,2.902849365234375,-0.0768412476181984,0.04037124642021954,-0.00974145915042609
1761506836576821200,2.9128212890625,-0.06834522195160389,0.03397957262173295,0.02906845623720437
1761506836586793200,2.922793212890625,-0.02972819878757,0.018870704686641693,0.04946048873960972
1761506836596764400,2.932764404296875,0.00613514175415039,0.006817205734178424,0.03377330945990979
1761506836606736100,2.942736083984375,0.03150865246355533,0.0045792175490409134,0.00973842694312334
1761506836616708400,2.952708251953125,0.030151977157592772,-0.0014325170211493968,-0.0007592574020847678
1761506836626680000,2.96268017578125,0.03201660198569298,0.009792202956974506,-0.00490735352486372
1761506836636651300,2.9726513671875,0.036943536993861194,0.02086012493818998,0.0014975450813770293
1761506836646623200,2.982623291015625,0.036512159839272494,0.02223682011887431,-0.0011052578281611203
1761506836656595200,2.99259521484375,0.03022621143758297,0.009745148944854736,-0.007938428316451609
1761506836666567400,3.0025673828125,0.00850537801682949,-0.003599120470508933,-0.01695237690992653
1761506836676538000,3.0125380859375,-0.01502045899927616,-0.00652837885543704,-0.010357362559065221
1761506836686510300,3.02251025390625,-0.050853988924622534,0.007606748676672577,-0.018705723383277653
1761506836696482300,3.032482421875,-0.07685059996843338,0.02515913730636239,-0.012275398074835539
1761506836706454300,3.042454345703125,-0.07900339408814906,0.011333514114841818,-0.014138780793920159
1761506836716426500,3.052426513671875,-0.02427051790356636,0.004060819698125124,-0.01095014082044363
1761506836726397200,3.062397216796875,0.05224573554396629,-0.023909502571448683,0.0034239100340753793
1761506836736369400,3.072369384765625,0.1361228731483221,-0.05413512948714196,-0.017087657194770872
1761506836746341000,3.082341064453125,0.15808160697817802,-0.05979344750978052,-0.04083279951736331
1761506836756313300,3.092313232421875,0.12418050642013549,-0.029347455841675398,-0.05023231336232274
1761506836766284300,3.1022841796875,0.07257716043293476,-0.013666048715636134,-0.06409706298783421
1761506836776256300,3.11225634765625,-0.029644612157344815,0.0075001464970409866,-0.07603175786621869
1761506836786228200,3.122228271484375,-0.12282032398283481,0.020972426206246016,-0.06246197259929031
1761506836796200200,3.1322001953125,-0.15262158800661563,0.03172024938762188,-0.03551803423538804
1761506836806172400,3.14217236328125,-0.14424948098063467,0.02703501418083906,0.007155570843070745
1761506836816143400,3.152143310546875,-0.10451894361674785,0.02116612214744091,0.03677011665571481
1761506836826115300,3.162115234375,-0.035704935109615324,0.021825170578062533,0.05309215977285057
1761506836836087300,3.17208740234375,0.06253448984622954,0.006590192045271396,0.034279688079468906
1761506836846059300,3.182059326171875,0.13154022153317926,0.0003298895414918661,0.004922989485412836
1761506836856030200,3.1920302734375,0.11997194881439208,0.010008183795213699,0.006822356833331287
1761506836866002400,3.20200244140625,0.07756547023952007,0.017096242360025642,0.0035064737509936093
1761506836875974100,3.21197412109375,0.042938393494486804,0.01784450344406068,0.010370222040638326
1761506836885946400,3.2219462890625,-0.024579729983210563,0.037733518327772615,0.005669898862577975
1761506836895918300,3.23191845703125,-0.06804068604707718,0.047882279637455935,0.025807043288461864
1761506836905889300,3.24188916015625,-0.06466448761224747,0.04636142674572766,0.04074596148412674
1761506836915861200,3.251861328125,-0.04894844756424427,0.047676820193231106,0.028081016102433205
1761506836925833200,3.261833251953125,-0.04549100058674812,0.049016471299156546,0.0011938494270667434
1761506836935805400,3.271805419921875,-0.014292729246616363,0.05416939708292484,-0.022850641168281435
1761506836945776000,3.281776123046875,0.028922143101692197,0.037784883188828826,-0.030250103769823906
1761506836955748400,3.291748291015625,0.0738344670176506,0.02172287924736738,-0.03151369396485388
1761506836965720300,3.30172021484375,0.0990530794262886,0.019210896426439285,-0.029108240258321164
1761506836975692300,3.3116923828125,0.09515256485641002,0.024965002973750233,-0.024066994688101112
1761506836985663500,3.32166357421875,0.07633096000850201,0.017241861375793813,-0.04160900805424898
1761506836995635200,3.33163525390625,0.01878361092507839,0.03226005535274744,-0.06242642636187374
1761506837005607400,3.341607421875,-0.05464753598868847,0.05394048369787633,-0.06568458790760487
1761506837015579100,3.3515791015625,-0.08282499820291996,0.05839848602004349,-0.05263400420919061
1761506837025551400,3.36155126953125,-0.058603580138087266,0.059950903093814845,-0.039654622583463785
1761506837035522300,3.371522216796875,0.00817336958348751,0.04052987104803323,-0.01720901855211705
1761506837045494300,3.381494384765625,0.08119009047746657,0.013883052467182277,-0.008430668812803924
1761506837055466500,3.391466552734375,0.11656652428507804,-0.018500629265233874,-0.016699351996928454
1761506837065438200,3.401438232421875,0.1335609137058258,-0.019435498962551354,-0.033952428886480625
1761506837075409400,3.411409423828125,0.0877548558205366,-0.002959361262246966,-0.06032488750535994
1761506837085381400,3.42138134765625,0.05033434896469116,-0.0010589344684034585,-0.05050612533502281
1761506837095353300,3.431353271484375,0.000848141261935234,0.008217647116631269,-0.021828896905109287
1761506837105325300,3.4413251953125,-0.07338613872826098,0.007920929192379116,-0.004903408002108335
1761506837115297300,3.45129736328125,-0.10771978548467159,0.011287409950792788,0.0023433117231354116
1761506837125268200,3.461268310546875,-0.10117197127640247,0.011284195080399512,-0.011534041655622423
1761506837135240200,3.471240234375,-0.0619137275993824,0.018132088213786483,-0.014005692466162144
1761506837145212400,3.48121240234375,0.016421557968854902,0.01415397836305201,-0.022053718636929988
1761506837155184400,3.491184326171875,0.10945113932192325,-0.013851853611320256,-0.039775983940809966
1761506837165155300,3.5011552734375,0.21079086838066577,-0.05146072264611721,-0.0340690410034731
1761506837175127300,3.511127197265625,0.24017887542843816,-0.07607756976932287,-0.039110651899874206
1761506837185099300,3.521099365234375,0.20376316170096395,-0.07066774661503732,-0.028700280511938035
1761506837195071200,3.5310712890625,0.11668459770679473,-0.06292853066511452,-0.03829301537405699
1761506837205042400,3.54104248046875,-0.02450666474699974,-0.01785604775138199,-0.06108666565809399
1761506837215014100,3.55101416015625,-0.13727555031478403,0.03185132842138409,-0.03429700454045087
1761506837224986400,3.560986328125,-0.19437340206503867,0.061307870660722255,-0.003326952465623617
1761506837234958300,3.570958251953125,-0.2028600753813982,0.09033953855149447,0.027208361453749236
1761506837244930300,3.580930419921875,-0.15430559557080267,0.09599310733377933,0.05595087367221713
1761506837254901500,3.590901611328125,-0.09496844046115875,0.08934110209867357,0.06829447814505547
1761506837264873200,3.600873291015625,-0.017634440889954566,0.07067607605196535,0.054859388641081745
1761506837274845400,3.610845458984375,0.029936873102188108,0.06301533216573298,0.04717917286939919
1761506837284817200,3.620817138671875,0.05156593658626079,0.061546867048367856,0.030468970684893428
1761506837294789400,3.630789306640625,0.05872048451602459,0.05042546131424606,0.02725461174827069
1761506837304760300,3.64076025390625,0.039466333469748496,0.047139133119955656,0.042492001433856785
1761506837314732300,3.650732177734375,0.0017781155884265898,0.052178515526652335,0.051303741986118256
1761506837324704500,3.66070458984375,-0.0056850598990917205,0.03597191548272967,0.041161227754130954
1761506837334676200,3.67067626953125,0.00701660076379776,0.004449088363349438,0.027415428333170712
1761506837344647400,3.6806474609375,0.018971242451667786,-0.014505349083989857,0.0048027971718460315
1761506837354619400,3.690619384765625,0.04389700939357281,-0.01772263063006103,-0.021016082684881983
1761506837364591400,3.70059130859375,0.07891220867335796,-0.019436741071566937,-0.041908283261768514
1761506837374563300,3.710563232421875,0.12109423084259033,-0.04292757983952761,-0.04833214229680598
1761506837384534300,3.7205341796875,0.1595516795307398,-0.07389956814311445,-0.04557882500067353
1761506837394506200,3.73050634765625,0.16808686816394328,-0.09407105323001742,-0.02602415663786232
1761506837404478200,3.740478271484375,0.12195581610798835,-0.07107917696014046,-0.021395035532489417
1761506837414450400,3.750450439453125,0.06407002885043621,-0.06203874221853912,-0.024154892167262732
1761506837424422100,3.760422119140625,-0.021036942809820176,-0.029339710926637053,-0.022015176724828778
1761506837434393300,3.770393310546875,-0.10351590405404568,-0.007456453485786914,-0.03146108699478209
1761506837444365300,3.780365234375,-0.15825520997941492,0.017866715275868774,-0.0305565393704921
1761506837454337300,3.790337158203125,-0.1590922453254461,0.037641894521564245,-0.0064762833420187235
1761506837464309200,3.800309326171875,-0.11455635350644588,0.04031184438318014,0.027229075448215005
1761506837474280400,3.810280517578125,-0.07580722839534282,0.031238822546228763,0.04251008507981896
1761506837484252200,3.820252197265625,-0.057763622182607645,0.04379347595386207,0.041603016704879696
1761506837494224400,3.830224365234375,-0.04710486552417278,0.04322239806763827,0.028491752327792344
1761506837504196400,3.8401962890625,-0.040029812571406365,0.03846468214653432,0.017828063765913248
1761506837514167300,3.850167236328125,-0.00734334850013256,0.03550919334180653,0.02316237399857491
1761506837524139500,3.860139404296875,0.045589784786105154,0.019418693958222866,0.027386786760576067
1761506837534111200,3.870111328125,0.07657879728972912,0.011372969342395662,0.03696556616257876
1761506837544083500,3.88008349609375,0.09866144976019858,-0.005820668977499008,0.026708120314031837
1761506837554055200,3.89005517578125,0.09800795428752898,-0.005054141584411263,-0.022044731612876057
1761506837564026400,3.9000263671875,0.043937925925850864,-0.004142871958389878,-0.061455718166194856
1761506837573998300,3.909998291015625,0.002246317622065544,0.0015169073689728974,-0.06569916442222892
1761506837583970300,3.91997021484375,0.00032850130200386043,0.007253478259593248,-0.05105835239030421
1761506837593942500,3.929942626953125,0.03553016306459904,-0.002436287236213684,-0.04764872660990804
1761506837603913200,3.939913330078125,0.07837970923185349,-0.017650149915739894,-0.02540690152235329
1761506837613885400,3.949885498046875,0.10613865377306937,-0.022387188374996186,-0.03144672967586666
1761506837623857200,3.959857177734375,0.11034136615991592,-0.019514263287186622,-0.04868219784349203
1761506837633829400,3.969829345703125,0.07929623955488205,-0.00856580296717584,-0.06517667491808533
1761506837643801000,3.979801025390625,0.016768763971328735,0.011674582637473941,-0.05949278406277299
1761506837653772300,3.989772216796875,-0.034795419049263,0.024717677149176595,-0.05534907185416668
1761506837663744300,3.999744140625,-0.08236614851951599,0.030853987947106358,-0.053154155625775454
1761506837673716200,4.00971630859375,-0.07977963915765285,0.014826982253789901,-0.05048033330664038
1761506837683688400,4.0196884765625,-0.06725742671489715,0.00442358859591186,-0.03763583010695874
1761506837693659400,4.029659423828125,-0.03326864787340164,-0.002043999982997775,-0.0077912018654868005
1761506837703631400,4.03963134765625,0.005202244818210602,-0.002135331528261304,0.010123188477009534
1761506837713603000,4.04960302734375,0.0006178396373987198,0.00307955357581377,0.01164440669491887
1761506837723574800,4.05957470703125,-0.00015957447588443754,0.014307926815748214,0.021969584017433225
1761506837733547000,4.069547119140625,0.008240589600801467,0.010950798407569526,0.043031880464218554
1761506837743518000,4.07951806640625,0.043752632486820216,0.010473244023695587,0.05782952702566981
1761506837753490000,4.089489990234375,0.05155950684547424,0.020295695988461374,0.05500098906885832
1761506837763462100,4.099462158203125,0.017419336834549902,0.025222119539976117,0.049599751079827545
1761506837773433900,4.109433837890625,-0.032194296640157695,0.046067266104742884,0.016454291194677353
1761506837783405000,4.119405029296875,-0.06152326697707176,0.07408186590746045,-0.0106866675786674
1761506837793377000,4.129376953125,-0.046645431318879126,0.06476919009573757,-0.012036036361008882
1761506837803349000,4.139348876953125,0.02550093648135662,0.047963528180122374,-0.012372538306377828
1761506837813321000,4.149321044921875,0.11142097809016704,0.019580021999776362,0.02146039238628
1761506837823293000,4.15929296875,0.15117898798286913,-0.01211399696804583,0.031283501938171684
1761506837833263900,4.169263916015625,0.14634031578004358,-0.012523892943188548,0.029684907635115085
1761506837843236000,4.179236083984375,0.06820610574185848,0.014169687388837336,-0.015764299636520443
1761506837853208000,4.1892080078125,-0.06427870316505432,0.039349940548464656,-0.07142265663556754
1761506837863180000,4.199179931640625,-0.13632628676593303,0.046818888189643616,-0.07830803223513066
1761506837873151000,4.20915087890625,-0.1609492713689804,0.06283076937906444,-0.07382241125367582
1761506837883123000,4.219123046875,-0.12342939579188823,0.03675809742435813,-0.04471059079878032
1761506837893095000,4.229094970703125,-0.04997369895875454,0.015299202875420451,-0.008656951849348843
1761506837903067000,4.23906689453125,0.057259179791808126,-0.0024885288801044223,0.0028099063215777276
1761506837913038000,4.2490380859375,0.1511936010301113,-0.03771422910541296,-0.011016593652777374
1761506837923009800,4.259009765625,0.2007335847467184,-0.05188610845133662,-0.02594663442224264
1761506837932982000,4.26898193359375,0.20497838270962238,-0.044773134640976785,-0.051067814338393504
1761506837942954000,4.2789541015625,0.17429390611052512,-0.027268165349587797,-0.05976688829641789
1761506837952926000,4.288926025390625,0.0970312182098627,-0.01950074621848762,-0.05755856459718197
1761506837962897200,4.298897216796875,-0.005485737934708595,-0.002227685986831784,-0.056204884965904055
1761506837972868900,4.308868896484375,-0.13375029879808426,0.00843085147589445,-0.04668010077346116
1761506837982841000,4.318841064453125,-0.26308921089470383,0.03088080288879573,-0.03594590425863862
1761506837992812800,4.328812744140625,-0.3242559195190668,0.04823372342363,-0.006585406272299588
1761506838002784000,4.338783935546875,-0.2634194657623768,0.0489426023453474,0.01724229976721108
1761506838012756000,4.348755859375,-0.1757891131043434,0.039636064013466234,0.041545185570418836
1761506838022728000,4.35872802734375,-0.04983633631467819,0.021099998108670113,0.06740341105684637
1761506838032700200,4.3687001953125,0.08877718460559844,0.007678790999576449,0.09473978280443697
1761506838042670800,4.3786708984375,0.1295487554550171,0.01720861669331789,0.09435352343320846
1761506838052643000,4.38864306640625,0.08438274903893471,0.04544467722699046,0.09098872317522763
1761506838062615000,4.398614990234375,0.00651683454811573,0.08516125913076102,0.07212948973067104
1761506838072587000,4.4085869140625,-0.046643093231320376,0.10209580812305212,0.06543539891950785
1761506838082559000,4.41855908203125,-0.060978492575883864,0.09848112475723028,0.08840327325928955
1761506838092530000,4.428530029296875,0.006611527094244956,0.0806062261749059,0.08512238842509687
1761506838102502000,4.438501953125,0.0924918212145567,0.06506495817191899,0.07466741071045398
1761506838112473900,4.448473876953125,0.1801379559636116,0.04906096802800893,0.0599526201268658
1761506838122446000,4.458446044921875,0.21897885101139544,0.026402634561434386,0.026806210393644867
1761506838132417000,4.4684169921875,0.2056605197548866,0.012860869812592863,-0.010300737001001835
1761506838142389000,4.478388916015625,0.17578560597300527,0.0001128127247095108,-0.05154478420037776
1761506838152361000,4.48836083984375,0.14576748432815073,0.0024867022491991517,-0.06775262635331601
1761506838162333000,4.4983330078125,0.10731529633700847,-0.009319324748218059,-0.0863586887544021
1761506838172305000,4.508304931640625,0.07648293569982051,-0.007754486584290862,-0.07831833443343639
1761506838182276000,4.518276123046875,0.07881342447400093,-0.019307927060127256,-0.06189593621436506
1761506838192247800,4.528247802734375,0.043674306553602216,-0.015261135887354612,-0.07063808212913572
1761506838202220000,4.538219970703125,-0.0391132822483778,0.0023407179072499275,-0.06466715449336916
1761506838212192000,4.54819189453125,-0.13738427138626574,0.035902795769274236,-0.07119093023892492
1761506838222163000,4.558162841796875,-0.1703483833551407,0.03956782108284533,-0.03542582590728998
1761506838232135200,4.56813525390625,-0.13427344588935375,0.037750980919227003,0.0026402853757143017
1761506838242107000,4.57810693359375,-0.08042728941142559,0.013510419762507081,0.03702690442837774
1761506838252079000,4.5880791015625,-0.04898702600896358,0.0027668343648314473,0.07525697410143911
1761506838262049800,4.5980498046875,-0.034983050575852395,0.023722528631985186,0.0893655789528042
1761506838272022000,4.60802197265625,-0.019227263039350507,0.04626476143822074,0.0990855569237843
1761506838281994000,4.617993896484375,-0.001405190622806549,0.04952909699641168,0.07103570314459502
1761506838291966000,4.627966064453125,-0.006674070936441421,0.04324051824621856,0.0375072718238458
1761506838301938200,4.637938232421875,-0.0632294863730669,0.05911152966022491,0.02176792396549135
1761506838311908900,4.647908935546875,-0.11489888333380222,0.08742460095286368,0.013359247788786888
1761506838321881000,4.657881103515625,-0.12315934667885303,0.11640037393793463,0.024986338022723792
1761506838331852800,4.667852783203125,-0.10321662884652615,0.12122414083257317,0.022118052577413616
1761506838341825000,4.677824951171875,-0.05135550870597362,0.10095591737292707,0.01086629846189171
1761506838351796000,4.6877958984375,0.018287351840734482,0.07490487272813916,-0.0050165860529989
1761506838361768000,4.697767822265625,0.12756781077086926,0.035827465510740876,-0.030883506302535533
1761506838371740000,4.707739990234375,0.19597849917411803,0.0011607874076813459,-0.042374914392828936
1761506838381712000,4.7177119140625,0.2287754378825426,-0.022397052181884643,-0.04287029669433832
1761506838391684000,4.72768408203125,0.22402795109450815,-0.01907835608795285,-0.05850841266792267
1761506838401655000,4.737655029296875,0.17129764690399168,-0.0007267068393528462,-0.08071290141977369
1761506838411627000,4.747626953125,0.1096148054510355,0.0000282031811773777,-0.10917104373890905
1761506838421599000,4.757598876953125,0.04871346976459026,0.020728315252065657,-0.13425386440604925
1761506838431571000,4.767571044921875,0.00888882437646389,0.02939275628812611,-0.11651870308797806
1761506838441542000,4.7775419921875,0.017407061874866486,0.00808459532149136,-0.09007058541700243
1761506838451514000,4.78751416015625,0.06225684194862842,-0.01862038318738341,-0.06683638829123228
1761506838461485800,4.79748583984375,0.07396656896471977,-0.03986388141997158,-0.038873007219098504
1761506838471458000,4.8074580078125,0.04770633854866028,-0.028633754614368078,-0.03899104410819709
1761506838481430000,4.817429931640625,-0.028080431580543515,-0.002035451350361109,-0.04897913496345281
1761506838491401000,4.82740087890625,-0.11024141291677951,0.013714710162952542,-0.0635872868347913
1761506838501373000,4.837373046875,-0.16372282773554325,0.02480330960601568,-0.0559021026270464
1761506838511345000,4.847344970703125,-0.18307108680605888,0.025274141988158225,-0.022174860798567533
1761506838521317000,4.857317138671875,-0.13977262782752514,0.01161605738326907,0.022002646036818622
1761506838531287800,4.867287841796875,-0.05431318946778774,-0.010790858605504034,0.06413976961839944
1761506838541260000,4.877260009765625,0.038839141482114786,-0.02051284587047994,0.07276190588269382
1761506838551231700,4.887231689453125,0.11166413919627666,-0.04652538513578474,0.04811196020748466
1761506838561204000,4.897203857421875,0.15411211882531642,-0.051415933656319975,0.01869786887038499
1761506838571175000,4.9071748046875,0.12717442753911018,-0.024544147213175892,-0.012933752385713159
1761506838581147000,4.91714697265625,0.047722120639681814,0.002088935103267431,-0.024777006120979786
1761506838591119000,4.927119140625,-0.009974281525611877,0.0074589377038180825,-0.008973872311413288
1761506838601090800,4.9370908203125,-0.01714578059017658,0.002650952900201082,0.004084748562984168
1761506838611063000,4.94706298828125,-0.04716565580070019,-0.020242358366027474,-0.001041581474803388
1761506838621034000,4.957033935546875,-0.0753986475944519,-0.00827361508756876,0.004717749236896634
1761506838631006000,4.967005859375,-0.08371873217225075,0.01282777126058936,-0.0037547859562560913
1761506838640978000,4.97697802734375,-0.06458791524469852,0.01547317120283842,-0.00720353817064315
1761506838650950000,4.986949951171875,-0.026266660156846044,0.004979468913003802,0.0018651728173717855
1761506838660920800,4.9969208984375,0.015743512576818466,-0.008642813726142048,0.025203341774269937
1761506838670893000,5.00689306640625,0.042726212048530575,-0.006809460819140076,0.02749448491875082
1761506838680865000,5.016864990234375,0.01516600494980812,0.012136793321743607,0.036137956232018764
1761506838690837000,5.0268369140625,-0.017588848182559014,0.012623042468726635,0.03468030476961285
1761506838700809000,5.03680908203125,-0.026275427985191342,0.006156330672651529,0.0365520169256255
1761506838710780400,5.046780517578125,-0.03157002726197242,-0.00454246573522687,0.02889211328960955
1761506838720752400,5.05675244140625,-0.021091887867450712,-0.0032044220644980668,0.030237134690396485
1761506838730724400,5.066724365234375,0.014731705185770988,-0.00933634894825518,0.05045896172504872
1761506838740696300,5.0766962890625,0.05545125358700752,-0.005016805248707533,0.06143478497602045
1761506838750667300,5.086667236328125,0.0772936675608158,-0.008022928262129426,0.06406436629462987
1761506838760639500,5.096639404296875,0.11097966406345366,-0.032898060995340345,0.061621868513338264
1761506838770611500,5.106611572265625,0.13547580741643905,-0.04167151536382734,0.048785731283202766
1761506838780583400,5.11658349609375,0.10475567498207092,-0.037287674256414174,0.03353003875594586
1761506838790554600,5.1265546875,0.05364858807921409,-0.041076691275835034,0.02447312780357897
1761506838800526300,5.1365263671875,0.012318798825144767,-0.0434838254828006,0.000590695902146399
1761506838810498600,5.14649853515625,-0.0248527017056942,-0.037290596865862606,0.0005422536505386233
1761506838820470300,5.15647021484375,-0.07247662266790866,-0.017975071021169423,0.0012017770051956176
1761506838830442500,5.1664423828125,-0.10645721820294857,-0.013248919282108544,0.02631375070158392
1761506838840413400,5.176413330078125,-0.10213701691627503,-0.022398878812789916,0.024063889415562152
1761506838850385400,5.186385498046875,-0.07501403219103812,-0.01960815211571753,0.033170155934989454
1761506838860357600,5.196357666015625,-0.0174848032861948,-0.025859248399734497,0.03594612345434725
1761506838870329300,5.206329345703125,0.03790156837105751,-0.027322525885328647,0.029107509605959057
1761506838880300500,5.216300537109375,0.05854512794911861,-0.022392522137239575,0.020472988784126935
1761506838890272300,5.226272216796875,0.0332224706441164,-0.00866780203692615,0.0015976079223677514
1761506838900244500,5.236244384765625,-0.01795417436361313,0.02867649777755141,-0.01996785227358341
1761506838910216400,5.246216552734375,-0.07458850025534629,0.05669453164637089,-0.02550100954659283
1761506838920187400,5.2561875,-0.07659399485886097,0.04734978019595146,-0.009001564035937189
1761506838930159400,5.266159423828125,-0.08831658135652541,0.05076587224975228,0.007100698850676417
1761506838940131300,5.27613134765625,-0.05897767414748668,0.05081131882667541,0.028902817346714436
1761506838950103600,5.286103515625,-0.00901858823597431,0.056229252222180365,0.028919914611987767
1761506838960075300,5.2960751953125,0.04725274956226349,0.04229936493858695,0.018898469476401804
1761506838970046500,5.30604638671875,0.09823241069316864,0.026090938263759016,0.010618095854483544
1761506838980018400,5.316018310546875,0.1255348436385393,0.00965761679187417,0.0006106061790138483
1761506838989990400,5.325990478515625,0.1266027651309967,-0.012274740487709641,-0.006614851562492549
1761506838999962400,5.33596240234375,0.09183131147921085,-0.017884835454449056,-0.007363477972708642
1761506839009933600,5.34593359375,0.04315232850611209,-0.008833513992652297,-0.021433285183645782
1761506839019905300,5.3559052734375,0.012830255478620529,0.01429506733417511,-0.039879736576229334
1761506839029877500,5.36587744140625,-0.001835398733615875,0.023459347651153803,-0.04177694849967956
1761506839039849500,5.375849365234375,-0.016238602617383004,0.028142244770377873,-0.08802253031339496
1761506839049820400,5.3858203125,-0.011415127983689308,0.018171105049923062,-0.11988744886871426
1761506839059792600,5.395792724609375,0.016666472640633583,-0.0013578443497419357,-0.11592716693561524
1761506839069764400,5.405764404296875,0.06389058063030242,-0.04071845242269337,-0.09123663352169097
1761506839079736600,5.415736572265625,0.12132745507657527,-0.05301927719973027,-0.04247621934283524
1761506839089708300,5.425708251953125,0.13313596629202365,-0.05324504877962172,-0.01760031942464411
1761506839099679500,5.435679443359375,0.11642390094399452,-0.03613528935089707,-0.011593407160043716
1761506839109651200,5.445651123046875,0.07402092950046062,-0.020946780308336018,-0.017104023807682094
1761506839119623400,5.45562353515625,-0.013161094868183135,0.014194529569149017,-0.029011392287723717
1761506839129595400,5.465595458984375,-0.0866577082335949,0.033741233821213246,-0.013723697187006473
1761506839139566300,5.47556640625,-0.10617314056456088,0.04943345460221171,0.018707367351092397
1761506839149538600,5.48553857421875,-0.07657996633350848,0.04813106676675379,0.07077098779380321
1761506839159510300,5.49551025390625,0.0005126256972551345,0.030567572221159932,0.09847560833189636
1761506839169482500,5.505482421875,0.071381228646636,0.0046207916684448715,0.10184351386241615
1761506839179454200,5.5154541015625,0.11255670412182807,0.004790960603579878,0.09233228327129035
1761506839189425400,5.52542529296875,0.08814180931150913,0.028074294100701808,0.05632343331165612
1761506839199397400,5.5353974609375,0.042756022664904594,0.05556910781301558,0.037524624817445874
1761506839209369300,5.545369384765625,-0.003831540986895561,0.06748290603384376,0.033701230604387816
1761506839219341600,5.555341552734375,-0.0724187550008297,0.06713365420475602,0.03396116018220782
1761506839229312500,5.5653125,-0.133400170186162,0.07089461417347193,0.04279810824096202
1761506839239284500,5.575284423828125,-0.15139993725717066,0.07317388421706855,0.04990439658220857
1761506839249256400,5.58525634765625,-0.13779869740605352,0.08242503909990191,0.03310417802669108
1761506839259228400,5.595228515625,-0.08290800031125545,0.05402377806715667,0.019256452601216733
1761506839269199400,5.605199462890625,0.031063831305503845,0.028280849523469802,-0.017296550705097613
1761506839279171600,5.615171630859375,0.10491115780472755,0.00021261983737349508,-0.030094694012403486
1761506839289143300,5.625143310546875,0.16448153714835642,-0.00610847294293344,-0.042322599683701986
1761506839299115500,5.635115478515625,0.1655032814115286,-0.018009996204078196,-0.06274082607328892
1761506839309087500,5.64508740234375,0.10083294858038425,-0.0058749564480036496,-0.09813329770024866
1761506839319058400,5.655058349609375,0.042298926547169685,0.010404635766893624,-0.10374945708159357
1761506839329030400,5.665030517578125,0.00909925225675106,0.005835355089977384,-0.09853533916249871
1761506839339002400,5.67500244140625,0.012851298266649245,0.0009540858544409274,-0.0783015294291079
1761506839348974600,5.684974609375,0.013945523244142532,-0.0019071487955749033,-0.06726692519560457
1761506839358945300,5.6949453125,0.03146422879993915,0.012591916678100824,-0.06821644447278231
1761506839368917500,5.70491748046875,0.0349392114341259,0.001234217970073223,-0.07485803791172801
1761506839378889200,5.71488916015625,0.03612228373885155,-0.010421513836458325,-0.08194372185636312
1761506839388861400,5.724861328125,0.030991935113072393,-0.007753609801456332,-0.06952712521255015
1761506839398833400,5.73483349609375,0.01160451307594776,-0.005817234911397099,-0.04698153140544891
1761506839408804400,5.744804443359375,-0.008334113103151321,0.005494871089234948,-0.030061595460399982
1761506839418776600,5.754776611328125,-0.03836977040469646,0.0014176117129623888,-0.03212784380782396
1761506839428748300,5.764748291015625,-0.050119244909286494,0.0011631254952400923,-0.03402819753643125
1761506839438720500,5.774720458984375,-0.06195756674110889,0.002603387431427836,-0.01809285218194127
1761506839448691500,5.78469140625,-0.03900514569878578,-0.0055752428490668535,-0.0023685192296281454
1761506839458663400,5.794663330078125,-0.04657002799510956,0.010219050066918135,0.01079798246603459
1761506839468635400,5.804635498046875,-0.03448503792583942,0.010684183360636234,0.01733640779145062
1761506839478607400,5.814607421875,-0.02670037539899349,0.012847425809130071,0.014756072442047297
1761506839488578300,5.824578369140625,-0.004236030134558678,0.005737155412510037,0.01992989488337189
1761506839498550500,5.834550537109375,0.012997428739070891,0.0022633418221026658,0.015562128127925097
1761506839508522500,5.8445224609375,0.022611060258746145,0.008653115924447775,0.016637977198511362
1761506839518494500,5.854494384765625,0.00978197382390499,0.02742657078169286,0.0027501389583572742
1761506839528466400,5.864466552734375,0.00009527706801891326,0.041547888984158635,-0.002956329054944217
1761506839538437400,5.874437255859375,-0.0015045593440532684,0.04753624267876148,-0.008713285146467388
1761506839548409300,5.884409423828125,-0.03108838122487068,0.05474653938375413,-0.0314537439385429
1761506839558381300,5.89438134765625,-0.03347206149101257,0.059061553038656706,-0.02672839591708034
1761506839568353500,5.904353515625,0.007021276938915252,0.05295658722706139,-0.006851802123524248
1761506839578324200,5.91432421875,0.08098959946930408,0.029322102204710244,0.0016825827920809388
1761506839588296400,5.92429638671875,0.1382142924696207,0.00095342826731503,-0.0008711202787235379
1761506839598268400,5.934268310546875,0.167824417835474,-0.01006320191808045,-0.00013663199171423912
1761506839608240400,5.944240478515625,0.17167583256661892,-0.017760332291945815,-0.002849434614367783
1761506839618212400,5.95421240234375,0.10892448509931564,0.014705620896443724,-0.015905059814080594
1761506839628183300,5.964183349609375,0.04595101931393146,0.03678527769222855,-0.022771730713173746
1761506839638155500,5.974155517578125,-0.009394435811042785,0.04645334281288087,-0.03713076666165143
1761506839648127200,5.984127197265625,-0.017117723539471625,0.044243119417503474,-0.0408766386590898
1761506839658099500,5.994099365234375,0.006613280659914017,0.02205671431161463,-0.02588116797059774
1761506839668070400,6.0040703125,0.07441255916655064,-0.025068609478697178,-0.014938406739011405
1761506839678042400,6.01404248046875,0.11471651250422,-0.04478599412254989,0.0035286125175654887
1761506839688014600,6.0240146484375,0.10202771132290363,-0.037305721369758245,0.008352963934093714
1761506839697986300,6.033986328125,0.038036008405685426,-0.019985022604092954,0.009669818686321377
1761506839707957200,6.043957275390625,-0.04004208753108978,0.02429733284525573,-0.010405585614964366
1761506839717929500,6.053929443359375,-0.11856675819158553,0.040643487490341065,0.006524031473882496
1761506839727901200,6.063901123046875,-0.15670739601552486,0.03197890032380819,0.01682889666073024
1761506839737873400,6.073873291015625,-0.13672259260714054,0.004634674063324928,0.032399427290819585
1761506839747845400,6.083845458984375,-0.06142506729960441,-0.023585092922672628,0.0578800881691277
1761506839757816300,6.09381640625,0.004364624950289726,-0.029780440431460737,0.07332575031053275
1761506839767788300,6.103788330078125,0.05703180077672004,-0.025161183132976293,0.07108984448462724
1761506839777760300,6.11376025390625,0.07185235328972339,-0.019723887449875473,0.05364705370925366
1761506839787732500,6.123732421875,0.011092471900582313,-0.0009318740226328372,0.021365444111824033
1761506839797703200,6.133703125,-0.053497196909785265,0.027850933673605322,0.0053990825645625585
1761506839807675400,6.14367529296875,-0.09690554600358009,0.0323495602671057,0.014266352696344256
1761506839817647400,6.1536474609375,-0.09345102163553237,0.01983918439261615,0.030532354777306318
1761506839827619300,6.163619384765625,-0.06575929711163044,0.008717340267077088,0.04062200631089508
1761506839837590500,6.173590576171875,-0.023786533778905865,0.0032486995976418256,0.055631213263794776
1761506839847562200,6.183562255859375,0.02414718378484249,-0.0036707244019955395,0.034105719752050935
1761506839857534500,6.193534423828125,0.031472996628284455,-0.008617606219649314,0.00010850187577307224
1761506839867506200,6.203506103515625,0.03963935194909572,-0.000880363031104207,-0.026653613647818562
1761506839877478400,6.213478515625,0.028434651845693586,-0.014155220472067593,-0.015248130275309085
1761506839887449300,6.223449462890625,0.004571545699238777,-0.01910736298672855,-0.005015343943983316
1761506839897421300,6.23342138671875,0.015420271971821784,-0.01959156630709767,0.001955773710273206
1761506839907393500,6.2433935546875,0.016184826603531835,-0.006729162124544382,0.008279241110756994
1761506839917365200,6.253365234375,0.004926350486278533,0.0034876229200512168,-0.012372501773759722
1761506839927336400,6.26333642578125,-0.007417582780122756,0.011173208986595273,-0.01907072077076882
1761506839937308400,6.273308349609375,0.007450900527834892,0.00909304171167314,-0.01777969457954168
1761506839947280400,6.2832802734375,0.0333925665140152,0.01244074470438063,-0.027513810673728583
1761506839957252400,6.29325244140625,0.05458849927783012,0.004688742338120937,-0.008299334050714969
1761506839967223300,6.303223388671875,0.04334288264214992,0.013514730611443518,0.003744739486277103
1761506839977195300,6.3131953125,0.04004617918431758,0.01786291588358581,0.02066507729012519
1761506839987167200,6.323167236328125,0.04243804275691509,0.01941211808696389,0.02525817723404616
1761506839997139500,6.333139404296875,0.038411855980753896,0.018308759954944253,0.022887977503985166
1761506840007111400,6.343111328125,0.042186113822460174,0.011861483511701226,0.014300912553071974
1761506840017082400,6.353082275390625,0.025910101804137227,0.003058510787785053,0.0028674817277118563
1761506840027054300,6.363054443359375,-0.025705519142746925,0.008635507202520966,-0.02112677651774138
1761506840037026300,6.3730263671875,-0.0941255598962307,0.029706717608124017,-0.05414919454511255
1761506840046998300,6.382998291015625,-0.12762918556928635,0.027996625754609702,-0.08605400671940297
1761506840056969500,6.392969482421875,-0.1043687214910984,0.021544892331957815,-0.08230941336359829
1761506840066941200,6.402941162109375,-0.015767477974295615,-0.00029072657488286494,-0.06871478591635823
1761506840076913400,6.412913330078125,0.05669862329959869,-0.024039193365722893,-0.03786445123106241
1761506840086885400,6.422885498046875,0.10728431667685508,-0.03665310267992317,-0.038651035031490026
1761506840096857300,6.432857421875,0.11879764433801174,-0.027851372065022587,-0.06362133523486554
1761506840106828500,6.44282861328125,0.06413315721452235,-0.01830174569226801,-0.10559245459977537
1761506840116800300,6.45280029296875,0.007115969485044479,-0.007786854483932256,-0.13241433748658746
1761506840126772500,6.4627724609375,-0.013545710271596907,0.0058102206487208605,-0.1344405460845679
1761506840136744200,6.472744140625,-0.02020575268268585,0.006096197983250022,-0.10870583737995475
1761506840146715400,6.48271533203125,0.007616904744505882,0.00036963702999055385,-0.06767897659521549
1761506840156687400,6.492687255859375,0.025669278785586357,-0.002302504788711667,-0.04373392778635025
1761506840166659300,6.502659423828125,0.02859130371212959,0.0097543551646173,-0.03936988735795021
1761506840176631600,6.512631591796875,0.032117139750719066,0.02063961405530572,-0.03059124535769224
1761506840186602200,6.522602294921875,0.049596097818017,0.014667700038850307,-0.0255197142470628
1761506840196574500,6.532574462890625,0.08075579071342945,-0.002261222930252552,-0.010268076840415596
1761506840206546400,6.54254638671875,0.09056289897859096,-0.0002718757439404726,0.012913878641463816
1761506840216518400,6.552518310546875,0.07706395045816898,0.0061271776434034106,0.04618384168911725
1761506840226490400,6.562490478515625,0.05941665008664131,0.018552359452471134,0.05661204099468887
1761506840236461300,6.57246142578125,0.0251923089236021,0.031479499434307216,0.047714448789879675
1761506840246433300,6.582433349609375,0.0009726444244384765,0.04955225867629051,0.04250602995920926
1761506840256405200,6.5924052734375,-0.026598084068298337,0.05559884536415338,0.04638619586080312
1761506840266377500,6.60237744140625,-0.04617313763201236,0.05385273234918713,0.0579617751032114
1761506840276348400,6.612348388671875,-0.0190098208963871,0.04372296800091863,0.09347633873987943
1761506840286320400,6.6223203125,0.00000526069700717926,0.02904642706848681,0.11269815841913222
1761506840296292400,6.632292236328125,-0.009224924463033676,0.02258285707756877,0.1103966765437275
1761506840306264300,6.642264404296875,-0.05365560234189033,0.03782762635201216,0.09052790073044598
1761506840316236300,6.652236328125,-0.10740005201101302,0.06195837045870721,0.06952566390782594
1761506840326207500,6.66220751953125,-0.14327566751241683,0.06141878368929028,0.056312035134807224
1761506840336179200,6.67217919921875,-0.13445114054381846,0.054631388571485875,0.05090973769985139
1761506840346151400,6.6821513671875,-0.09479133032858371,0.04408274122402072,0.05453717094939202
1761506840356123400,6.692123291015625,-0.04378536571264267,0.023227073265239595,0.054415517331101
1761506840366094300,6.70209423828125,0.04901449853777885,0.0009822159703820944,0.06609313217587769
1761506840376066600,6.712066650390625,0.13570201738774776,-0.01902311876937747,0.06144556209836155
1761506840386038300,6.722038330078125,0.1738677896529436,-0.01791976063735783,0.03810618756506592
1761506840396010500,6.732010498046875,0.13841186086833476,0.005080664265155792,0.01406082018688321
1761506840405981200,6.741981201171875,0.1348112060278654,0.008670651581138372,-0.0042869931368157265
1761506840415953400,6.751953369140625,0.13363105633258818,-0.0018209318168461322,-0.015054397801496087
1761506840425925400,6.76192529296875,0.12181143920123576,-0.003224880330637097,-0.012103292910940944
1761506840435897300,6.7718974609375,0.09977028778493403,-0.01599602603316307,-0.0038217502452433105
1761506840445869600,6.78186962890625,0.05895780040323734,-0.010068243419378996,-0.018397095825523138
1761506840455840300,6.79184033203125,0.033252281260490416,-0.017649419263377784,-0.04641454517245292
1761506840465812500,6.8018125,-0.014564531925320624,-0.0026437194418162105,-0.07733604539781809
1761506840475784200,6.8117841796875,-0.06007949790954589,0.01414769475273788,-0.10420896435212343
1761506840485756400,6.82175634765625,-0.07430325357317924,0.017990853112190962,-0.1027525915313512
1761506840495727400,6.831727294921875,-0.05098316826224327,0.006150047062337398,-0.10105766071435064
1761506840505699300,6.84169921875,-0.04223638270497322,0.00002199263609945774,-0.08231485672369598
1761506840515671300,6.85167138671875,-0.06110591834783554,0.00912599413320422,-0.07878171416148542
1761506840525643300,6.861643310546875,-0.07961772659420967,0.025490853478759526,-0.058164531133696434
1761506840535614200,6.8716142578125,-0.08755144220292568,0.042593014122918244,-0.05264847112596035
1761506840545586400,6.88158642578125,-0.08547463592886924,0.04716558273546397,-0.045102695388905704
1761506840555558400,6.891558349609375,-0.09161328481435775,0.0537012681145221,-0.035369675273261965
1761506840565530400,6.9015302734375,-0.07064356202185154,0.04377287155725062,-0.018738237413391468
1761506840575502300,6.91150244140625,-0.02843932802081108,0.03850932500585914,-0.00626165421064943
1761506840585473300,6.921473388671875,-0.001835398733615875,0.019031740467250344,-0.006185775962844491
1761506840595445500,6.931445556640625,0.010655249527096749,0.007636778488755226,-0.0049467722197994585
1761506840605417200,6.941417236328125,0.01668400829732418,0.013274565180018544,-0.011646269858442247
1761506840615389400,6.951389404296875,0.02614800221323967,0.011268924446031451,-0.016913798465207217
1761506840625360100,6.961360107421875,0.03668284023106098,0.007020034829899669,-0.03296937266588211
1761506840635332400,6.971332275390625,0.04006780649423599,-0.0006994535062462091,-0.04968498167786747
1761506840645304300,6.98130419921875,0.0644189884185791,-0.019085808742046354,-0.07609229241441935
1761506840655276300,6.9912763671875,0.06546820521056651,-0.025740298195183274,-0.08707739495038985
1761506840665248500,7.00124853515625,0.054446460458636284,-0.03928067470453679,-0.10935403562299907
1761506840675219200,7.01121923828125,0.02581424021422863,-0.04343465257883072,-0.1151755448507145
1761506840685191400,7.02119140625,0.007691139024496078,-0.04613360933922231,-0.09201419376544653
1761506840695163100,7.0311630859375,-0.015964461851119993,-0.03458491810373962,-0.08060202492382378
1761506840705135400,7.04113525390625,-0.03632686640024185,-0.042318800291419024,-0.08424860126525163
1761506840715106300,7.051106201171875,0.005135609322786331,-0.04061769546195865,-0.057264184760488564
1761506840725078000,7.061078125,0.030163083073496817,-0.04995448280163109,-0.03386540819015354
1761506840735050200,7.07105029296875,0.047882864159345624,-0.03884980900660157,-0.023055954482033847
1761506840745022000,7.08102197265625,0.05126841494441032,-0.02593874337673187,-0.010552410207130014
1761506840754993200,7.0909931640625,0.01324234341084957,-0.013544614293053746,-0.010880582715570925
1761506840764965000,7.100965087890625,-0.03690905020236969,0.005581453394144773,-0.004164170474745333
1761506840774937000,7.11093701171875,-0.09011340164542198,0.025089652266725895,0.006445522877573967
1761506840784909300,7.120909423828125,-0.09552490530014038,0.03904964242763817,0.026533932790905237
1761506840794881000,7.130881103515625,-0.07576689638495444,0.04722235442399978,0.0599728957299143
1761506840804852200,7.140852294921875,-0.03756605280637741,0.049660906682536005,0.07763035216927527
1761506840814824200,7.15082421875,0.03246609931886196,0.023887729131057855,0.07734671292230487
1761506840824796200,7.160796142578125,0.07786182283759116,0.006937763373926282,0.08540365305189043
1761506840834768100,7.17076806640625,0.10050853893160819,0.00576499326750636,0.07132982725296169
1761506840844739000,7.180739013671875,0.08340718200504779,0.021821736511960624,0.05602854201830923
1761506840854711000,7.1907109375,0.051906712847948074,0.035326091859862206,0.046409942062571645
1761506840864683300,7.200683349609375,0.033459202009439463,0.04292312286011874,0.03798877173047512
1761506840874655200,7.2106552734375,0.05486147100031376,0.04496178908087313,0.03405749669615179
1761506840884626200,7.220626220703125,0.11668985840380192,0.008881006396189332,0.043979500045254825
1761506840894598100,7.23059814453125,0.18318974474966526,-0.041063320337608455,0.04895195469558239
1761506840904570000,7.240570068359375,0.20913024169206618,-0.05784523605145514,0.0730094874355942
1761506840914542000,7.2505419921875,0.17275953615009784,-0.04549209656529128,0.06388597752042115
1761506840924514000,7.26051416015625,0.11918635139465332,-0.02827164330370724,0.041364495241269464
1761506840934485200,7.2704853515625,0.13586626803874968,0.005732771498337388,0.03952566244155168
1761506840944457000,7.28045703125,0.11510288147330283,0.0017182751599699258,0.08178104210793971
1761506840954429200,7.29042919921875,-0.06501636978983878,-0.02865881599038839,-0.0026619857508689165
1761506840964401200,7.300401123046875,-0.16569149746000766,0.024784970231726763,-0.06855630741901696
1761506840974372000,7.3103720703125,-0.24570026919841764,0.024008652096986768,-0.026764818937331437
1761506840984344300,7.32034423828125,-0.22603753735125062,0.036608094494417306,0.04490852452367544
1761506840994316000,7.33031591796875,-0.15133213271796703,0.0544593930054456,0.09301204569637775
1761506841004288300,7.340288330078125,-0.0874456437408924,0.016726020808145402,0.10115494707636534
1761506841014260000,7.350260009765625,-0.03337210824787617,0.011016337924450635,0.0834423629162833
1761506841024231200,7.360231201171875,0.002869417956471443,0.019521569810807705,0.0474357779789716
1761506841034203400,7.370203369140625,0.0223299052298069,0.0037722120150923727,0.036593810240738094
1761506841044175000,7.380175048828125,-0.004211480215191841,0.012078121937066316,0.04315598176792264
1761506841054147300,7.390147216796875,-0.006944120049476623,0.021149609404057263,0.04211907646823674
1761506841064118300,7.4001181640625,-0.01929331401288509,0.019373393511772155,0.05108005276545882
1761506841074090200,7.41009033203125,-0.03787701845169067,0.022263269734382626,0.04334942198079079
1761506841084062200,7.420062255859375,-0.03264204040765762,0.01912891723141074,0.016010091091133653
1761506841094034200,7.4300341796875,0.010080079987645148,0.028309637226536868,-0.006351268722862005
1761506841104005000,7.440005126953125,0.07166530628502368,-0.0005269464835524559,-0.025516828170232472
1761506841113977000,7.44997705078125,0.11251520306766033,-0.010151026332005857,-0.05080927300006151
1761506841123949300,7.45994921875,0.14198971935510635,-0.021324746775254606,-0.05066690538730472
1761506841133921000,7.469921142578125,0.15142156456708908,-0.0043603871665894986,-0.05019534235280007
1761506841143893200,7.479893310546875,0.12370879725515842,0.029685894015803932,-0.051522901162132616
1761506841153864200,7.4898642578125,0.06742284640967845,0.05289550468958914,-0.036775925341993566
1761506841163836200,7.499836181640625,0.00975450129508972,0.062190717909857626,-0.027193145618308334
1761506841173808000,7.50980810546875,-0.0230009363591671,0.0794653855767101,-0.0072369289835914966
1761506841183780000,7.519780029296875,-0.03507248242497444,0.08780307887643575,-0.005714687852375209
1761506841193751000,7.5297509765625,-0.03702829266786575,0.08818089921288191,-0.003241210410930216
1761506841203723300,7.53972314453125,-0.03018354133963585,0.0929326968498528,-0.020448365799523888
1761506841213695200,7.5496953125,-0.011484686088562011,0.09683891050815582,-0.02542546009235084
1761506841223667200,7.559667236328125,-0.03694119890630245,0.10738660800755023,-0.03285900762658566
1761506841233638400,7.569638427734375,-0.057037645995616906,0.09959135102145374,-0.02551883746422827
1761506841243610000,7.579610107421875,-0.040484570601582524,0.06692980219572782,-0.033754422096349296
1761506841253582300,7.589582275390625,-0.030367665734887122,0.045548941319063306,-0.057369617896340784
1761506841263554000,7.599553955078125,-0.015911270359158514,0.03443535356521606,-0.057910227579064666
1761506841273526300,7.6095263671875,0.01963233670890331,-0.00026135434992611406,-0.06261259658373892
1761506841283497200,7.619497314453125,0.07080372101962566,-0.02834799647554755,-0.06887607742529361
1761506841293469200,7.62946923828125,0.10064473253190517,-0.04371661132536828,-0.07553970003295689
1761506841303441400,7.63944140625,0.10132511601150035,-0.05510244014933705,-0.0739275521285832
1761506841313413000,7.6494130859375,0.08770107980668544,-0.062188672083243725,-0.07805526305045932
1761506841323384300,7.65938427734375,0.05403028087317943,-0.07533814957886933,-0.08435315761826932
1761506841333356000,7.66935595703125,0.024838088658452034,-0.06170271519720554,-0.10787066519744694
1761506841343328300,7.679328369140625,-0.0005289923101663589,-0.05729359351806342,-0.09441716325394808
1761506841353300000,7.689300048828125,0.004319032242894172,-0.05223484882377088,-0.09053166359011083
1761506841363271200,7.699271240234375,0.01745908432304859,-0.028555501746386287,-0.08524999686013907
1761506841373243100,7.7092431640625,0.003260463100671768,-0.011113806949555874,-0.08229352167472243
1761506841383215000,7.719215087890625,-0.028530513435602187,0.014191095503047108,-0.08853829781580716
1761506841393187300,7.729187255859375,-0.08816694375276565,0.031915041307359934,-0.0880666617160663
1761506841403159000,7.739158935546875,-0.1253080491453409,0.03355316390320658,-0.07407101571988314
1761506841413130200,7.749130126953125,-0.101070264467597,0.029113574020564553,-0.04971541334874928
1761506841423102200,7.759102294921875,-0.05494973380565643,0.022008198994770644,-0.03718180272914469
1761506841433074200,7.76907421875,0.004732873740792274,0.01947685388624668,-0.04451974440179765
1761506841443046100,7.779046142578125,0.05943126313388347,0.0035096155561506748,-0.09803151782620698
1761506841453017300,7.789017333984375,0.16021978805065154,-0.004471080999448895,-0.08822119469065219
1761506841462989000,7.798989013671875,0.1591542046457529,-0.039846418828517194,-0.07920381203107535
1761506841472961300,7.808961181640625,0.11990648236274719,-0.035888694178685544,-0.05444309945777058
1761506841482933200,7.818933349609375,0.07230769584178924,0.00903700067549944,-0.03911105375867337
1761506841492904200,7.828904296875,0.03282967193424702,0.0008536211546510457,-0.05340126225464046
1761506841502876200,7.838876220703125,0.014871990439295768,0.009648629767820239,-0.07629833638053386
1761506841512848100,7.84884814453125,0.03865969326198101,-0.005386442278698086,-0.07312525930237025
1761506841522820400,7.8588203125,0.09308920258581638,-0.017022592601925134,-0.0449460800550878
1761506841532792000,7.8687919921875,0.14584522573947906,-0.023143413569778202,-0.02238444842863828
1761506841542763300,7.87876318359375,0.16486089185476302,-0.02952595421373844,0.027125761204212902
1761506841552735000,7.88873486328125,0.11692658976912498,-0.0285805631224066,0.05738693435732275
1761506841562707200,7.898707275390625,0.028750293666124343,-0.011349003944918513,0.09019026627391576
1761506841572679200,7.90867919921875,-0.052070378977060315,0.002771948931366205,0.10638871954400092
1761506841582650000,7.918650146484375,-0.08762743004858493,0.008323810904845595,0.11210633000582455
1761506841592622300,7.928622314453125,-0.09052958123087883,0.005729995019361376,0.1290152148338966
1761506841602594000,7.938593994140625,-0.08936170649528503,-0.003365750106051564,0.1632911583200097
1761506841612566300,7.948566162109375,-0.06372340736985206,-0.011524945033714174,0.19646841984922064
1761506841622537200,7.958537109375,-0.06673427962362766,-0.01588876626640558,0.18559002909073605
1761506841632509200,7.96850927734375,-0.08279927923977375,-0.010497282486408948,0.17791693717958404
1761506841642481200,7.978481201171875,-0.12320786199569701,-0.012086086047813296,0.1562861201298423
1761506841652453000,7.988453125,-0.15102233611643315,-0.014564604990556835,0.14049946253104134
1761506841662425300,7.99842529296875,-0.1256441492319107,0.0004876373864710331,0.1356307422498241
1761506841672396300,8.008396240234376,-0.07023615026473999,-0.00882416164241731,0.13788129765558987
1761506841682368300,8.0183681640625,-0.014527122524380683,-0.018112798991426825,0.13775111367097123
1761506841692340200,8.02834033203125,0.05408522593080997,-0.030945319492369887,0.13970904280571267
1761506841702312200,8.038312255859376,0.09405424822568893,-0.042659722683578725,0.11119144365061073
1761506841712282400,8.048282470703125,0.10673135896921157,-0.05348879440762102,0.08051980826677754
1761506841722254600,8.058254638671874,0.08639058173000812,-0.03588387187309563,0.05250502580096945
1761506841732226300,8.068226318359375,0.038057635715603826,-0.011073474939167499,0.02283021943476051
1761506841742198500,8.078198486328125,0.01775660596489906,0.012059563367068767,0.010951675190404056
1761506841752170200,8.088170166015624,0.007690554502606391,0.0021054478466510772,0.01094157392149791
1761506841762141400,8.098141357421875,0.002957096239924431,0.002810015919432044,0.016187712680362162
1761506841772113400,8.108113525390625,0.010991349613666533,0.01874006404429674,0.007868212624453008
1761506841782085400,8.11808544921875,0.02765197703540325,0.03619520284458995,0.010728387828543781
1761506841792057600,8.1280576171875,0.03187748577594757,0.031691680880263445,0.004415222626365721
1761506841802028500,8.138028564453125,0.02964578120112419,0.03855360253900289,0.0023185060754418374
1761506841812000500,8.14800048828125,0.00985387001633644,0.038849516745656724,0.0023907493277452885
1761506841821972500,8.157972412109375,0.015068974316120146,0.04980053434893489,0.011078388576302677
1761506841831944400,8.1679443359375,0.029490882900357243,0.06287965002208948,0.01584479926051572
1761506841841915400,8.177915283203125,-0.04943535429835319,0.08468801559582352,0.01811831541676074
1761506841851887400,8.187887451171875,-0.07150865441858768,0.11745682418830693,0.007551420026551931
1761506841861859300,8.197859375,-0.03007014409303665,0.07687704958394169,-0.002289846236538142
1761506841871831300,8.207831298828125,0.03498480414152145,0.04680281383767724,-0.011426233899593352
1761506841881802200,8.21780224609375,0.07238602177500725,0.04080357342287898,-0.0018621954089961944
1761506841891774500,8.2277744140625,0.09058394176661967,0.02610818165950477,-0.011975921937916427
1761506841901746400,8.237746337890625,0.10393442172706127,0.004711319496110081,-0.05539201594674959
1761506841911718400,8.247718505859375,0.07531973713934421,0.0034567893903702496,-0.0967351030738093
1761506841921690400,8.2576904296875,0.044943888098001476,-0.009616481063887477,-0.1077596791036427
1761506841931661300,8.267661376953125,0.02622866623401642,-0.0023898908112198114,-0.12366906803296879
1761506841941633500,8.277633544921875,0.02617547474205494,-0.014190291785448788,-0.12800651271538807
1761506841951605200,8.287605224609376,0.06110533382594585,-0.027701953656971454,-0.13355494062276557
1761506841961577500,8.297577392578125,0.1099848078072071,-0.03441745258234441,-0.14614906752426177
1761506841971548400,8.30754833984375,0.129927525639534,-0.03852247674837708,-0.1537819735554978
1761506841981520400,8.317520263671875,0.12873627002835272,-0.04126066954061389,-0.16148690364332868
1761506841991492600,8.32749267578125,0.09098200117349624,-0.02714410057850182,-0.16924714411497116
1761506842001464300,8.33746435546875,0.0212362647742033,0.014145064404234289,-0.156457567706611
1761506842011435500,8.347435546875,-0.026114684465527532,0.03090111502446234,-0.1483669627694413
1761506842021407500,8.357407470703125,-0.036281858214735986,0.03544679563008249,-0.11152197251291945
1761506842031379500,8.36737939453125,-0.036516836014389986,0.05799187798053026,-0.08907687993822619
1761506842041351400,8.377351318359375,-0.06649988634586333,0.05390066314414143,-0.08113647886039689
1761506842051323400,8.387323486328125,-0.05318506222069263,0.05403035393841564,-0.0625746757261455
1761506842061294300,8.39729443359375,-0.02103109759092331,0.0401380952514708,-0.05242500110100955
1761506842071266300,8.407266357421875,0.011488777741789817,0.03051956836096942,-0.03808214910235256
1761506842081238500,8.417238525390625,0.046052141600847245,0.010832286594435572,-0.010122567422501743
1761506842091210200,8.427210205078126,0.04943184716701507,0.0008106587957590818,-0.011230729593802244
1761506842101181400,8.437181396484375,0.022571897292137145,-0.016457725260779262,-0.028669154721312224
1761506842111153400,8.4471533203125,0.018370353949069974,-0.02264971176870167,-0.03232475461941212
1761506842121125400,8.45712548828125,0.006291209098696709,-0.03278086435645818,-0.02395025470694527
1761506842131097300,8.467097412109375,0.0066927756369113914,-0.040744828972965476,-0.0010446136821061372
1761506842141069300,8.4770693359375,0.01872866586744785,-0.04826916006319225,0.010764865647722034
1761506842151040300,8.487040283203125,0.0198462717205286,-0.043161388595402236,0.00880127395717427
1761506842161012500,8.497012451171875,0.02655015327334404,-0.050687327120825645,0.015295951472409069
1761506842170984400,8.506984375,0.03299801423847675,-0.04547112684249878,0.005194207642227411
1761506842180956400,8.516956298828125,-0.0015285247415304183,-0.031298443778976795,-0.021149974730238316
1761506842190927600,8.526927734375,-0.010147300004959106,-0.020971476358175277,-0.042151773161441086
1761506842200899300,8.5368994140625,0.006618541356921195,-0.0627333003539592,0.036027591192722315
1761506842210871600,8.54687158203125,0.019484452670812606,-0.04403371445052325,0.044540312265791
1761506842220843300,8.55684326171875,0.046806759360432625,-0.03362096844241023,0.06817932733278721
1761506842230814500,8.566814453125,0.02526128250658512,-0.01367642397917807,0.10871365536022931
1761506842240786400,8.576786376953125,0.004069441395998001,0.013542933792620896,0.12506660507228226
1761506842250758400,8.58675830078125,-0.02320785710811615,0.02786342782899737,0.11746659666365011
1761506842260730600,8.596730712890626,-0.07205284429788589,0.050382718151062725,0.11891845770608633
1761506842270702300,8.606702392578125,-0.10587503440082073,0.057405529459938404,0.11131949047707021
1761506842280673500,8.616673583984374,-0.12532500028014182,0.0687159549601376,0.11492801809674129
1761506842290645200,8.626645263671875,-0.068593059232831,0.06610664924457668,0.11970684987111016
1761506842300617500,8.636617431640625,-0.021059154641628264,0.060043330617621536,0.13442425253689289
1761506842310589400,8.64658935546875,0.04833236149251461,0.03383212697505951,0.11272132009901106
1761506842320560400,8.656560302734375,0.09742869309484958,0.023953926235064864,0.08991764161130412
1761506842330532400,8.666532470703125,0.08902326832115649,0.0023589111510664224,0.06305317995809018
1761506842340504300,8.67650439453125,0.032960020315647126,0.016901961896941063,0.04386128049306571
1761506842350476500,8.6864765625,-0.028621114328503606,0.035916093642264606,0.01550457098810002
1761506842360447500,8.696447509765624,-0.04499298793673515,0.018794643775746224,-0.07777292071143165
1761506842370419500,8.70641943359375,0.009273439779877662,-0.004583893724158406,-0.09888006094694136
1761506842380391400,8.716391357421875,0.04581248762607574,-0.04311170423477888,-0.0502421406365931
1761506842390363400,8.72636328125,0.04252279843091965,-0.0673387483227998,-0.05585519474539905
1761506842400335400,8.73633544921875,0.07125029574334621,-0.04991217802986502,-0.07628231682749465
1761506842410306600,8.746306640625,0.10750760403871536,-0.0558993626806885,-0.0861615587471053
1761506842420278300,8.7562783203125,0.13994623082876204,-0.07652494821064174,-0.06301595322024077
1761506842430250500,8.76625048828125,0.13101415183246135,-0.07232135904096067,-0.0706254601095803
1761506842440222500,8.776222412109375,0.07639175028502941,-0.060648749164864416,-0.08284183973986654
1761506842450193400,8.786193359375,0.01958849756717682,-0.03644369771294296,-0.07282802992146462
1761506842460165400,8.796165283203125,-0.06056465107798576,-0.0295445858489722,-0.04779542333791032
1761506842470137300,8.806137451171875,-0.13524901292324065,-0.020264789393544196,-0.02422150939637795
1761506842480109600,8.816109619140626,-0.14957622896134853,-0.007798837182670831,-0.020034780029952525
1761506842490080300,8.826080322265625,-0.15981529890298843,-0.01116144548356533,0.008446597034297882
1761506842500052500,8.836052490234374,-0.11969371639490127,-0.004888502693921327,0.026818065228220073
1761506842510024200,8.846024169921876,-0.0570335543423891,-0.023780834690481423,0.017596921891160307
1761506842519996400,8.855996337890625,0.03689677524268627,-0.05314732402618974,0.010125490031950176
1761506842529968400,8.865968505859374,0.1179015722811222,-0.07243607146181166,-0.028644769198726862
1761506842539939300,8.875939208984375,0.193395496943593,-0.08840984913054853,-0.05622587295500561
1761506842549911600,8.88591162109375,0.19033026415407656,-0.1034722110427916,-0.024762685334682462
1761506842559883300,8.89588330078125,0.07932371208369732,-0.09394837669841945,-0.023506748723145572
1761506842569855500,8.90585546875,-0.05724807387590408,-0.054400064033642406,-0.07889293771730735
1761506842579826400,8.915826416015625,-0.12798691296577452,-0.042193018487282095,-0.10522184945540503
1761506842589798400,8.92579833984375,-0.15871698227226733,-0.01296926209051162,-0.06226977449543774
1761506842599770400,8.935770263671875,-0.15205752438306808,-0.021149061414785682,-0.014269202240556477
1761506842609742300,8.945742431640625,-0.13318272804319858,-0.011982990999519823,-0.03169482268542051
1761506842619713300,8.95571337890625,-0.10483692352473735,0.04645714220516384,0.0009434365962632
1761506842629685500,8.965685546875,0.04050210625827312,0.08116839010231196,0.06920819545648992
1761506842639657500,8.975657470703124,0.2112690072864294,0.08809574168007821,0.06634307008264585
1761506842649629400,8.98562939453125,0.3017214316278696,0.034590178800746794,0.04884474972775206
1761506842659601400,8.995601318359375,0.308031929948926,-0.025238340022414922,0.007908453303296118
1761506842669572400,9.005572265625,0.14603285726606846,-0.00490121604502201,-0.036725784323643894
1761506842679544600,9.015544677734376,-0.08629472014009952,0.07606657345127314,-0.03219175762319937
