time,seconds_elapsed,z,y,x
1761506833744837400,0.08083740234375,0.01910441741347313,-0.04804094880819321,0.04571453109383583
1761506833754809300,0.090809326171875,0.0049984510987997055,-0.014769544824957848,0.03764062747359276
1761506833764780300,0.1007802734375,0.004472019150853157,0.020213700830936432,0.02919313684105873
1761506833774752300,0.110752197265625,0.006933312397450209,0.034359078854322433,0.023069998249411583
1761506833784724200,0.12072412109375,-0.005970384459942579,0.0263675469905138,0.033006131649017334
1761506833794696400,0.130696533203125,-0.02916571870446205,0.003730944823473692,0.04670809209346771
1761506833804667100,0.140667236328125,-0.04748697206377983,-0.01439538411796093,0.05413014441728592
1761506833814639400,0.150639404296875,-0.05548231676220894,-0.02107858657836914,0.05381828919053078
1761506833824611000,0.160611083984375,-0.0515170618891716,-0.019447553902864456,0.032969556748867035
1761506833834583300,0.170583251953125,-0.049922093749046326,-0.011414927430450916,0.009799525141716003
1761506833844555300,0.18055517578125,-0.05611667037010193,0.0014376058243215084,-0.015664711594581604
1761506833854526200,0.190526123046875,-0.058261580765247345,0.0070432936772704124,-0.03141411393880844
1761506833864498400,0.20049853515625,-0.06695490330457687,0.015406508930027485,-0.04201378673315048
1761506833874470100,0.21047021484375,-0.08210296928882599,0.023970169946551323,-0.042084094136953354
1761506833884442400,0.2204423828125,-0.08897928148508072,0.03656937554478645,-0.036475419998168945
1761506833894413300,0.230413330078125,-0.08508414030075073,0.04985668510198593,-0.043812960386276245
1761506833904385300,0.24038525390625,-0.0777440294623375,0.05271933600306511,-0.04486002027988434
1761506833914357200,0.250357177734375,-0.07735786586999893,0.054262638092041016,-0.05244390293955803
1761506833924329200,0.2603291015625,-0.07379032671451569,0.054359473288059235,-0.054948046803474426
1761506833934301400,0.270301513671875,-0.07025658339262009,0.05006565898656845,-0.057654350996017456
1761506833944272400,0.2802724609375,-0.07067344337701797,0.05675432085990906,-0.05803219601511955
1761506833954244400,0.290244384765625,-0.0645521730184555,0.06926106661558151,-0.0567978173494339
1761506833964216300,0.30021630859375,-0.054388634860515594,0.08033695816993713,-0.056699398905038834
1761506833974188300,0.310188232421875,-0.04219295457005501,0.08768488466739655,-0.06159215793013573
1761506833984159200,0.3201591796875,-0.03262029215693474,0.09047949314117432,-0.05562303960323334
1761506833994131200,0.330131103515625,-0.01626182720065117,0.07637805491685867,-0.04973505809903145
1761506834004103200,0.340103271484375,-0.003956839442253113,0.059997834265232086,-0.031063225120306015
1761506834014075400,0.350075439453125,-0.0035999761894345284,0.03107777051627636,-0.020101651549339294
1761506834024046000,0.360046142578125,-0.004799351096153259,0.01773306168615818,-0.012428078800439835
1761506834034018300,0.370018310546875,-0.006678477860987186,0.02254512719810009,-0.008152374066412449
1761506834043990300,0.379990234375,-0.003138954285532236,0.03992052003741264,-0.013390216045081615
1761506834053962200,0.389962158203125,0.007737128995358944,0.05944415554404259,-0.0172928124666214
1761506834063934200,0.399934326171875,0.016796261072158813,0.07465936243534088,-0.017650922760367393
1761506834073905200,0.4099052734375,0.019674072042107582,0.07236451655626297,-0.012493977323174477
1761506834083877400,0.41987744140625,0.022135745733976364,0.05641523748636246,0.001626577228307724
1761506834093849000,0.42984912109375,0.02198208123445511,0.03724793344736099,0.015370619483292103
1761506834103821300,0.4398212890625,0.02410324476659298,0.0194094255566597,0.02858114242553711
1761506834113792300,0.449792236328125,0.027391981333494186,0.013421307317912579,0.02912149764597416
1761506834123764200,0.45976416015625,0.03265960514545441,0.021281609311699867,0.024250071495771408
1761506834133736400,0.469736328125,0.033557355403900146,0.029511043801903725,0.001649422338232398
1761506834143708200,0.479708251953125,0.04104963317513466,0.03926270455121994,-0.005935856606811285
1761506834153680400,0.489680419921875,0.04494849964976311,0.03729382902383804,-0.01664123125374317
1761506834163651300,0.4996513671875,0.049549899995326996,0.025977076962590218,-0.020878994837403297
1761506834173623300,0.509623291015625,0.05311533808708191,0.002907710149884224,-0.018410511314868927
1761506834183595300,0.51959521484375,0.060011595487594604,-0.016900505870580673,-0.007276397664099932
1761506834193567200,0.529567138671875,0.060981255024671555,-0.033766306936740875,-0.0029618102125823498
1761506834203538200,0.5395380859375,0.06431225687265396,-0.03903038054704666,0.004006321541965008
1761506834213510400,0.549510498046875,0.06949929893016815,-0.03882824629545212,0.005878789350390434
1761506834223482400,0.559482421875,0.07755327969789505,-0.034493714570999146,-0.000573463155888021
1761506834233454300,0.569454345703125,0.07737085223197937,-0.02561286836862564,-0.0037855016998946667
1761506834243426300,0.57942626953125,0.07633571326732635,-0.029671737924218178,-0.002543490147218108
1761506834253397200,0.589397216796875,0.07039899379014969,-0.03253357112407684,-0.000056097633205354214
1761506834263369200,0.599369140625,0.06459137052297592,-0.03741072118282318,0.009830527938902378
1761506834273341200,0.609341064453125,0.05662266165018082,-0.04216340184211731,0.021328458562493324
1761506834283313200,0.619313232421875,0.04758589714765549,-0.03772715479135513,0.020060712471604347
1761506834293284400,0.629284423828125,0.03489859774708748,-0.03692048415541649,0.017899291589856148
1761506834303256300,0.63925634765625,0.030654508620500565,-0.02392459474503994,0.013182004913687706
1761506834313228300,0.649228271484375,0.02297954261302948,-0.014042668975889683,0.006441278848797083
1761506834323200300,0.6592001953125,0.005433917045593262,-0.0063609774224460125,-0.005907770246267319
1761506834333172200,0.669172119140625,-0.004423241131007671,0.0014008055441081524,-0.010202117264270782
1761506834343143200,0.67914306640625,-0.0146899139508605,0.004489454906433821,-0.011137154884636402
1761506834353115400,0.689115478515625,-0.019136060029268265,-0.0003236760385334492,-0.018839817494153976
1761506834363087400,0.69908740234375,-0.019454987719655037,-0.005826094187796116,-0.022704482078552246
1761506834373059300,0.709059326171875,-0.019371097907423973,-0.01183711551129818,-0.02946891263127327
1761506834383030500,0.719030517578125,-0.02605476975440979,-0.015531789511442184,-0.03439634293317795
1761506834393002200,0.729002197265625,-0.02895468845963478,-0.024085063487291336,-0.042730171233415604
1761506834402974500,0.738974365234375,-0.03205391764640808,-0.024167265743017197,-0.055318139493465424
1761506834412946200,0.7489462890625,-0.03005201742053032,-0.018211105838418007,-0.0717940479516983
1761506834422918400,0.75891845703125,-0.02514050155878067,-0.0120464488863945,-0.08408623188734055
1761506834432889300,0.768889404296875,-0.019396595656871796,-0.010343090631067753,-0.09369385242462158
1761506834442861300,0.778861328125,-0.009969465434551239,-0.011311301961541176,-0.09275180101394653
1761506834452833500,0.78883349609375,-0.002940052654594183,-0.02078949101269245,-0.09012804925441742
1761506834462805200,0.79880517578125,0.0010179835371673107,-0.02662850171327591,-0.08220455795526505
1761506834472776400,0.8087763671875,0.011519626714289188,-0.026588551700115204,-0.07889025658369064
1761506834482748200,0.818748046875,0.027212068438529968,-0.02941582351922989,-0.07398369908332825
1761506834492720400,0.828720458984375,0.03759227320551872,-0.030477358028292656,-0.06806562840938568
1761506834502692000,0.838692138671875,0.04847215861082077,-0.036290813237428665,-0.05952533707022667
1761506834512663300,0.848663330078125,0.05152574181556702,-0.053809355944395065,-0.057216644287109375
1761506834522635300,0.85863525390625,0.047792743891477585,-0.0685797855257988,-0.058765921741724014
1761506834532607200,0.868607177734375,0.039561446756124496,-0.06898006051778793,-0.061965178698301315
1761506834542579500,0.878579345703125,0.0321468710899353,-0.05505892261862755,-0.06146116554737091
1761506834552551200,0.88855126953125,0.02617286890745163,-0.02968539111316204,-0.06374402344226837
1761506834562522400,0.8985224609375,0.02891990914940834,-0.0032664709724485874,-0.06303656846284866
1761506834572494300,0.908494384765625,0.0349450446665287,0.016262754797935486,-0.06091642379760742
1761506834582466300,0.91846630859375,0.03494121506810188,0.015012979507446289,-0.06162435933947563
1761506834592438300,0.928438232421875,0.032670870423316956,0.005168338306248188,-0.06540071964263916
1761506834602409500,0.938409423828125,0.028606204316020012,-0.006286360323429108,-0.06427884846925735
1761506834612381200,0.948381103515625,0.02565861865878105,-0.0178506039083004,-0.06738436222076416
1761506834622353400,0.958353515625,0.025180382654070854,-0.010486438870429993,-0.06669022142887115
1761506834632325400,0.968325439453125,0.02967340126633644,0.0048885224387049675,-0.06032313406467438
1761506834642297300,0.97829736328125,0.0380115732550621,0.023352518677711487,-0.05235206335783005
1761506834652268300,0.988268310546875,0.04826927185058594,0.03053293190896511,-0.03820987790822983
1761506834662240300,0.998240234375,0.05618242919445038,0.02410731092095375,-0.021122466772794724
1761506834672212500,1.00821240234375,0.05708390846848488,-0.0012885936303064227,-0.0055147456005215645
1761506834682184200,1.01818408203125,0.052660249173641205,-0.021254228428006172,0.000968865817412734
1761506834692155400,1.0281552734375,0.0510634183883667,-0.03061816841363907,-0.0009842964354902506
1761506834702127000,1.038127197265625,0.049415457993745804,-0.02032429166138172,-0.004031016491353512
1761506834712099000,1.04809912109375,0.05084531009197235,0.0013090984430164099,-0.013039158657193184
1761506834722071000,1.058071044921875,0.05131116509437561,0.016435960307717323,-0.01772276684641838
1761506834732043000,1.06804296875,0.047265030443668365,0.019991280511021614,-0.018167249858379364
1761506834742014000,1.078013916015625,0.04511973261833191,0.00986490584909916,-0.014539668336510658
1761506834751986000,1.08798583984375,0.04809235781431198,-0.0025078747421503067,-0.0031341477297246456
1761506834761958100,1.097958251953125,0.0443742461502552,-0.022317640483379364,0.0032299160957336426
1761506834771929900,1.107929931640625,0.04045487195253372,-0.026121702045202255,0.00959407165646553
1761506834781901000,1.117901123046875,0.03790150582790375,-0.023890813812613487,0.009214898571372032
1761506834791873000,1.127873046875,0.03292219340801239,-0.01686086878180504,0.004751441068947315
1761506834801845000,1.137844970703125,0.027172081172466278,-0.002778632566332817,0.0010012101847678423
1761506834811817000,1.14781689453125,0.02328014001250267,-0.00018657767213881016,-0.0018036310793831944
1761506834821789000,1.157788818359375,0.02305903285741806,0.006309905555099249,-0.006204692646861076
1761506834831760000,1.167759765625,0.014978468418121338,0.005545844789594412,-0.011516899801790714
1761506834841732000,1.177732177734375,0.00330266822129488,0.004723547026515007,-0.015259727835655212
1761506834851704000,1.1877041015625,-0.007805376313626766,0.00019350985530763865,-0.016966547816991806
1761506834861676000,1.197676025390625,-0.016544125974178314,0.0031567257829010487,-0.01867138408124447
1761506834871647200,1.207647216796875,-0.014376845210790634,0.003884035162627697,-0.02331460453569889
1761506834881619000,1.217618896484375,-0.009956452064216137,0.005920623894780874,-0.02287302352488041
1761506834891591200,1.227591064453125,-0.010026493109762669,0.0027802244294434786,-0.024280769750475883
1761506834901563000,1.23756298828125,-0.011793728917837143,-0.0003144670045003295,-0.020299728959798813
1761506834911535000,1.24753515625,-0.016922976821660995,0.002650430193170905,-0.009714996442198753
1761506834921506000,1.257506103515625,-0.02305232360959053,-0.002606295980513096,-0.005786299239844084
1761506834931478000,1.26747802734375,-0.023914121091365814,-0.0027333288453519344,-0.011107295751571655
1761506834941450200,1.2774501953125,-0.020996922627091408,0.0018957927823066711,-0.014843449927866459
1761506834951422000,1.287421875,-0.012985069304704666,0.008430657908320427,-0.017339631915092468
1761506834961393200,1.29739306640625,-0.008177992887794971,0.00976622849702835,-0.015495534054934978
1761506834971364900,1.30736474609375,-0.006981967948377132,-6.483169272542e-7,-0.016665726900100708
1761506834981337000,1.317337158203125,-0.014490783214569092,-0.008785294368863106,-0.013637657277286053
1761506834991309000,1.32730908203125,-0.016010649502277374,-0.01796228066086769,-0.010633079335093498
1761506835001280000,1.337280029296875,-0.018267720937728882,-0.014189396984875202,-0.014916357584297657
1761506835011252200,1.347252197265625,-0.020405437797307968,-0.0024539106525480747,-0.01439411100000143
1761506835021224000,1.357223876953125,-0.01616991125047207,0.011299243196845055,-0.011472444981336594
1761506835031196200,1.367196044921875,-0.01178475096821785,0.012577293440699577,-0.013901780359447002
1761506835041168000,1.37716796875,-0.00831872969865799,0.008885335177183151,-0.0172011386603117
1761506835051139000,1.38713916015625,-0.003266978543251753,-0.005902666132897139,-0.01943260245025158
1761506835061111000,1.397111083984375,-0.003526357002556324,-0.014905727468430996,-0.021059416234493256
1761506835071083000,1.4070830078125,-0.002166813239455223,-0.021183861419558525,-0.024502616375684738
1761506835081055200,1.41705517578125,-0.004276196472346783,-0.0223243311047554,-0.03184308484196663
1761506835091026200,1.427026123046875,-0.006389148533344269,-0.010190701112151146,-0.037467945367097855
1761506835100998100,1.436998046875,-0.001341124065220356,0.010379932820796967,-0.03793056681752205
1761506835110970000,1.44697021484375,0.005320240743458271,0.025463543832302094,-0.03253154084086418
1761506835120942000,1.456942138671875,0.012816507369279861,0.02514396421611309,-0.020109759643673897
1761506835130914000,1.4669140625,0.013672180473804474,0.0028306699823588133,-0.01615789346396923
1761506835140885000,1.476885009765625,0.01633397489786148,-0.01789303869009018,-0.013522875495254993
1761506835150857000,1.48685693359375,0.01939288154244423,-0.030383264645934105,-0.017177265137434006
1761506835160829200,1.4968291015625,0.029668759554624557,-0.029015887528657913,-0.02335384301841259
1761506835170801200,1.50680126953125,0.0404665470123291,-0.011891228146851063,-0.028423435986042023
1761506835180772000,1.516772216796875,0.04553123190999031,0.006394441705197096,-0.029435910284519196
1761506835190744000,1.526744140625,0.05005008354783058,0.019224753603339195,-0.02087411656975746
1761506835200716000,1.536716064453125,0.05187579616904259,0.01346457377076149,-0.006630021147429943
1761506835210688000,1.54668798828125,0.05659811571240425,-0.0030033490620553493,0.003192249685525894
1761506835220660000,1.556659912109375,0.05490921065211296,-0.028054948896169662,0.009820119477808475
1761506835230631200,1.566631103515625,0.05790926143527031,-0.03644896298646927,0.01351285818964243
1761506835240603000,1.576602783203125,0.058953672647476196,-0.03870617225766182,0.010030243545770645
1761506835250575000,1.5865751953125,0.05945514515042305,-0.03252311423420906,0.003914294298738241
1761506835260547000,1.596547119140625,0.05990251898765564,-0.013278746046125889,-0.005133144091814756
1761506835270518000,1.60651806640625,0.06013794243335724,-0.003469259012490511,-0.013250991702079773
1761506835280490200,1.616490234375,0.05517663061618805,0.0011430527083575726,-0.013792118057608604
1761506835290462000,1.6264619140625,0.05163516104221344,-0.004360103514045477,-0.012458406388759613
1761506835300434200,1.63643408203125,0.04636194556951523,-0.013998598791658878,-0.004983208142220974
1761506835310405000,1.646405029296875,0.041044678539037704,-0.020802441984415054,0.003243296407163143
1761506835320377000,1.656377197265625,0.03319932147860527,-0.01971513405442238,0.009874289855360985
1761506835330349000,1.66634912109375,0.026323040947318077,-0.016279123723506927,0.011883910745382309
1761506835340321000,1.676321044921875,0.023058945313096046,-0.014293370768427849,0.003781727747991681
1761506835350293200,1.686293212890625,0.017141133546829224,-0.011707440949976444,-0.009523691609501839
1761506835360264000,1.696263916015625,0.012159922160208225,-0.000997329829260707,-0.024200817570090294
1761506835370236200,1.706236083984375,0.01333677303045988,0.006170301698148251,-0.03578183799982071
1761506835380208000,1.7162080078125,0.014062410220503807,0.016084227710962296,-0.03562823683023453
1761506835390180000,1.72618017578125,0.010673804208636284,0.020003069192171097,-0.025679463520646095
1761506835400151000,1.736151123046875,0.013106901198625565,0.020592905580997467,-0.007277877070009708
1761506835410123000,1.746123046875,0.02005482278764248,0.00529251154512167,0.012132838368415833
1761506835420095000,1.756094970703125,0.018521983176469803,-0.018358154222369194,0.01923019252717495
1761506835430067000,1.76606689453125,0.018419984728097916,-0.04227706789970398,0.014625320211052895
1761506835440039200,1.7760390625,0.013068818487226963,-0.04822717234492302,0.004144687205553055
1761506835450010000,1.786010009765625,0.011293554678559303,-0.02963351458311081,-0.005594492889940739
1761506835459982000,1.795982177734375,0.01666439324617386,-0.0011182373855262995,-0.010509772226214409
1761506835469954000,1.8059541015625,0.020140085369348526,0.024260088801383972,-0.014073880389332771
1761506835479926000,1.815926025390625,0.024930499494075775,0.031231001019477844,-0.009057548828423023
1761506835489897000,1.82589697265625,0.02766529843211174,0.014008070342242718,0.003488868707790971
1761506835499869200,1.835869140625,0.023415954783558846,-0.006306468974798918,0.014169270172715187
1761506835509841000,1.8458408203125,0.023230332881212234,-0.02673850767314434,0.020886827260255814
1761506835519813000,1.855813232421875,0.021789606660604477,-0.03171546012163162,0.02178330533206463
1761506835529785000,1.86578515625,0.016900843009352684,-0.023418385535478592,0.01933399587869644
1761506835539756000,1.875756103515625,0.01608804613351822,-0.009563023224473,0.01297170389443636
1761506835549728300,1.885728271484375,0.012082917615771294,0.0003287564031779766,0.004684212617576122
1761506835559700000,1.895699951171875,0.008498378098011017,0.003990295343101025,0.002997160190716386
1761506835569672200,1.905672119140625,0.0074325804598629475,0.0017580336425453424,0.0007302777376025915
1761506835579643100,1.91564306640625,0.006460675969719887,-0.009401223622262478,0.0005503671709448099
1761506835589615000,1.925614990234375,0.004760247655212879,-0.014183460734784603,-0.00005603465251624584
1761506835599587000,1.935587158203125,0.001195457298308611,-0.02398860827088356,-0.004417879041284323
1761506835609559000,1.94555908203125,-0.0018272302113473415,-0.02092623896896839,-0.0022623164113610983
1761506835619530000,1.955530029296875,-0.0010837465524673462,-0.012659367173910141,-0.010565345175564289
1761506835629502000,1.965501953125,-0.0034081535413861275,0.0008684255299158394,-0.0088798301294446
1761506835639474200,1.97547412109375,-0.00911759864538908,0.01283124927431345,-0.002083706436678767
1761506835649446000,1.98544580078125,-0.014757107011973858,0.011948144994676113,0.007493553217500448
1761506835659418000,1.995418212890625,-0.013603048399090767,0.00824861042201519,0.015051811933517456
1761506835669389000,2.00538916015625,-0.013847526162862778,-0.002523343078792095,0.02343198098242283
1761506835679361000,2.015361083984375,-0.013802852481603622,-0.013585055246949196,0.02440391294658184
1761506835689333000,2.0253330078125,-0.013822561129927635,-0.01680002361536026,0.021055521443486214
1761506835699305000,2.035304931640625,-0.01959339901804924,-0.010437785647809505,0.018585791811347008
1761506835709276200,2.045276123046875,-0.02062351070344448,0.0063020456582307816,0.010270604863762856
1761506835719248400,2.055248291015625,-0.02365613728761673,0.02072010561823845,0.00954093225300312
1761506835729220000,2.06522021484375,-0.028498560190200806,0.022012004628777504,0.007961144670844078
1761506835739192300,2.0751923828125,-0.02992784045636654,0.022379422560334206,0.005509852431714535
1761506835749164000,2.0851640625,-0.029887361451983452,0.01926831714808941,0.011973877437412739
1761506835759135200,2.09513525390625,-0.02622421458363533,0.013101672753691673,0.021864881739020348
1761506835769107200,2.105107177734375,-0.026410900056362152,0.00962305162101984,0.02565722167491913
1761506835779079200,2.1150791015625,-0.02833431214094162,0.006840776652097702,0.02528967894613743
1761506835789051400,2.125051513671875,-0.02864004299044609,0.005535028874874115,0.02451869286596775
1761506835799022000,2.13502197265625,-0.030455294996500015,0.002883568871766329,0.01439030934125185
1761506835808994300,2.144994384765625,-0.02669357880949974,0.0010057738982141018,0.008517772890627384
1761506835818966300,2.15496630859375,-0.021934891119599342,0.0022698515094816685,0.0011890779715031385
1761506835828938200,2.164938232421875,-0.016970224678516388,0.007823607884347439,0.0013699065893888474
1761506835838909200,2.1749091796875,-0.010407820343971252,0.018323931843042374,0.0010343214962631464
1761506835848881200,2.184881103515625,-0.009946294128894806,0.023465964943170547,0.0154031403362751
1761506835858853000,2.19485302734375,-0.011463765054941177,0.01959148794412613,0.027186062186956406
1761506835868825000,2.2048251953125,-0.01069837249815464,0.0027278182096779346,0.026338376104831696
1761506835878797300,2.21479736328125,-0.008532918058335781,-0.014035015366971493,0.01566617377102375
1761506835888768300,2.224768310546875,-0.007111323066055775,-0.023021584376692772,-0.001073125982657075
1761506835898740200,2.234740234375,0.006463192403316498,-0.014469294808804989,-0.01767725497484207
1761506835908712200,2.244712158203125,0.010243283584713936,0.003165359143167734,-0.019981954246759415
1761506835918684200,2.25468408203125,0.015665743499994278,0.011956608854234219,-0.017859119921922684
1761506835928655000,2.264655029296875,0.015088370069861412,0.005755172111093998,-0.010159654542803764
1761506835938627300,2.27462744140625,0.012648149393498898,-0.009892811998724937,-0.0025380118750035763
1761506835948599000,2.28459912109375,0.005160138942301273,-0.032876692712306976,-0.005530339665710926
1761506835958571300,2.2945712890625,-0.0001881294883787632,-0.05252034217119217,-0.018662389367818832
1761506835968543200,2.304543212890625,-0.007999448105692863,-0.05661015957593918,-0.03620303422212601
1761506835978514200,2.31451416015625,-0.00901799090206623,-0.0437987856566906,-0.05484018847346306
1761506835988486400,2.324486328125,-0.014461759477853775,-0.017417244613170624,-0.06476366519927979
1761506835998458000,2.3344580078125,-0.012470856308937073,0.012072132900357246,-0.059893567115068436
1761506836008430300,2.344430419921875,-0.014602717012166977,0.027952561154961586,-0.04343416541814804
1761506836018401000,2.354401123046875,-0.016376839950680733,0.01982242241501808,-0.013602441176772118
1761506836028373200,2.364373291015625,-0.012619918212294579,0.004239468835294247,0.013200410641729832
1761506836038345200,2.37434521484375,-0.005210814997553825,-0.014548135921359062,0.0327591672539711
1761506836048317200,2.384317138671875,-0.00415487214922905,-0.02284947596490383,0.05291024222970009
1761506836058289400,2.394289306640625,0.0008502714335918427,-0.01787133701145649,0.05541524291038513
1761506836068260000,2.404260009765625,-0.00005014333873987198,0.0017787960823625326,0.050448182970285416
1761506836078232300,2.414232421875,0.004077115561813116,0.021384017542004585,0.042798515409231186
1761506836088204000,2.4242041015625,0.0021375352516770363,0.029615581035614014,0.031356509774923325
1761506836098176300,2.43417626953125,0.0007029217667877674,0.024423319846391678,0.014881102368235588
1761506836108147200,2.444147216796875,0.002885382156819105,0.023907199501991272,0.00749615766108036
1761506836118119200,2.454119140625,0.000056953635066747665,0.016386402770876884,0.007505655754357576
1761506836128091100,2.464091064453125,0.0010966518893837929,0.013603398576378822,0.012244751676917076
1761506836138063000,2.47406298828125,0.003033459186553955,0.009049907326698303,0.025902535766363144
1761506836148034000,2.484033935546875,0.0031551653519272804,-0.002793701831251383,0.03575809299945831
1761506836158006300,2.49400634765625,0.004690021276473999,-0.01005420833826065,0.037477727979421616
1761506836167978200,2.503978271484375,0.009052812121808529,-0.01732596941292286,0.03009784035384655
1761506836177950200,2.5139501953125,0.010777777060866356,-0.012158847413957119,0.01983020268380642
1761506836187922200,2.523922119140625,0.012115216813981533,0.0008954358054324985,0.015003755688667297
1761506836197893000,2.53389306640625,0.01027593296021223,0.009673165157437325,0.008170580491423607
1761506836207865300,2.543865234375,0.006266011390835047,0.008270477876067162,-0.00029960391111671925
1761506836217837000,2.553837158203125,0.002833186648786068,0.0037538353353738785,-0.001561283366754651
1761506836227809300,2.563809326171875,0.009232762269675732,-0.00685673113912344,-0.001204153522849083
1761506836237780200,2.5737802734375,0.004754393361508846,-0.010674528777599335,-0.007307350169867277
1761506836247752200,2.583752197265625,0.007246313616633415,-0.009163717739284039,-0.005858058109879494
1761506836257724200,2.59372412109375,0.005163416266441345,-0.008145226165652275,-0.004321295768022537
1761506836267696000,2.603696044921875,0.0059756808914244175,0.0021130042150616646,-0.0032469762954860926
1761506836277668400,2.61366845703125,0.005569743923842907,0.0082509471103549,0.00037110247649252415
1761506836287639000,2.62363916015625,0.005210217088460922,0.008744697086513042,-0.0003274446935392916
1761506836297611300,2.633611328125,0.0069046346470713615,0.005325437989085913,0.00467361556366086
1761506836307583200,2.643583251953125,0.004982898011803627,-0.0021607077214866877,0.012455904856324196
1761506836317555200,2.65355517578125,0.003515188582241535,-0.008477476425468922,0.016562383621931076
1761506836327526400,2.6635263671875,0.005690990947186947,-0.013581158593297005,0.011836604215204716
1761506836337498000,2.673498046875,0.0071500190533697605,-0.011186527088284492,-0.0008873263141140342
1761506836347470300,2.68347021484375,0.014281165786087513,-0.0034497776068747044,-0.004136648960411549
1761506836357442000,2.693442138671875,0.01286478154361248,0.002862741705030203,-0.011316974647343159
1761506836367413200,2.703413330078125,0.01301258709281683,0.004460904747247696,-0.008787238039076328
1761506836377385200,2.71338525390625,0.008277983404695988,0.00015930936206132174,-0.0036038397811353207
1761506836387357200,2.723357177734375,0.007857204414904118,-0.006045856047421694,0.0037827035412192345
1761506836397329400,2.733329345703125,0.004714676178991795,-0.010975521057844162,0.015584736131131649
1761506836407301000,2.743301025390625,0.0042020175606012344,-0.009623434394598007,0.01743483543395996
1761506836417272300,2.753272216796875,0.004053792450577021,-0.005086880177259445,0.020034553483128548
1761506836427244300,2.763244384765625,-0.0006623994559049606,-0.0012753638438880444,0.008687091991305351
1761506836437216300,2.77321630859375,-0.004299747757613659,0.004676157608628273,0.0009897882118821144
1761506836447188200,2.783188232421875,-0.0033564558252692223,0.010712745599448681,-0.005056652706116438
1761506836457159200,2.7931591796875,-0.001018851064145565,0.009501194581389427,-0.003907379694283009
1761506836467131100,2.803131103515625,-0.0012561380863189697,0.0014885417185723782,-0.001977386884391308
1761506836477103400,2.813103271484375,-0.0009384946897625923,0.0035662217997014523,0.008106316439807415
1761506836487075300,2.823075439453125,-0.0025446470826864243,0.0005110434722155333,0.016749871894717216
1761506836497047300,2.83304736328125,-0.002061774954199791,-0.0013108118437230587,0.02175886183977127
1761506836507018200,2.843018310546875,-0.0053688883781433105,-0.006639264058321714,0.012499317526817322
1761506836516990200,2.852990234375,-0.006579716224223375,-0.010327883064746857,-0.0024128451477736235
1761506836526962200,2.862962158203125,-0.0032630148343741894,-0.011800344102084637,-0.016089508309960365
1761506836536934100,2.87293408203125,-0.002994764596223831,-0.00654751667752862,-0.027394773438572884
1761506836546905300,2.8829052734375,-0.0012503936886787415,0.01004291232675314,-0.024460503831505775
1761506836556877000,2.892876953125,-0.003637381363660097,0.009668154641985893,-0.01145315170288086
1761506836566849300,2.902849365234375,0.0013387356884777546,0.006629754323512316,-0.0036580790765583515
1761506836576821200,2.9128212890625,0.006916268263012171,-0.00024230661801993847,0.011767541989684105
1761506836586793200,2.922793212890625,0.012272683903574944,-0.01325264759361744,0.01624431647360325
1761506836596764400,2.932764404296875,0.010556735098361969,-0.019330739974975586,0.01815001480281353
1761506836606736100,2.942736083984375,0.008853643201291561,-0.018356556072831154,0.015459422022104263
1761506836616708400,2.952708251953125,0.0030774748884141445,-0.011825853027403355,0.010350000113248825
1761506836626680000,2.96268017578125,0.007102310191839933,-0.0032083967234939337,0.0030793044716119766
1761506836636651300,2.9726513671875,0.010228869505226612,0.003359563648700714,0.000701006967574358
1761506836646623200,2.982623291015625,0.009817144833505154,0.0017853690078482032,-0.0004121943493373692
1761506836656595200,2.99259521484375,0.004224345088005066,-0.004042903892695904,-0.0010111033916473389
1761506836666567400,3.0025673828125,0.0032541556283831596,-0.009498389437794685,-0.00008006230928003788
1761506836676538000,3.0125380859375,0.0028275554068386555,-0.00751203577965498,0.0011011972092092037
1761506836686510300,3.02251025390625,0.004256607498973608,0.0016947782132774591,0.010231578722596169
1761506836696482300,3.032482421875,0.007794045843183994,0.0037023676559329033,0.018392687663435936
1761506836706454300,3.042454345703125,0.007672073319554329,-0.00006653799209743738,0.031507160514593124
1761506836716426500,3.052426513671875,0.0096993837505579,-0.012825348414480686,0.03711997717618942
1761506836726397200,3.062397216796875,0.005806108936667442,-0.032035525888204575,0.03588773310184479
1761506836736369400,3.072369384765625,0.0007872693240642548,-0.03938145190477371,0.01914236694574356
1761506836746341000,3.082341064453125,-0.0017549837939441204,-0.023649627342820168,-0.0033189987298101187
1761506836756313300,3.092313232421875,0.000673406757414341,-0.00021201884374022484,-0.023020416498184204
1761506836766284300,3.1022841796875,-0.004657975398004055,0.024218223989009857,-0.03892854228615761
1761506836776256300,3.11225634765625,-0.003436319064348936,0.03919137269258499,-0.031047269701957703
1761506836786228200,3.122228271484375,-0.004817966837435961,0.03519236668944359,-0.014256305992603302
1761506836796200200,3.1322001953125,-0.007020202931016684,0.017227312549948692,0.00692659430205822
1761506836806172400,3.14217236328125,-0.0013474035076797009,-0.006444461643695831,0.031602643430233
1761506836816143400,3.152143310546875,-0.002984069287776947,-0.01881871186196804,0.043026216328144073
1761506836826115300,3.162115234375,0.0028149643912911415,-0.024370605126023293,0.039914049208164215
1761506836836087300,3.17208740234375,0.0010539260692894459,-0.0185872633010149,0.023897767066955566
1761506836846059300,3.182059326171875,-0.00159938121214509,0.0036511956714093685,0.001985278446227312
1761506836856030200,3.1920302734375,-0.0019887355156242847,0.02304886281490326,-0.013195538893342018
1761506836866002400,3.20200244140625,-0.0008915127255022526,0.03022155351936817,-0.0177261084318161
1761506836875974100,3.21197412109375,-0.0006460007280111313,0.02411056123673916,-0.015021109022200108
1761506836885946400,3.2219462890625,-0.00539015606045723,0.004808501806110144,0.0003016545670107007
1761506836895918300,3.23191845703125,-0.00043298862874507904,-0.010026916861534119,0.0135635482147336
1761506836905889300,3.24188916015625,0.0033263294026255608,-0.023128870874643326,0.02400180697441101
1761506836915861200,3.251861328125,0.009115401655435562,-0.015473512001335621,0.025832192972302437
1761506836925833200,3.261833251953125,0.009583585895597935,-0.006816907785832882,0.025958426296710968
1761506836935805400,3.271805419921875,0.012173958122730255,0.00203316705301404,0.02337495982646942
1761506836945776000,3.281776123046875,0.010261274874210358,0.0077280704863369465,0.021394366398453712
1761506836955748400,3.291748291015625,0.009706275537610054,0.0011541679268702865,0.013188070617616177
1761506836965720300,3.30172021484375,0.00823594443500042,0.001221279613673687,0.002810531295835972
1761506836975692300,3.3116923828125,0.006788021419197321,-0.00240524485707283,-0.003333233529701829
1761506836985663500,3.32166357421875,0.0034132637083530426,-0.004783447831869125,-0.006733025424182415
1761506836995635200,3.33163525390625,-0.000722167082130909,0.004279065411537886,-0.004770868457853794
1761506837005607400,3.341607421875,0.00012924568727612495,0.010648547671735287,0.004034074954688549
1761506837015579100,3.3515791015625,0.00014115311205387115,0.00865723192691803,0.017692599445581436
1761506837025551400,3.36155126953125,0.004487964324653149,0.0042142802849411964,0.027031507343053818
1761506837035522300,3.371522216796875,0.0032431618310511112,-0.009720989502966404,0.029187485575675964
1761506837045494300,3.381494384765625,0.0030064070597290993,-0.02000744827091694,0.02621166966855526
1761506837055466500,3.391466552734375,-0.0003201155923306942,-0.02021000348031521,0.01007155142724514
1761506837065438200,3.401438232421875,-0.002318019513040781,-0.00797224510461092,-0.0056142001412808895
1761506837075409400,3.411409423828125,-0.005271757487207651,0.013210384175181389,-0.019597159698605537
1761506837085381400,3.42138134765625,-0.004470145795494318,0.02349923923611641,-0.027663342654705048
1761506837095353300,3.431353271484375,-0.004092438146471977,0.030544476583600044,-0.02708214893937111
1761506837105325300,3.4413251953125,-0.00025508925318717957,0.02630818635225296,-0.013235841877758503
1761506837115297300,3.45129736328125,-0.00023858016356825829,0.007820147089660168,0.01113477535545826
1761506837125268200,3.461268310546875,-0.0006745397113263607,-0.011412669904530048,0.028800588101148605
1761506837135240200,3.471240234375,-0.001534963957965374,-0.022624719887971878,0.04156706854701042
1761506837145212400,3.48121240234375,-0.002311008982360363,-0.029209651052951813,0.0492636039853096
1761506837155184400,3.491184326171875,-0.00742572546005249,-0.028430117294192314,0.03606932982802391
1761506837165155300,3.5011552734375,-0.016661569476127625,-0.018189197406172752,0.004313796292990446
1761506837175127300,3.511127197265625,-0.022999849170446396,-0.001219519879668951,-0.02466287836432457
1761506837185099300,3.521099365234375,-0.02465899847447872,0.012459008023142815,-0.05542558431625366
1761506837195071200,3.5310712890625,-0.028215736150741577,0.02448597364127636,-0.06438998878002167
1761506837205042400,3.54104248046875,-0.03094227984547615,0.03263391554355621,-0.058244477957487106
1761506837215014100,3.55101416015625,-0.0267324261367321,0.02317771129310131,-0.03364388272166252
1761506837224986400,3.560986328125,-0.023498283699154854,0.010240606963634491,-0.002595952246338129
1761506837234958300,3.570958251953125,-0.0066827768459916115,-0.010410860180854797,0.02489304728806019
1761506837244930300,3.580930419921875,-0.003901371732354164,-0.02378232777118683,0.04502201825380325
1761506837254901500,3.590901611328125,0.0031094737350940704,-0.027403468266129494,0.04839390516281128
1761506837264873200,3.600873291015625,0.0018900120630860329,-0.01788000389933586,0.039831843227148056
1761506837274845400,3.610845458984375,0.0018575191497802734,0.0028147760313004255,0.02237112447619438
1761506837284817200,3.620817138671875,-0.00025516608729958534,0.02174612320959568,0.0058696456253528595
1761506837294789400,3.630789306640625,-0.0003206389956176281,0.02846209518611431,-0.00966525450348854
1761506837304760300,3.64076025390625,0.00915755145251751,0.03156840801239014,-0.00864499807357788
1761506837314732300,3.650732177734375,0.014037566259503365,0.02218892052769661,-0.002540618646889925
1761506837324704500,3.66070458984375,0.015955308452248573,0.003073550295084715,0.009051056578755379
1761506837334676200,3.67067626953125,0.014982039108872414,-0.01625863090157509,0.024881063029170036
1761506837344647400,3.6806474609375,0.015211336314678192,-0.024948522448539734,0.032342709600925446
1761506837354619400,3.690619384765625,0.015203876420855522,-0.018253715708851814,0.03257150202989578
1761506837364591400,3.70059130859375,0.010566247627139091,-0.003502467181533575,0.024229152128100395
1761506837374563300,3.710563232421875,0.011016475968062878,0.006292513106018305,0.0118899866938591
1761506837384534300,3.7205341796875,0.004064028151333332,0.00348740560002625,-0.004024265334010124
1761506837394506200,3.73050634765625,0.0006116568110883236,0.000045297667384147644,-0.0253829937428236
1761506837404478200,3.740478271484375,0.000027358997613191605,-0.00033580069430172443,-0.03330323472619057
1761506837414450400,3.750450439453125,-0.000659470446407795,0.00247436692006886,-0.03940746560692787
1761506837424422100,3.760422119140625,-0.003964985720813274,-0.0002622974570840597,-0.037021271884441376
1761506837434393300,3.770393310546875,-0.0012609264813363552,0.007411629427224398,-0.02282014489173889
1761506837444365300,3.780365234375,-0.0011967443861067295,0.011546187102794647,-0.012785088270902634
1761506837454337300,3.790337158203125,-0.0012118839658796787,0.014240521006286144,0.004555402789264917
1761506837464309200,3.800309326171875,0.0062156724743545055,0.009198092855513096,0.013302821666002274
1761506837474280400,3.810280517578125,0.006189571227878332,-0.0011566568864509463,0.0217788964509964
1761506837484252200,3.820252197265625,0.006361611187458038,-0.004709313623607159,0.02623356506228447
1761506837494224400,3.830224365234375,0.0053113726899027824,-0.0026127463206648827,0.028897998854517937
1761506837504196400,3.8401962890625,0.006285557057708502,0.00024242873769253492,0.029355796054005623
1761506837514167300,3.850167236328125,0.006103778723627329,0.003212357172742486,0.02399529702961445
1761506837524139500,3.860139404296875,0.01156725361943245,0.0023625425528734922,0.02231431007385254
1761506837534111200,3.870111328125,0.013758963905274868,-0.0005444085691124201,0.011205107904970646
1761506837544083500,3.88008349609375,0.01676274463534355,-0.0018722605891525745,0.0062811896204948425
1761506837554055200,3.89005517578125,0.010553349740803242,-0.00221320241689682,0.004575379192829132
1761506837564026400,3.9000263671875,0.006593229249119759,-0.0014387554256245494,0.007189538329839706
1761506837573998300,3.909998291015625,0.003155769780278206,0.002673085778951645,0.013153806328773499
1761506837583970300,3.91997021484375,0.005470323376357555,0.0015705369878560305,0.014629464596509933
1761506837593942500,3.929942626953125,0.005433158949017525,0.00032942916732281446,0.014426646754145622
1761506837603913200,3.939913330078125,0.0039151571691036224,-0.007226758170872927,0.007119199726730585
1761506837613885400,3.949885498046875,0.00047325249761343,-0.015285003930330276,-0.0004515480250120163
1761506837623857200,3.959857177734375,-0.005418991670012474,-0.013518529944121838,-0.009248501621186733
1761506837633829400,3.969829345703125,-0.009122885763645172,-0.009822496213018894,-0.018562933430075645
1761506837643801000,3.979801025390625,-0.007830187678337097,0.00347120501101017,-0.02021382749080658
1761506837653772300,3.989772216796875,-0.00403609499335289,0.01585291139781475,-0.015635794028639793
1761506837663744300,3.999744140625,-0.005564749240875244,0.01784495636820793,-0.0039205485954880714
1761506837673716200,4.00971630859375,-0.009013349190354347,0.013950922526419163,0.0034273192286491394
1761506837683688400,4.0196884765625,-0.014768173918128014,0.0014942536363378167,0.013209642842411995
1761506837693659400,4.029659423828125,-0.014809036627411842,-0.006561779882758856,0.014234250411391258
1761506837703631400,4.03963134765625,-0.013031376525759697,-0.005780408158898354,0.010375595651566982
1761506837713603000,4.04960302734375,-0.01026146113872528,0.0038771110121160746,0.006304806098341942
1761506837723574800,4.05957470703125,-0.00845583900809288,0.011654872447252274,0.005127688869833946
1761506837733547000,4.069547119140625,-0.005576197989284992,0.01846824586391449,0.0034840740263462067
1761506837743518000,4.07951806640625,-0.002650182694196701,0.010671842843294144,0.0011231815442442894
1761506837753490000,4.089489990234375,0.0009988397359848022,0.001396307023242116,-0.0016737873665988445
1761506837763462100,4.099462158203125,0.002980231773108244,-0.007196914870291948,0.0049753268249332905
1761506837773433900,4.109433837890625,0.004058389458805323,-0.004561163485050201,0.00948376301676035
1761506837783405000,4.119405029296875,0.0074422019533813,0.0014637057902291417,0.023313559591770172
1761506837793377000,4.129376953125,0.006759487558156252,0.005149175878614187,0.03150742128491402
1761506837803349000,4.139348876953125,0.0039439937099814415,-0.005232358351349831,0.02907036617398262
1761506837813321000,4.149321044921875,0.004246344789862633,-0.01940114237368107,0.018230998888611794
1761506837823293000,4.15929296875,0.009109809063374996,-0.03270256519317627,0.0018088819924741983
1761506837833263900,4.169263916015625,0.008807911537587643,-0.03034348413348198,-0.01582333818078041
1761506837843236000,4.179236083984375,0.005968715529888868,-0.010134618729352951,-0.02634548954665661
1761506837853208000,4.1892080078125,0.007565205916762352,0.015221377834677696,-0.025165768340229988
1761506837863180000,4.199179931640625,0.01028988603502512,0.031401410698890686,-0.005724958144128323
1761506837873151000,4.20915087890625,0.007008111570030451,0.030030053108930588,0.016928568482398987
1761506837883123000,4.219123046875,0.010796457529067993,0.010039567947387695,0.04032444208860397
1761506837893095000,4.229094970703125,0.012270438484847546,-0.017439639195799828,0.0585218220949173
1761506837903067000,4.23906689453125,0.009157469496130943,-0.03817208111286163,0.057899173349142075
1761506837913038000,4.2490380859375,0.0026656738482415676,-0.047886721789836884,0.04238380491733551
1761506837923009800,4.259009765625,-0.004772269167006016,-0.03535281866788864,0.01970325969159603
1761506837932982000,4.26898193359375,-0.010750684887170792,-0.0029541635885834694,-0.014334958046674728
1761506837942954000,4.2789541015625,-0.008254503831267357,0.023102737963199615,-0.03872951120138168
1761506837952926000,4.288926025390625,-0.01276414655148983,0.040841925889253616,-0.050408750772476196
1761506837962897200,4.298897216796875,-0.01367255114018917,0.03930288553237915,-0.045346345752477646
1761506837972868900,4.308868896484375,-0.01599273458123207,0.033740971237421036,-0.020787354558706284
1761506837982841000,4.318841064453125,-0.013116521760821342,0.01938679814338684,0.017611699178814888
1761506837992812800,4.328812744140625,-0.010537557303905487,0.013596276752650738,0.04906751215457916
1761506838002784000,4.338783935546875,-0.007864275947213173,0.004537268541753292,0.06775810569524765
1761506838012756000,4.348755859375,-0.00845100823789835,-0.0030337334610521793,0.07181155681610107
1761506838022728000,4.35872802734375,-0.003918042406439781,-0.002179391449317336,0.057303186506032944
1761506838032700200,4.3687001953125,-0.008036201819777489,0.005640853196382523,0.027930444106459618
1761506838042670800,4.3786708984375,-0.0005505871959030628,0.021489858627319336,-0.0015811093617230654
1761506838052643000,4.38864306640625,0.0047149015590548515,0.036931801587343216,-0.012999086640775204
1761506838062615000,4.398614990234375,0.007972746156156063,0.043544698506593704,-0.006404567509889603
1761506838072587000,4.4085869140625,0.014919755980372429,0.0342530719935894,0.012147869914770126
1761506838082559000,4.41855908203125,0.021585382521152496,0.016445044428110123,0.030123142525553703
1761506838092530000,4.428530029296875,0.024842996150255203,-0.004170163068920374,0.042673468589782715
1761506838102502000,4.438501953125,0.029832694679498672,-0.023238396272063255,0.04467137157917023
1761506838112473900,4.448473876953125,0.03257068991661072,-0.02988271787762642,0.038409482687711716
1761506838122446000,4.458446044921875,0.031958162784576416,-0.0293990857899189,0.01875961199402809
1761506838132417000,4.4684169921875,0.02723451517522335,-0.015787936747074127,-0.0014852059539407492
1761506838142389000,4.478388916015625,0.025199592113494873,-0.003823152743279934,-0.01546280737966299
1761506838152361000,4.48836083984375,0.018704038113355637,0.007760482840240002,-0.026924291625618935
1761506838162333000,4.4983330078125,0.0158400759100914,0.011225787922739983,-0.03153635188937187
1761506838172305000,4.508304931640625,0.011242573149502277,0.002386499661952257,-0.026265326887369156
1761506838182276000,4.518276123046875,0.00806435663253069,-0.011262999847531319,-0.024830149486660957
1761506838192247800,4.528247802734375,0.0006060255691409111,-0.01835012249648571,-0.02154499478638172
1761506838202220000,4.538219970703125,0.0005783285014331341,-0.010870634578168392,-0.012435385026037693
1761506838212192000,4.54819189453125,-0.0011401348747313023,0.005018807947635651,-0.0004532310995273292
1761506838222163000,4.558162841796875,0.0010543097741901875,0.009560829028487206,0.011966686695814133
1761506838232135200,4.56813525390625,-0.0013025053776800632,0.004176479298621416,0.020849626511335373
1761506838242107000,4.57810693359375,-0.0014481800608336926,-0.005824755877256393,0.014734476804733276
1761506838252079000,4.5880791015625,0.0007334374822676182,-0.007107727695256472,0.006935058161616325
1761506838262049800,4.5980498046875,0.005237109027802944,-0.00022585317492485046,0.0004350807284936309
1761506838272022000,4.60802197265625,0.010565603151917458,-0.0011720610782504082,-0.01025446504354477
1761506838281994000,4.617993896484375,0.011941391974687576,0.005073318257927895,-0.02336840331554413
1761506838291966000,4.627966064453125,0.009979745373129845,0.009260241873562336,-0.029495656490325928
1761506838301938200,4.637938232421875,0.007234559394419193,0.019500896334648132,-0.02324414998292923
1761506838311908900,4.647908935546875,0.014480754733085632,0.029727168381214142,-0.011885769665241241
1761506838321881000,4.657881103515625,0.019504541531205177,0.023172596469521523,0.005431701894849539
1761506838331852800,4.667852783203125,0.02213711477816105,0.010146976448595524,0.030265027657151222
1761506838341825000,4.677824951171875,0.026502035558223724,-0.004055927973240614,0.05038147792220116
1761506838351796000,4.6877958984375,0.02397993952035904,-0.02101363055408001,0.05555284023284912
1761506838361768000,4.697767822265625,0.019162548705935478,-0.02692025527358055,0.045176900923252106
1761506838371740000,4.707739990234375,0.016875462606549263,-0.024046802893280983,0.022590775042772293
1761506838381712000,4.7177119140625,0.01584322191774845,-0.008893950842320919,-0.006204918958246708
1761506838391684000,4.72768408203125,0.016160637140274048,0.01208542101085186,-0.027318935841321945
1761506838401655000,4.737655029296875,0.013609062880277634,0.01875344291329384,-0.03735026344656944
1761506838411627000,4.747626953125,0.00810989923775196,0.012788916938006878,-0.03508015349507332
1761506838421599000,4.757598876953125,0.0018317634239792824,0.005202102940529585,-0.01920451782643795
1761506838431571000,4.767571044921875,-0.002640864811837673,-0.0057959239929914474,-0.0070343161933124065
1761506838441542000,4.7775419921875,-0.011747277341783047,-0.02090323716402054,-0.003317076014354825
1761506838451514000,4.78751416015625,-0.014092078432440758,-0.031705956906080246,-0.00986238569021225
1761506838461485800,4.79748583984375,-0.01573285274207592,-0.029607119038701057,-0.023484455421566963
1761506838471458000,4.8074580078125,-0.023854881525039673,-0.01721125654876232,-0.03999845311045647
1761506838481430000,4.817429931640625,-0.021559234708547592,0.006773171480745077,-0.045645952224731445
1761506838491401000,4.82740087890625,-0.020457224920392036,0.0219710823148489,-0.03732936829328537
1761506838501373000,4.837373046875,-0.020519010722637177,0.03404931724071503,-0.026412807404994965
1761506838511345000,4.847344970703125,-0.019838232547044754,0.027184713631868362,-0.0032768023665994406
1761506838521317000,4.857317138671875,-0.015634166076779366,0.012107759714126587,0.011360995471477509
1761506838531287800,4.867287841796875,-0.011486100032925606,-0.004741489887237549,0.01849927380681038
1761506838541260000,4.877260009765625,-0.012566812336444855,-0.023603327572345734,0.01628698594868183
1761506838551231700,4.887231689453125,-0.009743701666593552,-0.031938131898641586,0.004245501011610031
1761506838561204000,4.897203857421875,-0.0164058655500412,-0.018631113693118095,-0.014128979295492172
1761506838571175000,4.9071748046875,-0.01980166882276535,0.0027388273738324642,-0.023731447756290436
1761506838581147000,4.91714697265625,-0.017734523862600327,0.022002536803483963,-0.030390681698918343
1761506838591119000,4.927119140625,-0.01246084924787283,0.025893548503518105,-0.028407756239175797
1761506838601090800,4.9370908203125,-0.015714965760707855,0.015735717490315437,-0.02311605215072632
1761506838611063000,4.94706298828125,-0.01771697588264942,0.0018322941614314914,-0.013451650738716125
1761506838621034000,4.957033935546875,-0.017383813858032227,-0.008705833926796913,0.00047508440911769867
1761506838631006000,4.967005859375,-0.02024584449827671,-0.013662241399288177,0.012932142242789268
1761506838640978000,4.97697802734375,-0.01952972076833248,-0.010936496779322624,0.011241301894187927
1761506838650950000,4.986949951171875,-0.012146707624197006,-0.0067151207476854324,0.009380428120493889
1761506838660920800,4.9969208984375,-0.01319572702050209,-0.0009552366100251675,-0.0022272251080721617
1761506838670893000,5.00689306640625,-0.01503144670277834,0.0031429885420948267,-0.010098432190716267
1761506838680865000,5.016864990234375,-0.007139435037970543,0.014966891147196293,-0.010922147892415524
1761506838690837000,5.0268369140625,-0.007137834560126066,0.016614435240626335,-0.01197599247097969
1761506838700809000,5.03680908203125,-0.0045385886915028095,0.013756331987679005,-0.010035613551735878
1761506838710780400,5.046780517578125,-0.0033028055913746357,0.010272455401718616,-0.0010346326744183898
1761506838720752400,5.05675244140625,-0.005384599324315786,0.006685975939035416,0.008453145623207092
1761506838730724400,5.066724365234375,-0.0012797247618436813,-0.00153151317499578,0.013546090573072433
1761506838740696300,5.0766962890625,0.0032596332021057606,-0.00512092188000679,0.013617463409900665
1761506838750667300,5.086667236328125,0.009942609816789627,-0.00963736604899168,0.012646591290831566
1761506838760639500,5.096639404296875,0.009278950281441212,-0.016452660784125328,0.006729846820235252
1761506838770611500,5.106611572265625,0.007155269384384155,-0.011968500912189484,-0.009219055995345116
1761506838780583400,5.11658349609375,0.007552613038569689,-0.0035851355642080307,-0.021832851693034172
1761506838790554600,5.1265546875,0.006718015763908625,0.006623194552958012,-0.025013849139213562
1761506838800526300,5.1365263671875,0.0015679951757192612,0.011362822726368904,-0.023398375138640404
1761506838810498600,5.14649853515625,0.0033658575266599655,0.006442198064178228,-0.01875077560544014
1761506838820470300,5.15647021484375,0.00011973036453127861,-0.0016492840368300676,-0.004679431207478046
1761506838830442500,5.1664423828125,0.005639399867504835,-0.0055570960976183414,0.008497060276567936
1761506838840413400,5.176413330078125,0.0031085978262126446,-0.01208929717540741,0.02214309759438038
1761506838850385400,5.186385498046875,0.006768621504306793,-0.013273856602609158,0.023245761170983315
1761506838860357600,5.196357666015625,0.005957156419754028,-0.012044275179505348,0.01739373244345188
1761506838870329300,5.206329345703125,0.008740576915442944,-0.004549846518784761,0.004901732783764601
1761506838880300500,5.216300537109375,0.007590624038130045,0.002847616095095873,-0.005815093871206045
1761506838890272300,5.226272216796875,0.009231963194906712,0.014268527738749981,-0.011381423100829124
1761506838900244500,5.236244384765625,0.011173408478498459,0.021681170910596848,-0.006791731342673302
1761506838910216400,5.246216552734375,0.01171988807618618,0.018281912431120872,0.005962146446108818
1761506838920187400,5.2561875,0.00964848231524229,0.010519063100218773,0.018298974260687828
1761506838930159400,5.266159423828125,0.01318584568798542,0.005743355955928564,0.03031228668987751
1761506838940131300,5.27613134765625,0.017908962443470955,0.003407497424632311,0.03711932525038719
1761506838950103600,5.286103515625,0.022880129516124725,0.005852032452821732,0.036650314927101135
1761506838960075300,5.2960751953125,0.024872971698641777,0.00825287215411663,0.031843043863773346
1761506838970046500,5.30604638671875,0.02431705966591835,0.012829495593905449,0.02073875442147255
1761506838980018400,5.316018310546875,0.023428363725543022,0.01012851670384407,0.0063696689903736115
1761506838989990400,5.325990478515625,0.018343664705753326,0.010311169549822807,-0.003015783615410328
1761506838999962400,5.33596240234375,0.015639755874872208,0.002901456318795681,-0.012223396450281143
1761506839009933600,5.34593359375,0.012745695188641548,-0.002104700542986393,-0.006663455627858639
1761506839019905300,5.3559052734375,0.01458913553506136,-0.002401642967015505,-0.002568046562373638
1761506839029877500,5.36587744140625,0.017711849883198738,-0.0029576257802546024,0.00017500866670161486
1761506839039849500,5.375849365234375,0.014753343537449837,0.0007122103706933558,0.00737859308719635
1761506839049820400,5.3858203125,0.00821475125849247,0.004423591308295727,0.018519394099712372
1761506839059792600,5.395792724609375,-0.003286642488092184,-0.0006121797487139702,0.023641718551516533
1761506839069764400,5.405764404296875,-0.005285994615405798,-0.013703825883567333,0.019390100613236427
1761506839079736600,5.415736572265625,-0.011347083374857903,-0.020788365975022316,0.004462284501641989
1761506839089708300,5.425708251953125,-0.011348791420459747,-0.017326010391116142,-0.016640042886137962
1761506839099679500,5.435679443359375,-0.009168993681669235,-0.006168697029352188,-0.0344344861805439
1761506839109651200,5.445651123046875,-0.011232070624828339,0.013009750284254551,-0.0461595244705677
1761506839119623400,5.45562353515625,-0.009391559287905693,0.030774367973208427,-0.044431399554014206
1761506839129595400,5.465595458984375,-0.007862944155931473,0.03266903758049011,-0.02617504633963108
1761506839139566300,5.47556640625,0.000028002075850963593,0.02086750604212284,-0.005830626003444195
1761506839149538600,5.48553857421875,0.0033275457099080086,-0.005878215655684471,0.0159253291785717
1761506839159510300,5.49551025390625,0.0019482942298054695,-0.038094740360975266,0.025261305272579193
1761506839169482500,5.505482421875,0.00790761224925518,-0.05021362379193306,0.018028011545538902
1761506839179454200,5.5154541015625,0.006451129447668791,-0.03949786350131035,0.004330575466156006
1761506839189425400,5.52542529296875,0.010013911873102188,-0.011497696861624718,-0.016412315890192986
1761506839199397400,5.5353974609375,0.009840273298323154,0.019700970500707626,-0.03378065302968025
1761506839209369300,5.545369384765625,0.01617356576025486,0.028173279017210007,-0.034880004823207855
1761506839219341600,5.555341552734375,0.01316419243812561,0.0265817753970623,-0.02484680898487568
1761506839229312500,5.5653125,0.020295189693570137,0.010913142003118992,-0.004918759688735008
1761506839239284500,5.575284423828125,0.024429481476545334,-0.005341727752238512,0.019158879294991493
1761506839249256400,5.58525634765625,0.030205119401216507,-0.020587246865034103,0.041069354861974716
1761506839259228400,5.595228515625,0.032783325761556625,-0.027956746518611908,0.04439777508378029
1761506839269199400,5.605199462890625,0.02758156880736351,-0.02565455436706543,0.041023723781108856
1761506839279171600,5.615171630859375,0.023873649537563324,-0.016437355428934097,0.022700110450387
1761506839289143300,5.625143310546875,0.022403843700885773,-0.00314239040017128,-0.0015201815403997898
1761506839299115500,5.635115478515625,0.018488463014364243,0.009078589268028736,-0.019651779904961586
1761506839309087500,5.64508740234375,0.01242185477167368,0.01960059441626072,-0.02402353845536709
1761506839319058400,5.655058349609375,0.009965355508029461,0.021453088149428368,-0.017817573621869087
1761506839329030400,5.665030517578125,0.0077051762491464615,0.005336395930498838,-0.006623717024922371
1761506839339002400,5.67500244140625,0.0031418497674167156,-0.012031941674649715,0.002476837020367384
1761506839348974600,5.684974609375,0.0026713069528341293,-0.021987734362483025,0.00593430083245039
1761506839358945300,5.6949453125,0.00009576370939612389,-0.02274034358561039,0.004097784869372845
1761506839368917500,5.70491748046875,-0.0033989176154136658,-0.01731151156127453,-0.0013635281939059496
1761506839378889200,5.71488916015625,-0.00808847788721323,-0.004678539931774139,-0.006948975846171379
1761506839388861400,5.724861328125,-0.010192826390266418,0.0078244898468256,-0.014654330909252167
1761506839398833400,5.73483349609375,-0.00972810573875904,0.014821678400039673,-0.020306624472141266
1761506839408804400,5.744804443359375,-0.012656021863222122,0.01556320022791624,-0.021876171231269836
1761506839418776600,5.754776611328125,-0.0158251840621233,0.00846055056899786,-0.013094931840896606
1761506839428748300,5.764748291015625,-0.021739764139056206,0.0016465355874970555,-0.0022095851600170135
1761506839438720500,5.774720458984375,-0.02212858572602272,-0.007906223647296429,0.004000640474259853
1761506839448691500,5.78469140625,-0.02265467308461666,-0.005822960752993822,0.009687880054116249
1761506839458663400,5.794663330078125,-0.018691889941692352,0.0022354982793331146,0.003938381560146809
1761506839468635400,5.804635498046875,-0.0180832426995039,0.007903208956122398,0.0052251312881708145
1761506839478607400,5.814607421875,-0.016424359753727913,0.010266764089465141,0.0024120344314724207
1761506839488578300,5.824578369140625,-0.016621431335806847,0.009599220007658005,0.0019105304963886738
1761506839498550500,5.834550537109375,-0.018827062100172043,0.0020544847939163446,-0.0017353369621559978
1761506839508522500,5.8445224609375,-0.017125416547060013,-0.001109854900278151,-0.005229847505688667
1761506839518494500,5.854494384765625,-0.01566547155380249,0.003566123079508543,-0.004280696623027325
1761506839528466400,5.864466552734375,-0.011575421318411827,0.0013371147215366364,-0.0029479952063411474
1761506839538437400,5.874437255859375,-0.014726739376783371,0.008174248039722443,-0.002077940385788679
1761506839548409300,5.884409423828125,-0.016048967838287354,0.014224627055227757,0.0011518853716552258
1761506839558381300,5.89438134765625,-0.012286185286939144,0.01631254516541958,0.011024489998817444
1761506839568353500,5.904353515625,-0.011652888730168343,0.013220771215856075,0.013914050534367561
1761506839578324200,5.91432421875,-0.00929412804543972,0.0005409290315583348,0.012033060193061829
1761506839588296400,5.92429638671875,-0.013096769340336323,-0.007132829166948795,0.005066165700554848
1761506839598268400,5.934268310546875,-0.019544817507267,-0.018979370594024658,-0.012589527294039726
1761506839608240400,5.944240478515625,-0.01875690184533596,-0.014063945040106773,-0.022354450076818466
1761506839618212400,5.95421240234375,-0.013868935406208038,0.0032183718867599964,-0.031986039131879807
1761506839628183300,5.964183349609375,-0.01602579653263092,0.01612851954996586,-0.032837241888046265
1761506839638155500,5.974155517578125,-0.012971949763596058,0.01861138455569744,-0.02256968803703785
1761506839648127200,5.984127197265625,-0.011817323043942451,0.010343948379158974,-0.009800748899579048
1761506839658099500,5.994099365234375,-0.016473062336444855,-0.005511447321623564,-0.0061026825569570065
1761506839668070400,6.0040703125,-0.021166235208511353,-0.021858492866158485,-0.011146266013383865
1761506839678042400,6.01404248046875,-0.021658387035131454,-0.03146664425730705,-0.022944070398807526
1761506839688014600,6.0240146484375,-0.025397541001439095,-0.023132244125008583,-0.03767753392457962
1761506839697986300,6.033986328125,-0.021069370210170746,0.002090287161991,-0.04922366887331009
1761506839707957200,6.043957275390625,-0.013762230053544044,0.023166803643107414,-0.047693002969026566
1761506839717929500,6.053929443359375,-0.009393846616148949,0.0322100967168808,-0.035107970237731934
1761506839727901200,6.063901123046875,-0.009291006252169609,0.02348303608596325,-0.01620289869606495
1761506839737873400,6.073873291015625,-0.005930096376687288,0.0032243700698018074,0.006426246836781502
1761506839747845400,6.083845458984375,-0.010772673413157463,-0.02201204001903534,0.010996675118803978
1761506839757816300,6.09381640625,-0.010680794715881348,-0.02922947332262993,0.011268584057688713
1761506839767788300,6.103788330078125,-0.005314332898706198,-0.02172757126390934,-0.0002086361637338996
1761506839777760300,6.11376025390625,-0.0042597209103405476,-0.0037994375452399254,-0.010430114343762398
1761506839787732500,6.123732421875,-0.0022707642056047916,0.01215733215212822,-0.018478451296687126
1761506839797703200,6.133703125,-0.0016611660830676556,0.026830818504095078,-0.010366463102400303
1761506839807675400,6.14367529296875,0.0037520534824579954,0.028805196285247803,0.0024926098994910717
1761506839817647400,6.1536474609375,0.0049209147691726685,0.014037967659533024,0.011598490178585052
1761506839827619300,6.163619384765625,0.007418691646307707,-0.0026180825661867857,0.02376091107726097
1761506839837590500,6.173590576171875,0.011502649635076523,-0.012026498094201088,0.023307906463742256
1761506839847562200,6.183562255859375,0.006459730211645365,-0.010497456416487694,0.019359059631824493
1761506839857534500,6.193534423828125,0.007517005316913128,-0.002175876870751381,0.008130905218422413
1761506839867506200,6.203506103515625,0.005190311931073666,0.01090159174054861,0.00548875518143177
1761506839877478400,6.213478515625,0.004036364145576954,0.01862156391143799,-0.00027672230498865247
1761506839887449300,6.223449462890625,0.0035288804210722446,0.019434863701462746,-0.002379909623414278
1761506839897421300,6.23342138671875,0.005535838659852743,0.012758585624396801,-0.00001635414082556963
1761506839907393500,6.2433935546875,0.0025736046954989433,0.0022446915972977877,0.002162644173949957
1761506839917365200,6.253365234375,0.0046809641644358635,0.0031616180203855038,0.005932615138590336
1761506839927336400,6.26333642578125,0.005011888220906258,0.005224868189543486,0.009936939924955368
1761506839937308400,6.273308349609375,0.0029061264358460903,0.005353765096515417,0.014084546826779842
1761506839947280400,6.2832802734375,0.0024487855844199657,0.008724723942577839,0.012018970213830471
1761506839957252400,6.29325244140625,0.0017446456477046013,0.008774524554610252,0.006753368303179741
1761506839967223300,6.303223388671875,-0.00016815215349197388,0.010697886347770691,0.004218661226332188
1761506839977195300,6.3131953125,0.006008783355355263,0.0068725221790373325,0.00339787476696074
1761506839987167200,6.323167236328125,0.011060955934226513,0.002830633893609047,0.0003456514095887542
1761506839997139500,6.333139404296875,0.011220479384064674,-0.00003439490683376789,-0.0001225323649123311
1761506840007111400,6.343111328125,0.010288475081324577,-0.005676358472555876,-0.006772912107408047
1761506840017082400,6.353082275390625,0.01123735960572958,-0.006679837591946125,-0.0029406228568404913
1761506840027054300,6.363054443359375,0.01325642503798008,-0.0011966167949140072,-0.00018629722762852907
1761506840037026300,6.3730263671875,0.010594596154987812,0.00571987871080637,0.010988326743245125
1761506840046998300,6.382998291015625,0.0045489100739359856,0.01049107126891613,0.025587158277630806
1761506840056969500,6.392969482421875,0.0012401985004544258,0.006133607123047113,0.031182726845145226
1761506840066941200,6.402941162109375,-0.005251601804047823,-0.002752740401774645,0.032196059823036194
1761506840076913400,6.412913330078125,-0.0027985642664134502,-0.009045789949595928,0.01930396258831024
1761506840086885400,6.422885498046875,-0.003590397071093321,-0.009750156663358212,0.004489803221076727
1761506840096857300,6.432857421875,-0.006603762973099947,-0.004952205345034599,-0.009653978981077671
1761506840106828500,6.44282861328125,-0.009249687194824219,0.004465571604669094,-0.009389320388436317
1761506840116800300,6.45280029296875,-0.017642106860876083,0.01271551102399826,-0.013341717422008514
1761506840126772500,6.4627724609375,-0.02240407094359398,0.016566501930356026,-0.010031230747699738
1761506840136744200,6.472744140625,-0.025316238403320312,0.00810963287949562,0.0004176825750619173
1761506840146715400,6.48271533203125,-0.02422848716378212,-0.0022338477429002523,0.0035896841436624527
1761506840156687400,6.492687255859375,-0.02759445458650589,-0.008672306314110756,0.004328178707510233
1761506840166659300,6.502659423828125,-0.025582363829016685,-0.008578442968428135,0.006162653677165508
1761506840176631600,6.512631591796875,-0.022592701017856598,-0.003477424383163452,0.0046989805996418
1761506840186602200,6.522602294921875,-0.02470032311975956,-0.00003480631858110428,-0.0016093093436211348
1761506840196574500,6.532574462890625,-0.029912395402789116,-0.00011070643085986376,-0.0063388170674443245
1761506840206546400,6.54254638671875,-0.02981112152338028,-0.001508906134404242,-0.011223793029785156
1761506840216518400,6.552518310546875,-0.026410531252622604,-0.0006859892746433616,-0.013216903433203697
1761506840226490400,6.562490478515625,-0.021862493827939034,0.0023571879137307405,-0.01978369802236557
1761506840236461300,6.57246142578125,-0.015796611085534096,0.0051170215010643005,-0.018428947776556015
1761506840246433300,6.582433349609375,-0.01249425858259201,0.007974009029567242,-0.011987084522843361
1761506840256405200,6.5924052734375,-0.006379107944667339,0.012406308203935623,-0.004280163440853357
1761506840266377500,6.60237744140625,-0.0044605666771531105,0.0034418413415551186,0.005612681154161692
1761506840276348400,6.612348388671875,0.000009282957762479782,-0.010799945332109928,0.009656425565481186
1761506840286320400,6.6223203125,0.0029961797408759594,-0.023631643503904343,0.006187356077134609
1761506840296292400,6.632292236328125,0.007736073806881905,-0.02278715744614601,-0.0010010480182245374
1761506840306264300,6.642264404296875,0.014337467029690742,-0.002978217788040638,-0.009097319096326828
1761506840316236300,6.652236328125,0.020173517987132072,0.023897871375083923,-0.009491732344031334
1761506840326207500,6.66220751953125,0.027568314224481583,0.037741679698228836,-0.004386956803500652
1761506840336179200,6.67217919921875,0.03218996524810791,0.0374697707593441,0.002675746101886034
1761506840346151400,6.6821513671875,0.03291058540344238,0.027507832273840904,0.021379955112934113
1761506840356123400,6.692123291015625,0.03453937545418739,0.00840657576918602,0.030733244493603706
1761506840366094300,6.70209423828125,0.03702809661626816,-0.005474726669490337,0.02889595925807953
1761506840376066600,6.712066650390625,0.038987647742033005,-0.010497980751097202,0.02011338621377945
1761506840386038300,6.722038330078125,0.03988350182771683,0.005258550867438316,0.010521035641431808
1761506840396010500,6.732010498046875,0.0365484245121479,0.020765606313943863,-0.000238402106333524
1761506840405981200,6.741981201171875,0.03625361621379852,0.028682604432106018,-0.010291097685694695
1761506840415953400,6.751953369140625,0.03690742328763008,0.01918177865445614,-0.010123051702976227
1761506840425925400,6.76192529296875,0.03564344346523285,0.007295168936252594,-0.012326372787356377
1761506840435897300,6.7718974609375,0.03358615189790726,-0.007777523249387741,-0.00843789055943489
1761506840445869600,6.78186962890625,0.03153388202190399,-0.016454001888632774,-0.00642442237585783
1761506840455840300,6.79184033203125,0.03133760765194893,-0.017722999677062035,-0.013072204776108265
1761506840465812500,6.8018125,0.022587450221180916,-0.0050164866261184216,-0.011791017837822437
1761506840475784200,6.8117841796875,0.023591194301843643,0.011511623859405518,-0.012293023057281971
1761506840485756400,6.82175634765625,0.019666273146867752,0.019074328243732452,-0.008744008839130402
1761506840495727400,6.831727294921875,0.01772882416844368,0.011049157939851284,-0.008096062578260899
1761506840505699300,6.84169921875,0.010927710682153702,0.0001131563913077116,-0.0039898790419101715
1761506840515671300,6.85167138671875,0.009199585765600204,-0.0076962970197200775,0.00459695141762495
1761506840525643300,6.861643310546875,0.01126912608742714,-0.011443471536040306,0.009297193959355354
1761506840535614200,6.8716142578125,0.010169240646064281,-0.007518505211919546,0.013513776473701
1761506840545586400,6.88158642578125,0.01291975099593401,0.0007140204543247819,0.018697915598750114
1761506840555558400,6.891558349609375,0.01222786121070385,0.008083520457148552,0.017792174592614174
1761506840565530400,6.9015302734375,0.015533952042460442,0.014719430357217789,0.019702550023794174
1761506840575502300,6.91150244140625,0.01794491335749626,0.0117819644510746,0.02016274444758892
1761506840585473300,6.921473388671875,0.017411138862371445,-0.00037745677400380373,0.02361147850751877
1761506840595445500,6.931445556640625,0.013004140928387642,-0.010500132106244564,0.02314595691859722
1761506840605417200,6.941417236328125,0.013580294325947762,-0.016021642833948135,0.0234343484044075
1761506840615389400,6.951389404296875,0.01218453049659729,-0.015103118494153023,0.025008542463183403
1761506840625360100,6.961360107421875,0.0078004044480621815,-0.011429926380515099,0.023325985297560692
1761506840635332400,6.971332275390625,0.005463746376335621,-0.006586967967450619,0.022303598001599312
1761506840645304300,6.98130419921875,0.001087371725589037,-0.004262939095497131,0.018408754840493202
1761506840655276300,6.9912763671875,-0.0023782001808285713,-0.0009132151026278734,0.011155103333294392
1761506840665248500,7.00124853515625,-0.008915807120501995,-0.0008832996245473623,0.007815234363079071
1761506840675219200,7.01121923828125,-0.021048102527856827,0.002973756520077586,0.005895361304283142
1761506840685191400,7.02119140625,-0.02331574447453022,0.00038597313687205315,0.0009073778055608273
1761506840695163100,7.0311630859375,-0.027154425159096718,0.0067181712947785854,0.003577995812520385
1761506840705135400,7.04113525390625,-0.03030441515147686,0.00947139784693718,0.004113350994884968
1761506840715106300,7.051106201171875,-0.0344107449054718,0.007146724034100771,0.0005990436766296625
1761506840725078000,7.061078125,-0.03439768776297569,0.008662545122206211,-0.003314265049993992
1761506840735050200,7.07105029296875,-0.03675272315740585,0.0033977418206632137,-0.009037931449711323
1761506840745022000,7.08102197265625,-0.03899975121021271,0.0031791781075298786,-0.013931075111031532
1761506840754993200,7.0909931640625,-0.039766207337379456,0.0028891596011817455,-0.015211788937449455
1761506840764965000,7.100965087890625,-0.03826669231057167,0.009653831832110882,-0.008449993096292019
1761506840774937000,7.11093701171875,-0.04007364809513092,0.012210999615490437,0.00030861119739711285
1761506840784909300,7.120909423828125,-0.03550872579216957,0.0073624481447041035,0.010498132556676865
1761506840794881000,7.130881103515625,-0.02640417590737343,0.00046672543976455927,0.020849306136369705
1761506840804852200,7.140852294921875,-0.01757519319653511,-0.009808160364627838,0.02795390971004963
1761506840814824200,7.15082421875,-0.01744017004966736,-0.02083231694996357,0.023721346631646156
1761506840824796200,7.160796142578125,-0.018607772886753082,-0.0217384435236454,0.012847306206822395
1761506840834768100,7.17076806640625,-0.015023957006633282,-0.01165811438113451,-0.0050651151686906815
1761506840844739000,7.180739013671875,-0.016252201050519943,0.007242028135806322,-0.017743688076734543
1761506840854711000,7.1907109375,-0.008524240925908089,0.026012253016233444,-0.020035337656736374
1761506840864683300,7.200683349609375,0.0009041484445333481,0.032579608261585236,-0.014629652723670006
1761506840874655200,7.2106552734375,0.003781960578635335,0.024214087054133415,-0.0002334035816602409
1761506840884626200,7.220626220703125,0.0030624489299952984,0.001959872432053089,0.006705523002892733
1761506840894598100,7.23059814453125,-0.002167999278753996,-0.031122978776693344,-0.00010045140516012907
1761506840904570000,7.240570068359375,-0.0038244500756263733,-0.043802764266729355,-0.0076330238953232765
1761506840914542000,7.2505419921875,-0.004869474098086357,-0.03831345587968826,-0.019506728276610374
1761506840924514000,7.26051416015625,-0.0005618133582174778,-0.02425473742187023,-0.03314767777919769
1761506840934485200,7.2704853515625,0.013253601267933846,-0.01666872203350067,-0.061435773968696594
1761506840944457000,7.28045703125,0.016756301745772362,0.010942423716187477,-0.07034407556056976
1761506840954429200,7.29042919921875,0.00865070428699255,0.01836811564862728,-0.05784772336483002
1761506840964401200,7.300401123046875,-0.004304960835725069,0.015394976362586021,-0.03598906099796295
1761506840974372000,7.3103720703125,-0.00407300004735589,0.008076876401901245,-0.0012246889527887106
1761506840984344300,7.32034423828125,0.00022831512615084648,-0.0048364028334617615,0.019975755363702774
1761506840994316000,7.33031591796875,0.0082074124366045,-0.012733208015561104,0.028001990169286728
1761506841004288300,7.340288330078125,0.014745352789759636,-0.014334493316709995,0.027262847870588303
1761506841014260000,7.350260009765625,0.014992494136095047,-0.005555914714932442,0.02027098461985588
1761506841024231200,7.360231201171875,0.008731857873499393,0.0075182728469371796,0.011038309894502163
1761506841034203400,7.370203369140625,0.008784588426351547,0.022774191573262215,0.0005457212682813406
1761506841044175000,7.380175048828125,0.014547863975167274,0.03207569569349289,-0.0013068633852526546
1761506841054147300,7.390147216796875,0.015403004363179207,0.030239712446928024,0.00003723392728716135
1761506841064118300,7.4001181640625,0.017327062785625458,0.015323279425501823,0.002604758134111762
1761506841074090200,7.41009033203125,0.022065889090299606,0.006647499278187752,0.013548219576478004
1761506841084062200,7.420062255859375,0.023554332554340363,-0.00044465356040745974,0.022096136584877968
1761506841094034200,7.4300341796875,0.02493385039269924,-0.0021107271313667297,0.024128129705786705
1761506841104005000,7.440005126953125,0.022904787212610245,-0.003812864888459444,0.018763752654194832
1761506841113977000,7.44997705078125,0.01841256581246853,-0.0005313176661729813,0.007025339640676975
1761506841123949300,7.45994921875,0.011656923219561577,0.0047791823744773865,-0.00738605996593833
1761506841133921000,7.469921142578125,0.008219580166041851,0.007781896274536848,-0.018131382763385773
1761506841143893200,7.479893310546875,0.009734958410263062,0.014737441204488277,-0.026401948183774948
1761506841153864200,7.4898642578125,0.013473236933350563,0.013364315964281559,-0.02615933306515217
1761506841163836200,7.499836181640625,0.014173456467688084,0.00702968193218112,-0.01898844726383686
1761506841173808000,7.50980810546875,0.017647549510002136,-0.0006681851809844375,-0.0117595624178648
1761506841183780000,7.519780029296875,0.021325716748833656,-0.011427659541368484,-0.005756205413490534
1761506841193751000,7.5297509765625,0.022518014535307884,-0.011925138533115387,-0.000047453329898416996
1761506841203723300,7.53972314453125,0.025909963995218277,-0.011535056866705418,-0.00009740341920405626
1761506841213695200,7.5496953125,0.020588701590895653,-0.005270237568765879,-0.0003812963841482997
1761506841223667200,7.559667236328125,0.023759964853525162,0.0006078839651308954,0.0031993237789720297
1761506841233638400,7.569638427734375,0.025753606110811234,0.00006593065336346626,0.008911804296076298
1761506841243610000,7.579610107421875,0.019913483411073685,0.001491342205554247,0.0062254746444523335
1761506841253582300,7.589582275390625,0.020751312375068665,0.002753414213657379,0.007915783673524857
1761506841263554000,7.599553955078125,0.013861456885933876,0.004087458830326796,0.010011065751314163
1761506841273526300,7.6095263671875,0.006347614340484142,-0.0006212762091308832,0.0064429622143507
1761506841283497200,7.619497314453125,0.005265761632472277,0.001423161942511797,-0.001133760204538703
1761506841293469200,7.62946923828125,0.004604498855769634,-0.0010067061521112919,-0.009059061296284199
1761506841303441400,7.63944140625,0.00020670006051659584,-0.0007009030086919665,-0.012899188324809074
1761506841313413000,7.6494130859375,0.00048553338274359703,-0.0026913494803011417,-0.016346916556358337
1761506841323384300,7.65938427734375,-0.0077893235720694065,-0.009527336806058884,-0.018728701397776604
1761506841333356000,7.66935595703125,-0.012347057461738586,-0.011237884871661663,-0.016933996230363846
1761506841343328300,7.679328369140625,-0.020178426057100296,-0.019446883350610733,-0.01252250000834465
1761506841353300000,7.689300048828125,-0.024985963478684425,-0.023893296718597412,-0.017472518607974052
1761506841363271200,7.699271240234375,-0.028359051793813705,-0.01577703468501568,-0.021154752001166344
1761506841373243100,7.7092431640625,-0.028711654245853424,-0.006722820457071066,-0.0274422075599432
1761506841383215000,7.719215087890625,-0.03142431378364563,0.0018685446120798588,-0.026758454740047455
1761506841393187300,7.729187255859375,-0.034830495715141296,0.004652346950024366,-0.01686188206076622
1761506841403159000,7.739158935546875,-0.03534816950559616,0.0027778693474829197,-0.00608664657920599
1761506841413130200,7.749130126953125,-0.03385200351476669,-0.006346919573843479,0.0038996743969619274
1761506841423102200,7.759102294921875,-0.036501169204711914,-0.013956718146800995,0.011938546784222126
1761506841433074200,7.76907421875,-0.03366676717996597,-0.008826404809951782,0.013344429433345795
1761506841443046100,7.779046142578125,-0.04233349487185478,0.009017731994390488,0.0027216426096856594
1761506841453017300,7.789017333984375,-0.049937352538108826,0.007762051187455654,-0.019696582108736038
1761506841462989000,7.798989013671875,-0.05174323543906212,0.014883828349411488,-0.034926194697618484
1761506841472961300,7.808961181640625,-0.052089981734752655,0.01993158459663391,-0.04410557821393013
1761506841482933200,7.818933349609375,-0.04717264696955681,0.014623330906033516,-0.03967002406716347
1761506841492904200,7.828904296875,-0.05259111523628235,0.005205594003200531,-0.023935267701745033
1761506841502876200,7.838876220703125,-0.0550885871052742,-0.0076493164524436,-0.011572461575269699
1761506841512848100,7.84884814453125,-0.06291321665048599,-0.015790333971381187,0.0008378694765269756
1761506841522820400,7.8588203125,-0.0707860141992569,-0.016752254217863083,-0.007175731472671032
1761506841532792000,7.8687919921875,-0.07340364158153534,-0.010733244009315968,-0.022628724575042725
1761506841542763300,7.87876318359375,-0.06993917375802994,0.0013632442569360137,-0.04653547704219818
1761506841552735000,7.88873486328125,-0.06333906203508377,0.021393945440649986,-0.0681062787771225
1761506841562707200,7.898707275390625,-0.05841734632849693,0.03181067109107971,-0.07674403488636017
1761506841572679200,7.90867919921875,-0.05137089267373085,0.03582831844687462,-0.07114846259355545
1761506841582650000,7.918650146484375,-0.051975052803754807,0.03613486513495445,-0.06077601760625839
1761506841592622300,7.928622314453125,-0.04331205412745476,0.02684842422604561,-0.04222843050956726
1761506841602594000,7.938593994140625,-0.03286100924015045,0.02255631610751152,-0.038113079965114594
1761506841612566300,7.948566162109375,-0.02125229313969612,0.016734112054109573,-0.029143286868929863
1761506841622537200,7.958537109375,-0.011569833382964134,0.01621090993285179,-0.026331286877393723
1761506841632509200,7.96850927734375,-0.004998750053346157,0.012309113517403603,-0.02277117222547531
1761506841642481200,7.978481201171875,-0.0024752537719905376,0.004283706191927195,-0.008997480385005474
1761506841652453000,7.988453125,0.004769076593220234,0.004277847241610289,0.0034080566838383675
1761506841662425300,7.99842529296875,0.007337541785091162,0.005590647459030151,0.014963453635573387
1761506841672396300,8.008396240234376,0.014064420014619827,0.00841226615011692,0.0172582995146513
1761506841682368300,8.0183681640625,0.017679400742053986,0.01061492133885622,0.014420907013118267
1761506841692340200,8.02834033203125,0.018092723563313484,0.007277980912476778,0.0071307700127363205
1761506841702312200,8.038312255859376,0.019809124991297722,0.009803235530853271,-0.0032922488171607256
1761506841712282400,8.048282470703125,0.022400114685297012,0.00997927039861679,-0.01245618611574173
1761506841722254600,8.058254638671874,0.02251516655087471,0.01692437194287777,-0.01292733009904623
1761506841732226300,8.068226318359375,0.022046182304620743,0.017030365765094757,-0.007790358737111092
1761506841742198500,8.078198486328125,0.02257702499628067,0.006274083629250526,0.0020069382153451443
1761506841752170200,8.088170166015624,0.02498399093747139,-0.008075028657913208,0.00768293347209692
1761506841762141400,8.098141357421875,0.02522573247551918,-0.012464298866689205,0.00402738805860281
1761506841772113400,8.108113525390625,0.026892872527241707,-0.0032124770805239677,-0.0008009232115000486
1761506841782085400,8.11808544921875,0.030993225052952766,0.003949856385588646,-0.012590114958584309
1761506841792057600,8.1280576171875,0.03163504973053932,0.012113776989281178,-0.02749289758503437
1761506841802028500,8.138028564453125,0.03323537856340408,0.020589610561728477,-0.03541881963610649
1761506841812000500,8.14800048828125,0.039555057883262634,0.030078986659646034,-0.042900171130895615
1761506841821972500,8.157972412109375,0.04033118113875389,0.018482431769371033,-0.04336995631456375
1761506841831944400,8.1679443359375,0.041324540972709656,0.01401125080883503,-0.03137800842523575
1761506841841915400,8.177915283203125,0.05235585197806358,0.014277398586273193,-0.014795183204114437
1761506841851887400,8.187887451171875,0.059156231582164764,0.00265855947509408,-0.0010641913395375013
1761506841861859300,8.197859375,0.05543096363544464,-0.004885278642177582,0.002862758468836546
1761506841871831300,8.207831298828125,0.053099095821380615,-0.012269159778952599,-0.0014198708813637495
1761506841881802200,8.21780224609375,0.05516570806503296,-0.011220891959965229,-0.00786812137812376
1761506841891774500,8.2277744140625,0.05042660981416702,-0.005627721548080444,-0.01831783354282379
1761506841901746400,8.237746337890625,0.04531916603446007,0.0009178476175293326,-0.025528017431497574
1761506841911718400,8.247718505859375,0.039763014763593674,0.006448434200137854,-0.033240266144275665
1761506841921690400,8.2576904296875,0.03379421681165695,0.007589942775666714,-0.035035088658332825
1761506841931661300,8.267661376953125,0.03077046573162079,0.0034165028482675552,-0.0322725884616375
1761506841941633500,8.277633544921875,0.027107028290629387,-0.005083179567009211,-0.02981485053896904
1761506841951605200,8.287605224609376,0.02194102853536606,-0.013080386444926262,-0.03271529823541641
1761506841961577500,8.297577392578125,0.016958707943558693,-0.011357235722243786,-0.042713865637779236
1761506841971548400,8.30754833984375,0.013822569511830807,-0.011991067789494991,-0.053552400320768356
1761506841981520400,8.317520263671875,0.0030748890712857246,-0.008008409291505814,-0.06876236200332642
1761506841991492600,8.32749267578125,-0.003886081278324127,-0.0013409187085926533,-0.07545222342014313
1761506842001464300,8.33746435546875,-0.011373563669621944,0.004218213260173798,-0.07313095778226852
1761506842011435500,8.347435546875,-0.012362129054963589,0.000032789306715130806,-0.06711380928754807
1761506842021407500,8.357407470703125,-0.017164070159196854,-0.005689061712473631,-0.05820106714963913
1761506842031379500,8.36737939453125,-0.018873287364840508,-0.01660322956740856,-0.0470578670501709
1761506842041351400,8.377351318359375,-0.02003617398440838,-0.024559451267123222,-0.03359834477305412
1761506842051323400,8.387323486328125,-0.021115019917488098,-0.02893076278269291,-0.024333473294973373
1761506842061294300,8.39729443359375,-0.023408157750964165,-0.024824149906635284,-0.030047312378883362
1761506842071266300,8.407266357421875,-0.026352548971772194,-0.013610112480819225,-0.03942829743027687
1761506842081238500,8.417238525390625,-0.022440897300839424,0.0016448493115603924,-0.04953821748495102
1761506842091210200,8.427210205078126,-0.023836923763155937,0.006753857713192701,-0.052880749106407166
1761506842101181400,8.437181396484375,-0.023739945143461227,0.00042087375186383724,-0.04517317935824394
1761506842111153400,8.4471533203125,-0.028797555714845657,-0.007991253398358822,-0.036059312522411346
1761506842121125400,8.45712548828125,-0.03286435827612877,-0.019149722531437874,-0.02691641077399254
1761506842131097300,8.467097412109375,-0.03379220515489578,-0.0279765035957098,-0.022214600816369057
1761506842141069300,8.4770693359375,-0.030428405851125717,-0.0337744764983654,-0.02259182184934616
1761506842151040300,8.487040283203125,-0.030729878693819046,-0.029046837240457535,-0.023833122104406357
1761506842161012500,8.497012451171875,-0.0294773131608963,-0.021373296156525612,-0.03005266934633255
1761506842170984400,8.506984375,-0.028289541602134705,-0.016921821981668472,-0.033988021314144135
1761506842180956400,8.516956298828125,-0.03286777436733246,-0.005457913503050804,-0.03213375434279442
1761506842190927600,8.526927734375,-0.03915390372276306,-0.0075125424191355705,-0.03383950889110565
1761506842200899300,8.5368994140625,-0.040585584938526154,-0.009239657782018185,-0.028708452358841896
1761506842210871600,8.54687158203125,-0.042270831763744354,-0.010624500922858715,-0.03272370249032974
1761506842220843300,8.55684326171875,-0.03900784254074097,-0.007028406485915184,-0.04404642805457115
1761506842230814500,8.566814453125,-0.03187935799360275,0.0016015666769817472,-0.0474611334502697
1761506842240786400,8.576786376953125,-0.01875276491045952,0.00834427960216999,-0.053593117743730545
1761506842250758400,8.58675830078125,-0.014462679624557495,0.015414971858263016,-0.054013896733522415
1761506842260730600,8.596730712890626,-0.008007822558283806,0.017438046634197235,-0.047073375433683395
1761506842270702300,8.606702392578125,-0.0014290157705545425,0.0163757111877203,-0.028649626299738884
1761506842280673500,8.616673583984374,0.0077950009144842625,0.0064587220549583435,-0.009769147261977196
1761506842290645200,8.626645263671875,0.010766023769974709,-0.002957948949187994,0.005552817601710558
1761506842300617500,8.636617431640625,0.020556069910526276,-0.007995052263140678,0.005964542273432016
1761506842310589400,8.64658935546875,0.02016964554786682,-0.011460889130830765,-0.0022084328811615705
1761506842320560400,8.656560302734375,0.02622532844543457,-0.008548104204237461,-0.012452013790607452
1761506842330532400,8.666532470703125,0.024635154753923416,-0.0039030187763273716,-0.025510292500257492
1761506842340504300,8.67650439453125,0.028922688215970993,0.007259642239660025,-0.0324888676404953
1761506842350476500,8.6864765625,0.034047141671180725,0.02398163080215454,-0.023174196481704712
1761506842360447500,8.696447509765624,0.027708131819963455,0.03948082774877548,-0.02091190032660961
1761506842370419500,8.70641943359375,0.021576471626758575,0.03151051700115204,-0.02071376144886017
1761506842380391400,8.716391357421875,0.020150888711214066,0.013128637336194515,-0.016092201694846153
1761506842390363400,8.72636328125,0.014529753476381302,0.01098665688186884,-0.016698069870471954
1761506842400335400,8.73633544921875,0.011382965371012688,0.020045777782797813,-0.014987819828093052
1761506842410306600,8.746306640625,0.004286972805857658,0.02503388002514839,-0.0233038067817688
1761506842420278300,8.7562783203125,-0.0003794971853494644,0.026240641251206398,-0.03682786598801613
1761506842430250500,8.76625048828125,-0.008141813799738884,0.033136896789073944,-0.04985232278704643
1761506842440222500,8.776222412109375,-0.01618482545018196,0.04815606027841568,-0.05530700832605362
1761506842450193400,8.786193359375,-0.016799749806523323,0.051437072455883026,-0.059064462780952454
1761506842460165400,8.796165283203125,-0.01641838625073433,0.05445326119661331,-0.0564018078148365
1761506842470137300,8.806137451171875,-0.012811136431992054,0.04898126423358917,-0.04114695265889168
1761506842480109600,8.816109619140626,-0.010192180052399635,0.04654271528124809,-0.029676217585802078
1761506842490080300,8.826080322265625,-0.0064877234399318695,0.040114644914865494,-0.015555869787931442
1761506842500052500,8.836052490234374,-0.0014886274002492428,0.03846754878759384,-0.007523480337113142
1761506842510024200,8.846024169921876,0.0007835817523300648,0.03556416928768158,-0.004860319197177887
1761506842519996400,8.855996337890625,-0.0026883790269494057,0.037991221994161606,-0.007036153227090836
1761506842529968400,8.865968505859374,-0.007852247916162014,0.055668752640485764,-0.0235552079975605
1761506842539939300,8.875939208984375,-0.019720513373613358,0.06241493299603462,-0.05063854902982712
1761506842549911600,8.88591162109375,-0.02032718062400818,0.06582190841436386,-0.07449807971715927
1761506842559883300,8.89588330078125,-0.02006496861577034,0.0738244354724884,-0.08133651316165924
1761506842569855500,8.90585546875,-0.025640297681093216,0.0969257578253746,-0.07937376946210861
1761506842579826400,8.915826416015625,-0.031509652733802795,0.09929398447275162,-0.0699704959988594
1761506842589798400,8.92579833984375,-0.030261162668466568,0.08504154533147812,-0.05397661402821541
1761506842599770400,8.935770263671875,-0.025620635598897934,0.06519102305173874,-0.0323818102478981
1761506842609742300,8.945742431640625,-0.031458284705877304,0.038103219121694565,0.013251721858978271
1761506842619713300,8.95571337890625,-0.026400135830044746,-0.04345628619194031,0.066179558634758
1761506842629685500,8.965685546875,-0.019652483984827995,-0.09899065643548965,0.07788947969675064
1761506842639657500,8.975657470703124,-0.013622300699353218,-0.0789107009768486,0.051209546625614166
1761506842649629400,8.98562939453125,-0.011091498658061028,-0.031329330056905746,-0.01693994365632534
1761506842659601400,8.995601318359375,-0.012734966352581978,0.042949847877025604,-0.08925645798444748
1761506842669572400,9.005572265625,-0.00330178439617157,0.10860955715179443,-0.1308308094739914
1761506842679544600,9.015544677734376,0.006230165716260672,0.12766841053962708,-0.12458400428295135
