time,seconds_elapsed,z,y,x
1761468185335678500,0.057678466796875,0.286776375952363,-0.1096513380691409,0.23265136600043623
1761468185345632500,0.067632568359375,-0.11394435908794402,-0.059905310386419296,0.011214088986255227
1761468185355586600,0.077586669921875,-0.34642625027298923,-0.06212320563159883,-0.20045801920834927
1761468185365540600,0.08754052734375,-0.39012276865839957,-0.1188318388685584,-0.3479913806978613
1761468185375494400,0.097494384765625,-0.30789281373918054,-0.18809161838181315,-0.3394567400539294
1761468185385448700,0.10744873046875,-0.19417057296931742,-0.24094890995286403,-0.2410216098628938
1761468185395402800,0.11740283203125,-0.046183659026026724,-0.21802827228829263,-0.1505751038055867
1761468185405357600,0.127357666015625,0.15103227298855781,-0.1593384751714766,-0.07119538721833378
1761468185415311600,0.1373115234375,0.32448446757793425,-0.11135828811749815,0.03184197607114911
1761468185425265700,0.147265625,0.4731558566540479,-0.12497194905877113,0.09655644030496477
1761468185435219500,0.157219482421875,0.5835018989890813,-0.1313403881121427,0.17712280939351766
1761468185445173500,0.167173583984375,0.4655594101756811,-0.11225823263190686,0.1897081136677414
1761468185455127600,0.17712744140625,0.1580167250484228,-0.08505765262581408,0.11804795848187058
1761468185465081600,0.18708154296875,-0.20502748254835604,-0.041516032541170714,0.019504436012916265
1761468185475036700,0.19703662109375,-0.5600123023301362,0.015893515506759284,-0.051313423129916186
1761468185484990700,0.20699072265625,-0.7765086888760327,0.04303348789941519,-0.1079068690219894
1761468185494944500,0.216944580078125,-0.8227478774815797,0.09386318263299763,-0.17321648613736032
1761468185504898600,0.226898681640625,-0.7673895628750323,0.09496551785171031,-0.1680768582265824
1761468185514852600,0.2368525390625,-0.62127078089118,0.09979651820473372,-0.13688001165855676
1761468185524806400,0.246806396484375,-0.42020401866734025,0.10734225740917026,-0.15143548349458724
1761468185534760400,0.256760498046875,-0.24666823744773864,0.09346614613942801,-0.16334814920425414
1761468185544715500,0.266715576171875,-0.21143676506876943,0.08984335253238677,-0.18941245518941432
1761468185554669600,0.276669677734375,-0.11836860527098178,0.10400091109201312,-0.24430994735118
1761468185564623600,0.28662353515625,0.013057634493708609,0.09737944712564349,-0.29653190016075964
1761468185574577700,0.29657763671875,0.15789631353914738,0.07885266050584613,-0.26986129884552207
1761468185584531500,0.306531494140625,0.2944406269699335,0.0577687367491424,-0.23903975186329335
1761468185594485500,0.316485595703125,0.38221944818794723,0.04412709182240069,-0.2629241565261036
1761468185604439600,0.326439453125,0.3386076854765415,0.03107252606861293,-0.33324590271506455
1761468185614393600,0.3363935546875,0.32948096069097516,-0.013091829024255274,-0.39767022489588705
1761468185624348700,0.3463486328125,0.37465515041351316,-0.0985636154089123,-0.42184849793873724
1761468185634302700,0.356302734375,0.3941396030843258,-0.1631602254167199,-0.39672739108782257
1761468185644256500,0.366256591796875,0.3929267201632261,-0.16356968300044536,-0.38427148534692823
1761468185654210600,0.37621044921875,0.3738350662022829,-0.13252886724434793,-0.34104985446427016
1761468185664164600,0.38616455078125,0.32272914834320543,-0.059714829315617675,-0.2771611369974911
1761468185674118400,0.396118408203125,0.24142916775047776,-0.019227628365531563,-0.2123424817368388
1761468185684072400,0.406072509765625,0.14507424136698246,-0.005078399242833256,-0.17071305194906888
1761468185694027800,0.41602783203125,0.0715425566881895,0.026596841959282753,-0.14908172344267367
1761468185703981600,0.425981689453125,-0.03636953649818897,0.06424129376411437,-0.09129015380721539
1761468185713935600,0.435935546875,-0.1728092205107212,0.11877302135340868,-0.027965280768275258
1761468185723889700,0.4458896484375,-0.3745347389042377,0.16052629671655594,-0.006703114367835224
1761468185733843500,0.455843505859375,-0.6734054572761058,0.20353278701119124,-0.06770896987468004
1761468185743797500,0.465797607421875,-0.8447831836789846,0.2681866801641881,-0.16632603250388056
1761468185753752600,0.475752685546875,-0.8122282370328903,0.3079175097890198,-0.2715658742737025
1761468185763706600,0.48570654296875,-0.6009457857429981,0.24989808621443807,-0.24027744043208657
1761468185773660700,0.49566064453125,-0.3425695748448372,0.18353614703454077,-0.20463877549171447
1761468185783614700,0.50561474609375,-0.11729717664718627,0.1455201585035771,-0.20300131048299372
1761468185793568500,0.515568603515625,0.08321312073767184,0.10556216905936598,-0.15080916828978805
1761468185803522600,0.5255224609375,0.2421732641160488,0.11959880465306341,-0.11735449632499366
1761468185813476600,0.5354765625,0.3195890967518091,0.15925971084684132,-0.14476258160192518
1761468185823430700,0.5454306640625,0.3405734325915575,0.1503239785887301,-0.14701375806219874
1761468185833385500,0.555385498046875,0.32419220663309095,0.1450272604200989,-0.15783212572913616
1761468185843339800,0.56533984375,0.2952636337906122,0.14614384335987268,-0.17451500151529908
1761468185853293600,0.57529345703125,0.27153262959122654,0.1341099258907139,-0.18014573741126805
1761468185863247600,0.58524755859375,0.2266571305543184,0.11058540404886007,-0.1751449699819088
1761468185873201700,0.59520166015625,0.2075134541451931,0.10869250297434628,-0.17846092612948267
1761468185883155700,0.60515576171875,0.19219956515729425,0.08812515043765307,-0.19715119621530175
1761468185893109500,0.615109619140625,0.16671557981073856,0.06838000100404024,-0.2226045672278851
1761468185903064600,0.625064697265625,0.15794833598732946,0.04483224441707134,-0.22001871545314788
1761468185913018400,0.635018310546875,0.13318389708697795,0.017296806433424353,-0.19235208883788435
1761468185922972700,0.64497265625,0.09494096793234348,0.03009695903472602,-0.18889482452347872
1761468185932926700,0.6549267578125,0.03953706061840057,0.014333061257004736,-0.19908552527874707
1761468185942880500,0.664880615234375,-0.06001753858923912,-0.0047777357958257195,-0.20137845852151512
1761468185952834600,0.67483447265625,-0.2104670432537794,-0.01613360787294805,-0.21664430711660532
1761468185962788600,0.68478857421875,-0.303415960586071,0.007521262350305914,-0.22261680565495043
1761468185972743400,0.694743408203125,-0.25026246254742146,0.015284297567233443,-0.21117150172870605
1761468185982697500,0.704697509765625,-0.2011597012042999,-0.0013921850107610225,-0.15447477812524885
1761468185992651800,0.71465185546875,-0.18478899663984774,-0.015227964270114898,-0.11936148876585066
1761468186002606000,0.724606201171875,-0.1633113243252039,-0.025453517143055795,-0.14272289246786385
1761468186012560100,0.73456005859375,-0.11253449229001998,-0.04537110053412616,-0.15782620744500309
1761468186022514200,0.74451416015625,-0.0009469254612922668,-0.06571056259907782,-0.15997370433509348
1761468186032468200,0.75446826171875,0.09412380633056164,-0.06273585763722658,-0.16845950086861847
1761468186042423300,0.76442333984375,0.16179156741201878,-0.0766319887816906,-0.18531006137188524
1761468186052377300,0.77437744140625,0.14338906475901603,-0.06390541287325323,-0.190567470443435
1761468186062331100,0.7843310546875,0.13916589410603045,-0.017787950951233505,-0.1983236009955406
1761468186072285200,0.79428515625,0.08715338279604912,0.05608173351027071,-0.15319778045937418
1761468186082239200,0.8042392578125,-0.05777180548906326,0.10445764188356697,-0.11857435697615146
1761468186092193000,0.814193115234375,-0.14723931044638155,0.1418449771221727,-0.1501309767672792
1761468186102147000,0.82414697265625,-0.1634463488817215,0.1416618756402284,-0.16078728574030102
1761468186112102100,0.83410205078125,-0.09467267238497734,0.13795966012142596,-0.1783766819121316
1761468186122056200,0.84405615234375,0.022903905725479123,0.15403737308867274,-0.17053974120877682
1761468186132010200,0.85401025390625,0.1302145258873701,0.14322985560931265,-0.1602005718935281
1761468186141964300,0.86396435546875,0.11458850221037864,0.10066299884095788,-0.14528868783526122
1761468186151918000,0.87391796875,0.027896307185292242,0.15789375625587998,-0.09737900873422622
1761468186161872100,0.8838720703125,-0.06361234821081162,0.20966186435073614,-0.05461144176200032
1761468186171826200,0.893826171875,-0.08659808700084685,0.2431629327405244,-0.11515684015024452
1761468186181781200,0.90378125,-0.08325345274806022,0.18350845531001686,-0.16228917820323258
1761468186191735300,0.9137353515625,-0.05807984852492809,0.12285342253483832,-0.1729091372212395
1761468186201689300,0.923689453125,-0.00016425065100193021,0.10002842726446688,-0.16767744711283594
1761468186211643100,0.93364306640625,-0.001858195087313652,0.07492160466723144,-0.15218473095931112
1761468186221597200,0.94359716796875,-0.004582651615142822,0.05622552589513361,-0.16257647071201353
1761468186231551200,0.95355126953125,0.04452069424986839,0.05760222107581794,-0.15453754116315394
1761468186241505000,0.963505126953125,0.08949614652991295,0.03975523341372609,-0.15939641590379178
1761468186251460400,0.97346044921875,0.09335282195806503,-0.01094751047194004,-0.16447992971315978
1761468186261414400,0.983414306640625,0.03723813602626323,-0.03789382345601916,-0.20018972366098314
1761468186271368200,0.9933681640625,0.04249123424887657,-0.06468100035563111,-0.23721180578377096
1761468186281322200,1.003322265625,0.0785270087480545,-0.10704758531153201,-0.24179284996371714
1761468186291276300,1.0132763671875,0.12977262733876704,-0.13744111614003776,-0.22465817528944462
1761468186301230000,1.02322998046875,0.18279869960546494,-0.15472601293995975,-0.20942772680129854
1761468186311184100,1.03318408203125,0.1917448071271181,-0.1446330734707415,-0.17775142615325748
1761468186321139200,1.04313916015625,0.11522504654824733,-0.1404636788316071,-0.15120222272798417
1761468186331093200,1.05309326171875,0.057661330851912496,-0.11941263443119823,-0.11363920212890952
1761468186341047300,1.06304736328125,0.05356441692709923,-0.12105638305023311,-0.11548837365955114
1761468186351001300,1.07300146484375,0.11232581797540186,-0.14776092316769063,-0.0875596620419994
1761468186360955100,1.082955078125,0.18431378034353255,-0.18460618741884827,-0.049492966237105425
1761468186370909200,1.0929091796875,0.2250187156975269,-0.20587803496308624,-0.09010941959004849
1761468186380863200,1.10286328125,0.1726385401189327,-0.17714242740944028,-0.08156261358428746
1761468186390818000,1.112818115234375,0.0018126023799180982,-0.13309051971510052,-0.11720522404741496
1761468186400772000,1.122772216796875,-0.18517536560893058,-0.09348119757808744,-0.1554405544174835
1761468186410726400,1.132726318359375,-0.31639526914656163,-0.069773135862872,-0.12118019209299236
1761468186420680200,1.14268017578125,-0.36510523177981374,-0.04350691409744322,-0.10536109352931379
1761468186430634200,1.15263427734375,-0.338681335234642,-0.04591222167350351,-0.10310578888319433
1761468186440588300,1.16258837890625,-0.27267010918855666,-0.060710197028517716,-0.06300689313095062
1761468186450542300,1.172542236328125,-0.21676409757137297,-0.08445727557986975,-0.02500960930045694
1761468186460496100,1.18249609375,-0.14394494507610797,-0.086684084783867,-0.006518259320221841
1761468186470451200,1.192451171875,-0.03523322594463825,-0.1136086973927915,0.004233399786055088
1761468186480405000,1.202405029296875,0.08135434112846851,-0.1296494393505156,-0.015149674869515
1761468186490359300,1.212359375,0.1356920805156231,-0.15325418682172895,-0.07485825710743665
1761468186500313300,1.222313232421875,0.09510171145200728,-0.16674254088290036,-0.11326207591220736
1761468186510267100,1.23226708984375,-0.002190203520655632,-0.15680669167153535,-0.15132402247674762
1761468186520221200,1.24222119140625,-0.07643792751431465,-0.11387852731011808,-0.16337299138456582
1761468186530175200,1.25217529296875,-0.09474106144607067,-0.05601020264402032,-0.1579107073906809
1761468186540130000,1.262130126953125,-0.09532850594520569,-0.06691014764718711,-0.15714224376883357
1761468186550084000,1.272083984375,-0.05978548339903354,-0.06540449232459068,-0.15387410881835967
1761468186560038100,1.2820380859375,-0.039679099437594414,-0.04127623243592679,-0.1502997574629262
1761468186569992200,1.2919921875,-0.10065993010103702,-0.03361044704839587,-0.1353574052011594
1761468186579946200,1.3019462890625,-0.09595160627961158,0.01699570459499955,-0.11858301520664244
1761468186589900300,1.311900390625,-0.06129822604954242,0.016449322758615017,-0.09050338734369724
1761468186599854300,1.321854248046875,-0.023082184901833534,0.02604702605679631,-0.08800550611335783
1761468186609808100,1.33180810546875,0.03297346431910991,0.06281666778847575,-0.0777621983880177
1761468186619763200,1.34176318359375,0.14560557176470756,0.06691431236565112,-0.07881181703880429
1761468186629717000,1.351717041015625,0.17203998970389364,0.04296835024133324,-0.0665556351210922
1761468186639671300,1.36167138671875,0.1293126086115837,0.011193667252734303,-0.12199972831495105
1761468186649625300,1.371625244140625,0.12023381462097167,0.005406754414364695,-0.17289737371820957
1761468186659579400,1.381579345703125,0.08379647358357906,-0.001666106581315398,-0.1914781920801848
1761468186669533200,1.391533203125,0.004376315388083457,-0.03129420599527657,-0.19003084281608462
1761468186679487200,1.4014873046875,-0.07256020929813385,-0.012575842326134443,-0.19743739274553954
1761468186689442000,1.411442138671875,-0.0747445675998926,-0.029473274178430438,-0.17840853835511952
1761468186699396000,1.42139599609375,-0.01083294418156147,-0.04700023610591888,-0.15559859452340752
1761468186709350100,1.43135009765625,0.04328384593129158,-0.0824384831033647,-0.1558530076758936
1761468186719304400,1.441304443359375,0.12490998973846434,-0.1275843965794891,-0.15019249769616871
1761468186729258200,1.45125830078125,0.18562018676698205,-0.1759032410033047,-0.14810834836587308
1761468186739212300,1.46121240234375,0.17669687559902666,-0.17706870458610355,-0.1420258135817945
1761468186749166300,1.471166259765625,0.147721541005373,-0.15979535209350287,-0.1410949624724686
1761468186759120100,1.4811201171875,0.08827508030235767,-0.1728964604027569,-0.16919526779726146
1761468186769075200,1.4910751953125,0.021813772401213644,-0.1612234852004796,-0.1858270344506949
1761468186779029200,1.501029296875,-0.04189911357462406,-0.13350165779925882,-0.15913823989164083
1761468186788983000,1.510983154296875,-0.0923912834495306,-0.10994615629725157,-0.1412515047410503
1761468186798937300,1.520937255859375,-0.106499303779006,-0.07994681241810321,-0.09592902912162243
1761468186808891400,1.530891357421875,-0.06446399660408496,-0.04518522257320583,-0.05786693642660975
1761468186818845200,1.54084521484375,-0.007491232538223266,-0.044915538786351676,-0.00848890180606395
1761468186828799200,1.55079931640625,0.033082769912481304,-0.06052687635086476,0.014957878624461591
1761468186838754300,1.56075439453125,0.06881400850713253,-0.05006093885079026,0.022498795523308215
1761468186848708000,1.5707080078125,0.12690145581662654,-0.08408281624428927,0.030387137620337307
1761468186858662100,1.580662109375,0.11444997052252293,-0.09239771319031714,0.07982526839766652
1761468186868616200,1.5906162109375,0.037869419667124746,-0.0784513862285763,0.07369356070961802
1761468186878570200,1.6005703125,-0.06333996101021766,-0.0604130407128483,0.09343746803421527
1761468186888524300,1.610524169921875,-0.1524830563187599,-0.02750891530290246,0.09771116329804062
1761468186898478300,1.620478271484375,-0.1746212383687496,-0.021115487938746808,0.08217208725214004
1761468186908433200,1.63043310546875,-0.18993980353176593,-0.028820436292886734,0.0752190897764638
1761468186918387200,1.64038720703125,-0.17420155165195464,-0.04073430757895112,0.07238532765526325
1761468186928341200,1.65034130859375,-0.09048106591403483,-0.034389249401167034,0.0843645557951182
1761468186938295000,1.660294921875,0.037356209447979925,-0.06276179579608142,0.06970876538977026
1761468186948249000,1.6702490234375,0.16911796477735042,-0.1005929292794317,0.04606916580088436
1761468186958203400,1.680203369140625,0.2767909885108471,-0.1376641112409532,0.05820595912262797
1761468186968157200,1.6901572265625,0.31881285168230533,-0.16179142128154633,0.06615501843094826
1761468186978111200,1.700111328125,0.27429391099810596,-0.13586845999583602,0.1222558950331062
1761468186988066300,1.71006640625,0.21375848601460457,-0.13160985270328818,0.1570790058068931
1761468186998019800,1.720019775390625,0.137490069848299,-0.13029131745062766,0.15314762117471545
1761468187007974000,1.729973876953125,-0.010613163951039313,-0.16302717362158,0.12880053090360014
1761468187017928000,1.739927978515625,-0.16724691020846366,-0.1994880416650325,0.08874353806432336
1761468187027882000,1.749882080078125,-0.29805355677008627,-0.20943660422749816,0.0634306715009734
1761468187037836000,1.7598359375,-0.38662148253917694,-0.20391981356739997,0.07423015180435032
1761468187047790000,1.7697900390625,-0.34811318044662476,-0.23126630485020577,0.04772442219462245
1761468187057745000,1.779744873046875,-0.2579822431445122,-0.30396212322674687,0.04737429358270019
1761468187067699000,1.789698974609375,-0.13731997397840023,-0.40062005114480853,0.02046213859654963
1761468187077653000,1.799653076171875,-0.041050972312688824,-0.4822917145941406,-0.004865450611896813
1761468187087606800,1.809606689453125,0.015353636476397514,-0.5459755206059664,-0.038169462059624494
1761468187097560800,1.819560791015625,0.0358060573965311,-0.5890723195325583,-0.044578123525530096
1761468187107515000,1.829514892578125,0.015772154149413107,-0.6147380911868066,-0.04295760965161025
1761468187117469200,1.83946923828125,0.05450841977894306,-0.570523028820008,-0.05270874994583428
1761468187127424000,1.849424072265625,0.1312333475410938,-0.5407037176828832,-0.04896715226471424
1761468187137378000,1.8593779296875,0.16572130807638166,-0.5084680661190301,-0.06096172410417348
1761468187147331800,1.869331787109375,0.23635960940122602,-0.4919111182674765,-0.06595854601077734
1761468187157286000,1.879285888671875,0.30785481981635093,-0.4241152007617056,-0.01662310842294246
1761468187167240000,1.889239990234375,0.39635727913379665,-0.31088220481351014,0.00983421546779573
1761468187177194000,1.899194091796875,0.48701837778985496,-0.2101032514426857,-0.03398110699169338
1761468187187147800,1.909147705078125,0.5397153642326593,-0.20309052313640713,0.02181300521623343
1761468187197102000,1.91910205078125,0.5748690952003002,-0.1295469288241118,-0.0007616685548797249
1761468187207057000,1.929056884765625,0.5466764354169369,-0.04621778049133718,0.010871522626280784
1761468187217011000,1.939010986328125,0.47933834468126296,0.038659474066272376,-0.0026487609431147573
1761468187226965000,1.948965087890625,0.3812099788844585,0.12318937649093567,-0.016100765049271284
1761468187236919000,1.9589189453125,0.26435762339532376,0.1915024497386068,0.0007296659814193845
1761468187246872800,1.968872802734375,0.22938567873537538,0.2563021080378443,-0.02043722335100174
1761468187256827000,1.978826904296875,0.2503922264069319,0.2759288917887956,-0.025759185558743774
1761468187266781000,1.988781005859375,0.2691243994057178,0.24986425701007245,-0.0190172370178625
1761468187276736000,1.998736083984375,0.30315643286705013,0.23386910775974393,-0.03251596634257584
1761468187286690000,2.00868994140625,0.3242068196803331,0.2430604222141206,-0.05764127444457262
1761468187296644000,2.01864404296875,0.3704091834068298,0.2175609470374882,-0.13764529694262892
1761468187306598000,2.028597900390625,0.38937282707393167,0.1398668819822371,-0.22315752493552862
1761468187316552000,2.038552001953125,0.38069150796830653,0.018605550944432614,-0.29934586160294707
1761468187326506000,2.048506103515625,0.3624585166633129,-0.13943397045768796,-0.38774120728410777
1761468187336459800,2.058459716796875,0.3451297807216644,-0.34700010463818903,-0.4583830157402903
1761468187346415000,2.0684150390625,0.31296412565410137,-0.6181012840095907,-0.5880722025793046
1761468187356369000,2.078368896484375,0.2507704120695591,-0.914879487081617,-0.7295775724835694
1761468187366323000,2.088322998046875,0.1717027205735445,-1.2145265966534613,-0.8445200757633894
1761468187376277000,2.098277099609375,0.03601882336437702,-1.4278992982208727,-0.9440461795289069
1761468187386231000,2.10823095703125,-0.09126607881188392,-1.7032478328384457,-1.0278646457485854
1761468187396184800,2.118184814453125,-0.2236000810712576,-1.9327827107861637,-1.1089783099889754
1761468187406139000,2.128138916015625,-0.3795148654043674,-1.9810323624312876,-1.0751123538095504
1761468187416093000,2.138093017578125,-0.5719575916677713,-2.02670164219439,-1.027880062513426
1761468187426048000,2.148048095703125,-0.8251058387845754,-2.050338392239064,-0.9541334929749369
1761468187436002000,2.158001953125,-1.0599188032656908,-1.9786619800381362,-0.9379164446022361
1761468187445956000,2.1679560546875,-1.1836626718342305,-1.8519662759266793,-0.8397893939796834
1761468187455910000,2.177909912109375,-1.1814771444886922,-1.7161664972528814,-0.5405757073890417
1761468187465864000,2.187864013671875,-1.0443050545483827,-1.4455753862954674,-0.3286972629673779
1761468187475818000,2.19781787109375,-0.7782213380128145,-1.2105888188131153,-0.03487739824429154
1761468187485772800,2.207772705078125,-0.4734831889122724,-1.0476865136802196,0.2700611687991768
1761468187495727000,2.21772705078125,-0.1670674619883299,-0.8894774078648537,0.4478046308416873
1761468187505681200,2.22768115234375,0.12178221310675144,-0.758695676548779,0.5410699206467717
1761468187515635000,2.237635009765625,0.38882220745384694,-0.6956070599511265,0.6223764040455222
1761468187525589000,2.247589111328125,0.6740484313547611,-0.681372490632534,0.6393550844404846
1761468187535543000,2.25754296875,0.8401818273633718,-0.6675684216856956,0.6174548758648336
1761468187545496800,2.267496826171875,0.8987070815682411,-0.6484649311564862,0.5731977279219777
1761468187555451000,2.277450927734375,0.8537947576522826,-0.6318341874163598,0.5149523135717958
1761468187565406000,2.287406005859375,0.841615659558773,-0.6283712605461478,0.4574139515124261
1761468187575360000,2.297360107421875,0.8206208023250102,-0.6698183925695717,0.4366985688071698
1761468187585314000,2.30731396484375,0.7219201895982027,-0.7020025331418961,0.4038132211629301
1761468187595268000,2.31726806640625,0.6111503688931464,-0.7434565332975238,0.3635257075034082
1761468187605222000,2.327221923828125,0.44764089164733883,-0.80692282410115,0.3581370732676238
1761468187615176000,2.337176025390625,0.32041444166004657,-0.8569773332111537,0.3578478810627013
1761468187625130000,2.3471298828125,0.26114567561149593,-0.8530397745665163,0.3380982746496796
1761468187635084800,2.357084716796875,0.23346681056916713,-0.8892099891003221,0.32192280039638277
1761468187645038800,2.367038818359375,0.2281435697197914,-0.9714764035724103,0.23954868776611982
1761468187654993200,2.3769931640625,0.2694435483574867,-1.1080855989329517,0.09419482574015856
1761468187664947000,2.386947021484375,0.2876180874735117,-1.249955783561617,-0.06438947006314992
1761468187674901000,2.39690087890625,0.24067338094711302,-1.3634848398469388,-0.16928404205925762
1761468187684855000,2.40685498046875,0.19596330160498618,-1.4558420748963952,-0.2531989543907344
1761468187694808800,2.416808837890625,0.1597679526299238,-1.5054789431162177,-0.31225144734010096
1761468187704764000,2.426763916015625,0.14330138647556304,-1.568643693690002,-0.3216391611494124
1761468187714718000,2.436718017578125,0.12880524361133575,-1.6578294590964913,-0.3618159809760749
1761468187724671700,2.446671630859375,0.21630641693174837,-1.725931666072458,-0.3796145994517952
1761468187734626000,2.4566259765625,0.28318331989645956,-1.784115121102333,-0.38726314144358037
1761468187744580000,2.466580078125,0.305724822050333,-1.88226657551378,-0.384735814923048
1761468187754534000,2.476533935546875,0.35398996352553364,-1.9880033704876898,-0.421106739660725
1761468187764488000,2.486488037109375,0.38834173046052456,-2.051120628657937,-0.4800543109308928
1761468187774443000,2.496443115234375,0.32977731328904625,-2.0741310634978114,-0.4156738278917968
1761468187784396800,2.506396728515625,0.22409634015560148,-2.0125749171644447,-0.28509309904053803
1761468187794350800,2.516350830078125,0.08877367747426032,-1.8589514586389064,-0.1560677098724991
1761468187804305200,2.52630517578125,-0.03445931896269321,-1.7297309122249482,-0.04720080017931759
1761468187814259000,2.536259033203125,-0.11411737756729125,-1.6563326446674764,0.058930912396311756
1761468187824213000,2.546212890625,-0.22232231622040272,-1.594145506954193,0.19223580551445482
1761468187834167000,2.5561669921875,-0.4267097472995519,-1.5154606772959232,0.31366357916034754
1761468187844121900,2.566121826171875,-0.6895610577851533,-1.3775038667187094,0.40085451748780904
1761468187854076000,2.576075927734375,-0.9780980136692523,-1.2410226816520094,0.4173826045710593
1761468187864030000,2.586030029296875,-1.1726409270823002,-1.0870026250243185,0.42314401764199133
1761468187873983700,2.595983642578125,-1.2240835295498371,-1.018579515530914,0.5149883347332477
1761468187883938000,2.60593798828125,-1.2359148371189832,-1.00899613301903,0.6897667364250868
1761468187893892000,2.61589208984375,-1.2604086423844099,-0.993327293113619,0.7461194688964635
1761468187903846100,2.62584619140625,-1.3438392052650452,-1.0334246179632842,0.699747009300068
1761468187913800000,2.635800048828125,-1.5763883164674042,-1.210969634824246,0.46570013382062314
1761468187923755000,2.645755126953125,-2.2029162872344252,-1.303114980688691,0.023360417321324347
1761468187933708800,2.655708740234375,-3.3764036020129917,-1.190791866127029,-0.5355610210321843
1761468187943662800,2.665662841796875,-4.781772503995895,-0.9393941890046,-1.0037141009628772
1761468187953617000,2.675616943359375,-5.875927338862419,-0.419305279729329,-1.3431041689887642
1761468187963571000,2.685571044921875,-6.254454362273216,0.335152540053986,-1.541900940454006
1761468187973525000,2.69552490234375,-5.805052306172251,0.995962610053271,-1.4403136663749814
1761468187983480000,2.70547998046875,-4.8061400525331495,1.3753544335998593,-1.1172017292592673
1761468187993433900,2.715433837890625,-3.290862915110588,1.610374026568979,-0.8300480444271117
1761468188003388200,2.72538818359375,-1.5731354521512984,1.7783347841352224,-0.6215250479131936
1761468188013342200,2.73534228515625,0.09488953000605106,1.7258220682181418,-0.2805894309457391
1761468188023296000,2.7452958984375,1.5272317791104315,1.6281825088515878,0.06915164296366275
1761468188033250000,2.75525,2.698945069953799,1.5760383339859545,0.3426163365960121
1761468188043204400,2.765204345703125,3.577461596408486,1.479561388657987,0.6586524170413612
1761468188053158400,2.775158447265625,4.22563675083816,1.3839334613747893,0.8999976328354329
1761468188063113200,2.78511328125,4.5011359459728,1.3008267236210405,1.042700907287374
1761468188073067300,2.7950673828125,4.4420945589393375,1.2822189076542854,1.0356213242899626
1761468188083021000,2.80502099609375,4.1140830862790345,1.3564843134351074,0.9030120122205465
1761468188092975000,2.81497509765625,3.5301270137816667,1.3819101388536392,0.7893930126294493
1761468188102929200,2.82492919921875,2.893543512946367,1.3971481861263513,0.7032628354012965
1761468188112883200,2.83488330078125,2.433987727099657,1.497498904147744,0.4814585517056286
1761468188122837200,2.844837158203125,2.0417700319886207,1.57526325796023,0.23308548310138283
1761468188132792300,2.854792236328125,1.7016870132625102,1.618176370882988,-0.007860065850615501
1761468188142746000,2.86474609375,1.4213912315011024,1.5529222468145192,-0.2160129138778895
1761468188152700200,2.8747001953125,1.141260869434476,1.4342999590434133,-0.3289197100790217
1761468188162654200,2.884654296875,0.866207664501667,1.3471907076500356,-0.3600379384528845
1761468188172608300,2.894608154296875,0.5369102436840534,1.2392748150713742,-0.3466048217102885
1761468188182562000,2.90456201171875,0.09136953918635844,1.2329947118885813,-0.36257224270347505
1761468188192516400,2.914516357421875,-0.4133832327365875,1.2476241257436573,-0.3863865778047591
1761468188202471200,2.92447119140625,-0.895066679239273,1.2763524998389184,-0.45005197137705977
1761468188212425200,2.93442529296875,-1.2852432239115237,1.2728691877678036,-0.4965259185865521
1761468188222379300,2.944379150390625,-1.4948118570208548,1.2070577220775187,-0.5058522575974465
1761468188232333000,2.9543330078125,-1.4461439799636602,1.1042094881519675,-0.5053847131509334
1761468188242287000,2.964287109375,-1.2000304537892341,1.0044440957378595,-0.4731135518822819
1761468188252241200,2.9742412109375,-0.8129144657313824,0.8267886773049831,-0.4252433280088007
1761468188262195200,2.9841953125,-0.4033534216314554,0.6824662041533738,-0.43469212435558435
1761468188272150300,2.994150390625,0.060088265737891194,0.5268226379770785,-0.4841529784213751
1761468188282104300,3.004104248046875,0.47997255093157287,0.3099251963496208,-0.5242175700452179
1761468188292058000,3.01405810546875,0.8153045757383107,0.10841551266387105,-0.6274552416797727
1761468188302012200,3.02401220703125,1.0562409915357827,-0.11023352187126874,-0.7516663624338805
1761468188311966200,3.03396630859375,1.197169803661108,-0.3117688514549285,-0.8796434846580028
1761468188321920300,3.043920166015625,1.248213177677989,-0.45079073398038744,-0.9651568451620638
1761468188331874000,3.0538740234375,1.1464672059059142,-0.5560784700125455,-1.0390187847085297
1761468188341829400,3.063829345703125,1.038233625680208,-0.6068136548630892,-1.1444710636526345
1761468188351783200,3.073783203125,0.9820856220006943,-0.6650505205806344,-1.24153443056643
1761468188361737200,3.0837373046875,1.0223632718533278,-0.8019154442679136,-1.3048080483421682
1761468188371691300,3.093691162109375,1.164923484572768,-0.9943960183236747,-1.2841494373254476
1761468188381645300,3.103645263671875,1.3374679166674612,-1.1174668099362401,-1.120077796152234
1761468188391599000,3.11359912109375,1.4526006087571381,-1.1543282946698368,-0.9206450648710132
1761468188401553200,3.12355322265625,1.4624234991133211,-1.143392986092344,-0.7443598388127982
1761468188411508200,3.13350830078125,1.3450462429672478,-1.1399338586144148,-0.5972206277400255
1761468188421462300,3.143462158203125,1.09753746304214,-1.1119193318769336,-0.5584185303326696
1761468188431416300,3.153416259765625,0.8484773620218038,-1.07211719058156,-0.5419185003001242
1761468188441370400,3.163370361328125,0.6254542040556669,-1.0571749113850295,-0.48593814480509606
1761468188451324200,3.17332421875,0.3800345053642988,-1.0882271253179758,-0.47575365459490565
1761468188461278200,3.1832783203125,0.2197615258216858,-1.0905971423849463,-0.4288520930904895
1761468188471232300,3.193232177734375,0.14839783283174038,-1.0585667310696094,-0.340505335791409
1761468188481187000,3.20318701171875,0.11464636987745762,-1.034203639511764,-0.29742632824983445
1761468188491141400,3.213141357421875,0.12824001094400883,-1.0388776957374066,-0.2860055377103388
1761468188501095200,3.22309521484375,0.33582068510651586,-1.0679100942805408,-0.2807081254219636
1761468188511049200,3.23304931640625,0.6724468413770198,-1.2110586282819509,-0.20188995170760898
1761468188521003300,3.243003173828125,0.9699971248000859,-1.3432339328482745,-0.15486301025785504
1761468188530957300,3.252957275390625,1.125409804829955,-1.437119546508789,-0.15858754720631985
1761468188540911000,3.2629111328125,1.2096487614840268,-1.4931326717622577,-0.1453986144831404
1761468188550866200,3.2728662109375,1.152038284036517,-1.5298618353530764,-0.1153571850279346
1761468188560820200,3.2828203125,0.9197685742974281,-1.4854986697524786,-0.023731954047456382
1761468188570774300,3.292774169921875,0.5917296291083097,-1.3326497027307749,0.07145133474078029
1761468188580728300,3.302728271484375,0.2751490665227175,-1.1459581604052334,0.16466657485906033
1761468188590682400,3.312682373046875,0.03836217162013054,-0.9571990180253982,0.20210571335013955
1761468188600636200,3.32263623046875,-0.08523264386653899,-0.8127034533292055,0.20547445913087575
1761468188610590200,3.332590087890625,-0.2142009690850973,-0.727954793587327,0.2417836072113365
1761468188620545000,3.342544921875,-0.2792804672390222,-0.6886864669077098,0.23895017388369888
1761468188630499000,3.3524990234375,-0.17899112401604653,-0.6573164922624826,0.21954558151606468
1761468188640453000,3.362453125,-0.11970599135458469,-0.6022936932206153,0.18994177629314363
1761468188650407400,3.372407470703125,-0.15552549275457858,-0.5185042338997126,0.23692549965567886
1761468188660361200,3.382361328125,-0.2101584156960249,-0.4203459113560617,0.31784572368320074
1761468188670315300,3.392315185546875,-0.309411986130476,-0.34750703124701976,0.34884719380959867
1761468188680269300,3.402269287109375,-0.3875976340949535,-0.3294647402085364,0.3444519545253366
1761468188690224000,3.41222412109375,-0.39250761796832084,-0.28822876671776176,0.3715850222531706
1761468188700178200,3.42217822265625,-0.5083499196320772,-0.14913082328140734,0.4702702182151377
1761468188710132200,3.43213232421875,-0.8380529986411333,0.0527899254232645,0.4963953875420615
1761468188720086000,3.4420859375,-1.4821078582704066,0.39528570437952876,0.2543599975267425
1761468188730040300,3.452040283203125,-2.528086983510852,0.8030936212018132,-0.03714804659001529
1761468188739994400,3.461994384765625,-3.5963235332667827,1.1453722502760588,-0.3045231181103736
1761468188749948200,3.4719482421875,-4.299242085275054,1.4350579378038644,-0.5937719485908747
1761468188759903200,3.4819033203125,-4.3799271488398315,1.5932906436905263,-0.8131974473912268
1761468188769857300,3.491857177734375,-3.7241339206218718,1.5426277934238313,-0.796475079844892
1761468188779811000,3.50181103515625,-2.5364316180080175,1.562268167308718,-0.7134832006424665
1761468188789765000,3.51176513671875,-1.290054423585534,1.4011425164595246,-0.4023913351336494
1761468188799719200,3.52171923828125,-0.3600678221344948,1.16503644342795,-0.17569281312301754
1761468188809673200,3.531673095703125,-0.040732992404699325,1.0148699934884906,-0.14413637599498033
1761468188819627300,3.541627197265625,-0.5148842898368835,1.0380031779251992,-0.3281489814348519
1761468188829582300,3.551582275390625,-1.348724054697156,1.3559193730287253,-0.6588325228486209
1761468188839536000,3.5615361328125,-2.051635592442751,1.605432624644041,-0.8103517756365239
1761468188849490200,3.571490234375,-2.5040660564541817,1.965525142828375,-0.9641025138035416
1761468188859444200,3.5814443359375,-2.524043261078,2.2261196142978963,-1.0572701884530484
1761468188869398000,3.59139794921875,-2.0418390055716036,2.3082548766709863,-0.9368482308488338
1761468188879352000,3.60135205078125,-1.2433908720880746,2.181898633646965,-0.7091960248425603
1761468188889306400,3.611306396484375,-0.1632762530118227,1.8309981605693697,-0.6572920884735882
1761468188899261200,3.62126123046875,0.9699380880892277,1.290945819467306,-0.5851796960081905
1761468188909215200,3.63121533203125,1.8635902243554592,0.6212127670936286,-0.3554497704124078
1761468188919169300,3.641169189453125,2.476927874159813,0.011086334420740604,-0.12028366337837651
1761468188929123000,3.651123046875,2.864018727776408,-0.4628063120752573,0.15480170852467418
1761468188939077000,3.6610771484375,3.038885465338826,-0.6506432981088757,0.37144619830437003
1761468188949031200,3.67103125,2.9281401945531367,-0.6340839391045272,0.4662229521183297
1761468188958986200,3.680986328125,2.5018407816201447,-0.5338986407779157,0.5522280051294713
1761468188968940300,3.690940185546875,2.008721164345741,-0.45135815860480066,0.6872931128531694
1761468188978894300,3.700894287109375,1.545163157120347,-0.40675694646462796,0.8567574068501591
1761468188988848000,3.71084814453125,1.0852812080591916,-0.34335400322079657,0.9398843836743384
1761468188998802200,3.72080224609375,0.7810849107503891,-0.3176899851322174,0.9439714337922632
1761468189008756200,3.730756103515625,0.6411719976693392,-0.392546488673985,0.8828091090820729
1761468189018710000,3.7407099609375,0.6541051290005445,-0.5619264653883874,0.8423051031276583
1761468189028665000,3.7506650390625,0.6888637231707573,-0.7734906562291085,0.8105887992627918
1761468189038619100,3.760619140625,0.7521312034666537,-0.9764822490356861,0.764622070923075
1761468189048573000,3.770572998046875,0.8080997589260339,-1.0641999877162278,0.7087830601274967
1761468189058527000,3.78052685546875,0.8563619777917861,-1.1307270543299615,0.6697417471367866
1761468189068481000,3.79048095703125,0.8827554791986941,-1.1475517862722278,0.6767123168017715
1761468189078435000,3.80043505859375,0.8731693202078342,-1.1395410599045455,0.6472161001391709
1761468189088389000,3.81038916015625,0.8065536985278129,-1.1232638788424432,0.6570644902627915
1761468189098344200,3.82034423828125,0.6551321339607238,-1.0964505445882677,0.6427133088272065
1761468189108298000,3.830298095703125,0.5053519068598747,-1.049077821908146,0.59278399699945
1761468189118252000,3.840251953125,0.37990883315801616,-0.9821431974068283,0.5204669122748077
1761468189128206000,3.8502060546875,0.14786299530267716,-0.9948502648971974,0.45385081567075103
1761468189138159900,3.860159912109375,-0.1848129620373249,-0.997021763717383,0.35454091193918136
1761468189148114000,3.870114013671875,-0.3957008610516786,-0.9756976745292544,0.23607967821499332
1761468189158068200,3.880068115234375,-0.49462359209656714,-0.9952274276465177,0.18672747215544805
1761468189168023000,3.89002294921875,-0.4675672428667545,-1.0117594602525233,0.17286443956298753
1761468189177977000,3.89997705078125,-0.2928904749184847,-1.0615718311697244,0.2165390749101527
1761468189187931100,3.90993115234375,-0.11626081933677196,-1.169539746196568,0.32631255978792906
1761468189197885000,3.919885009765625,-0.0037847792357206343,-1.2182868259698152,0.4284867669094354
1761468189207839000,3.9298388671875,0.01585924791097641,-1.218225743432343,0.4825569048689678
1761468189217793000,3.93979296875,-0.06825169844925404,-1.2099120885953307,0.4979497773772105
1761468189227747300,3.949747314453125,-0.3059837652474642,-1.1542388628207148,0.45067894416898485
1761468189237702100,3.9597021484375,-0.6975806981116532,-1.0027357574500142,0.42633842976912856
1761468189247656200,3.96965625,-1.2718196787148712,-0.7666955892615019,0.46458245490230615
1761468189257610000,3.97960986328125,-1.9072025715887546,-0.4949412797436118,0.37972386851254847
1761468189267564000,3.98956396484375,-2.361915593579411,-0.3201303640216589,0.18200473621618002
1761468189286849000,4.00884912109375,-2.671765971127152,-0.19377309808433055,-0.04533968248255551
1761468189296803000,4.018802978515625,-2.2880402100294828,-0.27950477751418945,0.027678230288089252
1761468189306758100,4.028758056640625,-1.8099293613165617,-0.17616963685452938,-0.03612580685321008
1761468189316712200,4.038712158203125,-1.4741180285602806,-0.13481500542014838,-0.08405189138306304
1761468189326666200,4.048666259765625,-1.413046012482047,-0.23029665610045194,-0.05188697610101662
1761468189336620000,4.0586201171875,-1.7587912947535513,-0.27147110866233704,-0.12444001587284728
1761468189346574000,4.068573974609375,-2.3830378765851257,-0.07100538107156754,-0.1941762172588147
1761468189356528000,4.078528076171875,-3.087698888346553,0.37779914752766486,-0.21491861583516
1761468189366482000,4.08848193359375,-3.526100242483616,0.941494083893299,-0.34631625055987386
1761468189376437200,4.098437255859375,-3.531185582923889,1.4137617595359682,-0.5677527238564566
1761468189386391000,4.10839111328125,-2.9056273339718577,1.679039128124714,-0.6260933787420392
1761468189396345000,4.118344970703125,-1.7856541672378778,1.7071021701790392,-0.6188308403931557
1761468189406299100,4.128299072265625,-0.4059200572490692,1.6557951767899095,-0.6024349283222109
1761468189416253200,4.138253173828125,0.8805909946411847,1.4726955945417284,-0.46449583606477823
1761468189426207000,4.14820703125,1.8566127865582704,1.2464036440379918,-0.0703652337042382
1761468189436161000,4.1581611328125,2.5238947925180195,1.1150317648090422,0.2910387643708847
1761468189446116000,4.1681162109375,2.845944726425409,1.0459743029348552,0.4935790149470791
1761468189456070100,4.178070068359375,2.819855176401138,1.0781805822737514,0.566267819060944
1761468189466024200,4.188024169921875,2.4481512770086526,1.2435564379133284,0.4464738571619615
1761468189475978200,4.197978271484375,1.978165282562375,1.4326651974484323,0.3331610374432057
1761468189485932000,4.20793212890625,1.492959507152438,1.5193062468081713,0.23366890901252627
1761468189495886000,4.217885986328125,1.0136872134447097,1.5448223808586596,0.004510116101894527
1761468189505840000,4.227840087890625,0.6739204210609198,1.6048438649706542,-0.30630013772025705
1761468189515795000,4.237794921875,0.3665490008473396,1.5655826986841856,-0.4869362889969721
1761468189525749000,4.2477490234375,0.1478033740699291,1.488960792905092,-0.5819920424154028
1761468189535703300,4.257703369140625,0.07903320470452309,1.4073973390705883,-0.6301637699861079
1761468189545657000,4.267656982421875,0.12574176438748835,1.2749280199937523,-0.5693674655767157
1761468189555611100,4.277611083984375,0.28488135598599906,1.1550471104636788,-0.4693137577405199
1761468189565565200,4.287565185546875,0.5768617303222418,1.0908123925708233,-0.30368710567764934
1761468189575520000,4.29752001953125,0.8580161747395991,1.038430755687505,-0.06104885439835488
1761468189585474000,4.30747412109375,1.0308493606477975,1.0167242430530488,0.18869232422132043
1761468189595428000,4.317427978515625,1.0551783307403326,0.9937971025824546,0.3884398205401376
1761468189605382000,4.3273818359375,0.9785586169183254,0.908107800989598,0.515273654480651
1761468189615959000,4.337958984375,0.8591910637378692,0.8636610487587749,0.5515505077267066
1761468189625913000,4.3479130859375,0.6965887644648552,0.8409265082508325,0.5391475012168288
1761468189635867100,4.3578671875,0.4504167861014604,0.8190554527044296,0.5184038787977769
1761468189645822000,4.367822021484375,0.1286538524419069,0.7819961803764104,0.3842911033628508
1761468189655776000,4.37777587890625,-0.0875853444725275,0.7404001414015888,0.25695132919419555
1761468189665730000,4.38772998046875,-0.18480068707764147,0.6942571066468953,0.15545980710722504
1761468189675684000,4.39768408203125,-0.21693477796316146,0.6381096874892711,-0.008326733514294029
1761468189685638100,4.40763818359375,-0.13365326816439627,0.5745888169541955,-0.1923225339498371
1761468189695592200,4.41759228515625,0.031282442492246626,0.44051323172450063,-0.35606388372275977
1761468189705547000,4.427547119140625,0.15719371822774408,0.2799545671083033,-0.48206871949322516
1761468189715501000,4.4375009765625,0.2514116325825453,0.16093056666851044,-0.5608898158170282
1761468189725455000,4.447455078125,0.37430735988914965,0.08052811943739652,-0.5565432379800827
1761468189735409000,4.457408935546875,0.5471195030093192,0.008971095832437275,-0.5446143517879769
1761468189745363000,4.467363037109375,0.7178209375858307,-0.06374021237418055,-0.4453272809427231
1761468189755317000,4.47731689453125,0.8523761230260133,-0.11964373977333306,-0.36409207268189636
1761468189765271300,4.487271240234375,0.9292875132709741,-0.1067807510688901,-0.2675990164693445
1761468189775226000,4.49722607421875,0.8854834428578615,-0.13134747544005512,-0.16811912646573035
1761468189785180200,4.50718017578125,0.7243716744035482,-0.225979085162282,-0.14198420292977243
1761468189795134000,4.517134033203125,0.550721326893568,-0.3157777217701077,-0.12135277218092232
1761468189805088000,4.527087890625,0.38461891054511066,-0.42179304142445323,-0.1323726537693292
1761468189815042000,4.5370419921875,0.24296529127657412,-0.5748150269255041,-0.15751129627693444
1761468189824996000,4.54699609375,0.17335925560891627,-0.716919604831934,-0.17447276980876922
1761468189834950000,4.556949951171875,0.1321796884804964,-0.8393804478526115,-0.20231829665489492
1761468189844905200,4.5669052734375,0.0999199253886938,-0.9193995948545635,-0.23516755007244644
1761468189854859000,4.57685888671875,-0.0013075754672288893,-0.9586879414089023,-0.2664384482573718
1761468189864813000,4.58681298828125,-0.1243634617716074,-0.9845831379048525,-0.3025970819512382
1761468189874767000,4.59676708984375,-0.21879121948480604,-0.9983644104979932,-0.3190651459429413
1761468189884721200,4.60672119140625,-0.3236825035452843,-1.0215767976507544,-0.31035971530936657
1761468189894675000,4.616675048828125,-0.42006431793570514,-0.9999151470713317,-0.3339934696793556
1761468189904630300,4.62663037109375,-0.5447247168272733,-1.095090069890022,-0.1807720526160672
1761468189914584000,4.636583984375,-0.7378788062304258,-0.9531872981660068,-0.18364972694423048
1761468189924538000,4.6465380859375,-0.9809516495347023,-0.8328627365216612,-0.13707834724225104
1761468189934492200,4.6564921875,-1.3248521807223557,-0.7179337503105402,-0.058786645087413485
1761468189944446200,4.6664462890625,-1.5988058999806642,-0.5429312575392424,-0.05924640808627009
1761468189954400000,4.67639990234375,-1.771621550232172,-0.4324580816932022,-0.010005589979328215
1761468189964354000,4.68635400390625,-1.7893477610588073,-0.3648043491370976,0.030655396635085343
1761468189974308900,4.696308837890625,-1.6361872438699006,-0.3715845107965171,0.08443287179097533
1761468189984263200,4.70626318359375,-1.4012328250914812,-0.47884091655313965,0.13058098457958547
1761468189994217200,4.71621728515625,-1.1348451571732758,-0.5472084964670241,0.10137575022019445
1761468190004170800,4.726170654296875,-0.928189196640253,-0.5755024246677756,0.03508578029796481
1761468190014124500,4.73612451171875,-0.9220452870577573,-0.6156862587571144,-0.12031816843617707
1761468190024078600,4.74607861328125,-1.0369833333581686,-0.6291705942302942,-0.25078498858418313
1761468190034033700,4.75603369140625,-1.1780518462151288,-0.5853776297330856,-0.34197241266928613
1761468190043987500,4.765987548828125,-1.2800474088340996,-0.4626173653744161,-0.3869619300073012
1761468190053941800,4.775941650390625,-1.4781307713329792,-0.28345263835713264,-0.39976544360946864
1761468190063895800,4.785895751953125,-1.6895429864823817,-0.020690905851125718,-0.31256968297641724
1761468190073849600,4.795849609375,-1.860912529578805,0.3072352266132831,-0.12154274179507046
1761468190083803600,4.8058037109375,-1.8609955316871403,0.5856124614022672,0.13470544409845023
1761468190093757700,4.8157578125,-1.5963707817882298,0.7349114808574319,0.4407845594791695
1761468190103712500,4.82571240234375,-1.08313951985538,0.9132052702590823,0.6344098100580274
1761468190113666600,4.83566650390625,-0.48160395152568813,1.093303478734195,0.7410583861146122
1761468190123620600,4.84562060546875,0.1709925264775753,1.1486365127690137,0.7785671557758003
1761468190133574700,4.85557470703125,0.7483861717194318,1.1316859624899922,0.7244832450192421
1761468190143528700,4.86552880859375,1.2539268791496754,1.0817297991879284,0.5740873702380805
1761468190153482800,4.875482666015625,1.6106781240820884,0.9771139710679649,0.4093853222068399
1761468190163436500,4.8854365234375,1.7493348996222018,0.8405351708456873,0.32659897551387546
1761468190173391600,4.8953916015625,1.7398954556256532,0.811793206616491,0.2686392097046599
1761468190183345700,4.905345703125,1.5904162572979925,0.8985643120966851,0.2050899167926982
1761468190193299500,4.915299560546875,1.2745756994247435,0.9924309287957847,0.110931258344464
1761468190203253500,4.92525341796875,0.7315127783298492,1.0227056555502116,-0.08342373128104955
1761468190213207800,4.935207763671875,0.23270810115635393,0.9617398763254285,-0.30824644948244095
1761468190223161600,4.94516162109375,-0.09232932412922382,0.9298463161975145,-0.5099145386002958
1761468190233115600,4.95511572265625,-0.3130670015066862,0.9034538377039134,-0.628267361780256
1761468190243070700,4.96507080078125,-0.4104600387662649,0.9256419963754713,-0.6843979028683156
1761468190253024500,4.9750244140625,-0.42667759859561916,0.9146949242949485,-0.6662750208742916
1761468190262978600,4.984978515625,-0.4217313743650913,0.8993959406152368,-0.5886731641471386
1761468190272932600,4.9949326171875,-0.42354163865745065,0.8812459514185785,-0.5304464910300448
1761468190282886700,5.00488671875,-0.3498749294221401,0.8416678281374275,-0.4434274021381512
1761468190292840700,5.0148408203125,-0.2297609417885542,0.7434251883111894,-0.38230234069842844
1761468190302795800,5.024795654296875,-0.08867138614356518,0.6337623059347272,-0.3018422084633261
1761468190312749600,5.03474951171875,0.04051788834929466,0.5168824779167771,-0.21251681539043782
1761468190322703600,5.04470361328125,0.10102584080398082,0.4491723389983177,-0.023371413639374075
1761468190332657700,5.05465771484375,0.18593232145607472,0.4399257872253656,0.1301463925546035
1761468190342611500,5.064611572265625,0.2847890015274286,0.4064164624638855,0.2381497076883912
1761468190352565500,5.0745654296875,0.40630817978382106,0.349892903470248,0.3516564790766686
1761468190362519800,5.084519775390625,0.4727449377655983,0.30098946409150956,0.49312250335123387
1761468190372474600,5.094474609375,0.5235924969494342,0.22795374623611567,0.5422630028888583
1761468190382428700,5.1044287109375,0.5899217029035091,0.15766820387169717,0.6117235656712204
1761468190392382700,5.1143828125,0.7404378430634737,0.08573737851828336,0.6480580308560282
1761468190402336500,5.12433642578125,1.0614005662560462,-0.028835049340128895,0.6381706969615072
1761468190412290600,5.13429052734375,1.430185363331437,-0.1892382311336696,0.5994925181947648
1761468190422244600,5.14424462890625,1.7106150006055831,-0.413636038453877,0.5670910085447132
1761468190432198400,5.154198486328125,1.9219839611351488,-0.7287735626243055,0.5655054563863202
1761468190442153700,5.16415380859375,2.000278914692998,-0.9565659808188677,0.5285827429847791
1761468190452107800,5.174107666015625,1.9349854815274476,-1.0457030847780406,0.5003082866694778
1761468190462061600,5.1840615234375,1.705187714859843,-1.0530785819821058,0.4989386057514697
1761468190472015600,5.194015625,1.3377245217770337,-1.035271414873749,0.4715317625835538
1761468190481969700,5.2039697265625,0.9734329444676637,-1.0647276648521422,0.4032439333749935
1761468190491923500,5.21392333984375,0.7156038460582494,-1.0764467442184686,0.31518410325851287
1761468190501877500,5.22387744140625,0.5590595316499472,-1.0733794656023383,0.29310272942967713
1761468190511832800,5.233832763671875,0.3970078519970178,-1.0948686822243034,0.31843375270422547
1761468190521786600,5.24378662109375,0.18232815948426723,-1.1190991603784262,0.3189626354165375
1761468190531740700,5.25374072265625,0.000173018479347229,-1.1330283170096576,0.27117683842349793
1761468190541694700,5.26369482421875,-0.10437105957865714,-1.1694948841415345,0.25730434388294815
1761468190551648500,5.2736484375,-0.15923486866652964,-1.2103173083953558,0.3104895157014951
1761468190561602600,5.2836025390625,-0.1391939511567354,-1.2550132130816578,0.3715039198409766
1761468190571556600,5.293556640625,-0.11236673450767994,-1.3247810151822865,0.4205069106040522
1761468190581511700,5.30351171875,-0.14450433252453804,-1.3665477345488966,0.4123968155151233
1761468190591465700,5.3134658203125,-0.2503039636015892,-1.3642752595722674,0.3844678481692448
1761468190601419800,5.323419677734375,-0.4293804278135299,-1.3109275541357694,0.3831358323805034
1761468190611373600,5.33337353515625,-0.6257242531687021,-1.194227758859843,0.3833608733080327
1761468190621327600,5.34332763671875,-0.8560726394563913,-1.053987659651041,0.3643725701237097
1761468190631281700,5.35328173828125,-1.090519108712673,-0.9147541071362792,0.32437030314635484
1761468190641236500,5.363236572265625,-1.2624983081400394,-0.777173144134134,0.18875939810816197
1761468190651190500,5.3731904296875,-1.3557704660773275,-0.7324697867937385,0.08655311534795909
1761468190661144800,5.383144775390625,-1.3601654861658812,-0.6768596893832087,0.04405625507589429
1761468190671098600,5.3930986328125,-1.2504279311180113,-0.6114689333230257,0.046123782064951956
1761468190681052700,5.403052734375,-1.08015553560853,-0.6529286325670778,0.10234996554721146
1761468190691006700,5.4130068359375,-0.7986895410239696,-0.74345660636276,0.20158068482903763
1761468190700960500,5.42296044921875,-0.5324193620055914,-0.710432873161137,0.18848969605499877
1761468190710915600,5.43291552734375,-0.3992740433633327,-0.6224124982722103,0.16936026736693455
1761468190720869600,5.44286962890625,-0.47233694148659705,-0.5478422643259168,0.1308368590367958
1761468190730823400,5.452823486328125,-0.8279103748112916,-0.4928836165614426,0.028856311323866245
1761468190740777700,5.46277783203125,-1.3940963973402976,-0.30192236102744935,-0.135848001729697
1761468190750731800,5.472731689453125,-1.9951140792757271,-0.04844079030305147,-0.2653670196335763
1761468190760685600,5.482685546875,-2.638191033783555,0.22955255973488092,-0.395478487005271
1761468190770639600,5.4926396484375,-3.147934453600645,0.6724525404654443,-0.6882274710938334
1761468190780594700,5.5025947265625,-3.392224271479249,1.088111463049054,-0.9232825737677514
1761468190790548500,5.512548583984375,-3.165096016281843,1.4059500628717243,-1.0597460770472884
1761468190800502500,5.52250244140625,-2.351401798349619,1.535483474627137,-1.0025618621878325
1761468190810456600,5.53245654296875,-1.1898866609156131,1.5318296282947061,-0.8532593356013297
1761468190820410600,5.54241064453125,0.031471243062615395,1.5720343590416013,-0.7530425461579113
1761468190830364700,5.55236474609375,1.1431932988017797,1.4935999970130622,-0.5287267180327325
1761468190840318700,5.562318603515625,1.9838526805490255,1.3429929636992513,-0.15729372626980767
1761468190850273500,5.5722734375,2.6117612920194864,1.34637573800534,0.040073158522788435
1761468190860227600,5.5822275390625,3.0358506276875734,1.3618069697625934,0.21129377640150487
1761468190870181600,5.592181640625,3.216639156514406,1.3249687928393483,0.3308739859519526
1761468190880135400,5.602135498046875,3.0931027932167052,1.303566523848474,0.3732314377533272
1761468190890089500,5.61208935546875,2.6089211001574992,1.3859329646289347,0.19103567247707395
1761468190900043800,5.622043701171875,1.9591016856521366,1.5060808545321225,-0.017735161318071187
1761468190909997800,5.631997802734375,1.3493904096513987,1.4938383358135818,-0.2600555057546124
1761468190919952600,5.64195263671875,0.8851432511180639,1.520995368938893,-0.5193849987896159
1761468190929906700,5.65190673828125,0.4665969365298748,1.536846141282469,-0.7061473047964274
1761468190939860500,5.661860595703125,0.1076361988544464,1.5567073183111846,-0.7077736638892441
1761468190949814500,5.671814453125,-0.0925175401777029,1.5925180518828332,-0.5938303277146071
1761468190959768600,5.6817685546875,-0.16421850229799748,1.6196661710493265,-0.3807522982448339
1761468190969722600,5.69172265625,-0.17897943357825277,1.617826388401538,-0.155058459764719
1761468190979676700,5.7016767578125,-0.1917582511305809,1.5889324484810232,0.03501139988750219
1761468190989631700,5.7116318359375,-0.3097211982101202,1.5642008889369665,0.126313828654401
1761468190999585500,5.72158544921875,-0.4656400741964578,1.5304212228015064,0.11653335266783833
1761468191009540400,5.731540283203125,-0.5627548790365458,1.4970705957330763,0.06776954095549881
1761468191019494400,5.741494384765625,-0.6846610107839107,1.4066104264765977,0.01172521684616804
1761468191029448200,5.7514482421875,-0.8563158005625009,1.3234335460960864,-0.1138105035752058
1761468191039402200,5.76140234375,-1.0111392825275658,1.2269225523680447,-0.2654306594543159
1761468191049356300,5.771356201171875,-1.0979185713142157,1.1022945944413542,-0.4442559253841638
1761468191059311400,5.781311279296875,-1.0859393797069787,0.9382000107839703,-0.6032867228459566
1761468191069265400,5.791265380859375,-0.9476035066843033,0.781896227133274,-0.70420530388318
1761468191079219500,5.801219482421875,-0.5935030685216188,0.5957523087531328,-0.7165924187041819
1761468191089173200,5.81117333984375,-0.09628770636618136,0.4384117294006049,-0.6978427831139415
1761468191099127300,5.821127197265625,0.39325989764034747,0.2788384225599468,-0.6888141849406063
1761468191109081300,5.831081298828125,0.8200929790586232,0.1216658932507038,-0.6513966006942093
1761468191119035100,5.84103515625,1.1003525204628706,-0.016991612941771744,-0.5337091095551848
1761468191128990500,5.850990478515625,1.266710372877121,-0.17153920057490468,-0.4192740443408489
1761468191138944500,5.860944580078125,1.4417016136020422,-0.24371362542584538,-0.3790683637458831
1761468191148898300,5.870898193359375,1.5563392156511544,-0.3683763624049723,-0.33203400617465373
1761468191158852400,5.880852294921875,1.5148948601067065,-0.4991783327914774,-0.28810996264368294
1761468191168806400,5.890806396484375,1.3803922816365957,-0.5751759691923857,-0.3267385301150381
1761468191178760200,5.90076025390625,1.1673732158124446,-0.6586833967015147,-0.3477444201994687
1761468191188714200,5.91071435546875,0.9426742335885763,-0.736338737181574,-0.3554700460154563
1761468191198669300,5.92066943359375,0.7284305944055318,-0.80080098021999,-0.3978372885584831
1761468191208623400,5.930623291015625,0.5097913506120443,-0.8166261797308921,-0.3944777489975095
1761468191218577400,5.940577392578125,0.29798809031844137,-0.8428105684317648,-0.39365065052360293
1761468191228531500,5.950531494140625,0.12564005757868288,-0.862035639514029,-0.3826918149400502
1761468191238485200,5.9604853515625,0.008054711639881133,-0.8810048361390829,-0.3874867210663855
1761468191248439300,5.970439208984375,-0.07091419565677642,-0.9285479469500482,-0.4122654076877981
1761468191258393300,5.980393310546875,-0.15013327832221984,-0.9546117780111729,-0.45086730634793637
1761468191268348200,5.99034814453125,-0.17906828090548516,-1.0061093255363405,-0.46715237845554947
1761468191278302500,6.000302490234375,-0.1880810239225626,-1.046082731745392,-0.4691484476435929
1761468191288256500,6.010256591796875,-0.17294658315479755,-1.0908962714619934,-0.44758813854679463
1761468191298210300,6.020210205078125,-0.14778408484756947,-1.0871519703671335,-0.39701121299788356
1761468191308164400,6.030164306640625,-0.20106267057061195,-1.0796069618150592,-0.38199411499947306
1761468191318118400,6.040118408203125,-0.30315467930138107,-1.0828674249157308,-0.3780051914937794
1761468191328072200,6.050072265625,-0.4449801480054855,-1.089105734783411,-0.39356947504617273
1761468191338027300,6.06002734375,-0.587853664457798,-1.0420089064352214,-0.41650538334511217
1761468191347981600,6.069981689453125,-0.7518909649699926,-0.9647167001791298,-0.4146032760508358
1761468191357935400,6.079935302734375,-0.9032359571695328,-0.8390114684097468,-0.35750308621302246
1761468191367889400,6.089889404296875,-1.0234142422109842,-0.7237117491900921,-0.2626863291822374
1761468191377843500,6.099843505859375,-1.034662781456113,-0.68780486176759,-0.21154322111792861
1761468191387797200,6.10979736328125,-0.9291466434955596,-0.7468325125366448,-0.1240799686551094
1761468191397751300,6.119751220703125,-0.7643862894058228,-0.8857163748309016,-0.017655849004164337
1761468191407706400,6.129706298828125,-0.5219675260961055,-0.9500631747961044,0.025702377337589857
1761468191417660200,6.13966015625,-0.33679625214040276,-0.9335155062295496,-0.029947394496202467
1761468191427614500,6.149614501953125,-0.4371171595454216,-0.9297568843483924,-0.03624218379147351
1761468191437568500,6.159568603515625,-0.7354524558663368,-0.9519405129753052,-0.02393704816550016
1761468191447522300,6.169522216796875,-1.1592530377209185,-0.8009734141774475,-0.06266067350916564
1761468191457476400,6.179476318359375,-1.7036615282058716,-0.5458212798923253,-0.2028494078569114
1761468191467430400,6.189430419921875,-2.350927166575193,-0.29151728686913847,-0.25064832005985077
1761468191477385200,6.19938525390625,-2.9345144057601686,0.06361643986403942,-0.2995160305380821
1761468191487339300,6.20933935546875,-3.321947204682231,0.4513496830374002,-0.3154786657582968
1761468191497293300,6.219293212890625,-3.38722427123487,0.7710100914597511,-0.20698650766164065
1761468191507247400,6.229247314453125,-2.955976295983791,0.9951529011055826,0.047605435457453125
1761468191517201400,6.239201416015625,-2.153121451973915,1.0672416934996842,0.32784773346595464
1761468191527155500,6.249155517578125,-1.2556553103774786,1.08308340575397,0.470338607276231
1761468191537109200,6.259109130859375,-0.42332887268960473,1.0360971981734037,0.5382053980611264
1761468191547064300,6.269064208984375,0.2904389901131391,0.9486050849422812,0.5836655285855755
1761468191557018400,6.279018310546875,0.8489128308296203,0.9309330885209143,0.5820522116374224
1761468191566972200,6.28897216796875,1.2446242132753134,1.0663231173500418,0.4408443999076262
1761468191576926200,6.29892626953125,1.5137410138964653,1.2009298868469893,0.303165383358486
1761468191586880500,6.308880615234375,1.6184955198347568,1.2835099703781305,0.17542532129324973
1761468191596834300,6.318834228515625,1.589745810690522,1.3477720146693288,0.016944778125360608
1761468191606788400,6.328788330078125,1.5483452942878007,1.4030749458268283,-0.11406623190194368
1761468191616742400,6.338742431640625,1.5518284602284431,1.434733089763671,-0.18478494151923805
1761468191626697200,6.348697265625,1.532244054314494,1.458609786044061,-0.2551130078511312
1761468191636651300,6.3586513671875,1.4558680861204862,1.4620941210284828,-0.38961653616931285
1761468191646605300,6.368605224609375,1.304942780637741,1.4889404807694255,-0.5040981804717332
1761468191656559000,6.37855908203125,1.0380366418033837,1.5321715736001729,-0.6434273023154586
1761468191666513400,6.388513427734375,0.7374789932578801,1.6098194614261387,-0.8058117941193282
1761468191676467500,6.398467529296875,0.43739305387735367,1.6541218367502093,-0.9771816294766962
1761468191686421500,6.40842138671875,0.18719664230346678,1.6262031716026364,-1.0661812246613205
1761468191696376300,6.418376220703125,0.07587444841265678,1.6515585621334612,-1.122530157740414
1761468191706330400,6.428330322265625,0.04091302514672279,1.6900464059598743,-1.116720886939764
1761468191716284200,6.4382841796875,0.06908639570772647,1.7048285261586307,-1.0185311463445423
1761468191726238200,6.44823828125,0.1613157665938139,1.7205992190033197,-0.8531810827333479
1761468191736192300,6.458192138671875,0.23076339682936667,1.6677879585310815,-0.6886454042449593
1761468191746146600,6.468146484375,0.2561924371182918,1.5860433029107748,-0.5573303697697818
1761468191756100400,6.478100341796875,0.27115385940670966,1.4819948994152248,-0.48638095666915176
1761468191766055400,6.488055419921875,0.2865267851054668,1.3500187706828117,-0.44614371189214286
1761468191776009200,6.49800927734375,0.24024609544575212,1.182927489427477,-0.42762635068781674
1761468191785963300,6.50796337890625,0.14422493106126785,0.9276362389326095,-0.45713286954872306
1761468191795917300,6.517917236328125,0.09206278214752674,0.7562317706532776,-0.5711779125321657
1761468191805871400,6.527871337890625,-0.015483400335907935,0.6683008276134729,-0.5624596954822539
1761468191815825200,6.5378251953125,-0.0325642989963293,0.5038599147364496,-0.5211209192041307
1761468191825779500,6.547779541015625,0.15249007058143615,0.3023363486558199,-0.5320641918923705
1761468191835734300,6.557734375,0.3952016793578863,0.03839782745540142,-0.4455062177062034
1761468191845688300,6.567688232421875,0.6788415108501911,-0.21098113025575874,-0.3228258867159486
1761468191855642400,6.577642333984375,0.9591022212982178,-0.4040421345479786,-0.32916663404479624
1761468191865596400,6.587596435546875,1.206998539236188,-0.5871050380475819,-0.2948693007107824
1761468191875550200,6.59755029296875,1.33387076895833,-0.7802415917940437,-0.19604126221202312
1761468191885504300,6.607504150390625,1.2674515466332434,-0.8816388962589203,-0.13042597668096423
1761468191895458300,6.617458251953125,1.1153437533676624,-0.9617593116782605,-0.1411577620429918
1761468191905413400,6.627413330078125,0.9217430892407894,-1.065688326577842,-0.15865082170087844
1761468191915367400,6.637367431640625,0.7181675590664148,-1.1415075376719235,-0.2338137608433142
1761468191925321200,6.6473212890625,0.5792354737162589,-1.1845550906293094,-0.29840858075283466
1761468191935275300,6.657275146484375,0.39870179643332954,-1.201423223321885,-0.3017872268730774
1761468191945229300,6.667229248046875,0.19990473270714282,-1.1871782787397502,-0.3141465403717011
1761468191955183400,6.677183349609375,-0.01886427494585514,-1.1752864731550217,-0.3215823529282585
1761468191965137200,6.68713720703125,-0.18646072924435136,-1.1743123674258589,-0.2954558318944648
1761468191975092500,6.697092529296875,-0.279411400142312,-1.14155619911924,-0.29273371345419436
1761468191985046300,6.70704638671875,-0.32935879561603065,-1.1350883182793856,-0.28223336222786455
1761468191995000300,6.717000244140625,-0.3414163131564855,-1.1174458402134477,-0.2875581009145826
1761468192004954000,6.7269541015625,-0.3595522738277912,-1.117576626986265,-0.28402839241847394
1761468192014908400,6.736908447265625,-0.3891606456279754,-1.1239096294000743,-0.298258979681693
1761468192024862200,6.7468623046875,-0.45405251225531096,-1.1020764216460286,-0.25676830077748747
1761468192034816300,6.756816162109375,-0.5242255341559648,-1.0186235008031128,-0.22907281339392066
1761468192044770300,6.766770263671875,-0.6067898355960846,-0.930564255208522,-0.20125523400064557
1761468192054725000,6.77672509765625,-0.5901040737330914,-0.855752321460843,-0.1812924232283607
1761468192064679200,6.78667919921875,-0.4574848247915506,-0.8307854918561876,-0.20244853543844074
1761468192074633200,6.79663330078125,-0.29827158343493937,-0.8327830954141915,-0.22202625588327646
1761468192084587000,6.8065869140625,-0.13183832769691944,-0.8516824416734278,-0.20529698367211965
1761468192094541300,6.816541259765625,-0.11237842494547366,-0.8460168171271681,-0.22616777613479644
1761468192104495400,6.826495361328125,-0.2211731461852789,-0.8284548569515346,-0.2180331859254278
1761468192114449200,6.83644921875,-0.2567863113582134,-0.7638051285170018,-0.21805689559457822
1761468192124404200,6.846404296875,-0.22616730121076106,-0.7136169100247323,-0.23965055897170676
1761468192134358300,6.856358154296875,-0.2850327471554279,-0.6645997811384499,-0.2819371740265749
1761468192144312000,6.86631201171875,-0.3820119429171085,-0.5953617020003498,-0.28723062252588566
1761468192154266000,6.87626611328125,-0.520756396740675,-0.568138617901504,-0.27897162048555907
1761468192164220200,6.88622021484375,-0.6471586708635091,-0.7092112224116921,-0.26276319381073115
1761468192174174200,6.89617431640625,-0.5095101955831051,-0.9109858406439423,-0.31788090459443624
1761468192184128300,6.906128173828125,-0.19592355411648749,-0.9083157446518539,-0.41252223199307914
1761468192194083300,6.916083251953125,-0.18930209015011787,-0.7488242708757519,-0.6607825609378516
1761468192204037000,6.926037109375,-0.9986562330514192,-0.6079143095813692,-1.0580624348092824
1761468192213991200,6.9359912109375,-2.1600725862860677,-0.3737161159977317,-1.389076815612614
1761468192223945200,6.9459453125,-3.311814517724514,-0.04261763710752129,-1.4794023987039924
1761468192233899000,6.95589892578125,-4.328831752374768,0.4868073653876781,-1.7337443856500088
1761468192243853000,6.96585302734375,-4.990640879881382,1.0719045707441865,-1.9845679892115293
1761468192253807400,6.975807373046875,-4.946919227054715,1.6569105906859039,-2.123065336406231
1761468192263761400,6.985761474609375,-4.060295966511965,1.953091923843324,-1.9424793444141744
1761468192273716200,6.99571630859375,-2.5686639085710046,1.9556914388172328,-1.4950883358746767
1761468192283670300,7.005670166015625,-0.9212409849375486,1.949764094594866,-1.2154288792554289
1761468192293624000,7.0156240234375,0.585067248609662,1.754915768494457,-0.8608212222229689
1761468192303578000,7.025578125,1.8925678970366715,1.4937041880398987,-0.5232596482658759
1761468192313532200,7.0355322265625,2.9522043762296435,1.4180781614303588,-0.3797359973417595
1761468192323486200,7.045486328125,3.5904373978376385,1.357905432279408,-0.2533411576067097
1761468192333440300,7.055440185546875,3.8438159465789794,1.2646126699455082,-0.12539211069960146
1761468192343395300,7.065395263671875,3.8020822526991367,1.1591519154340029,-0.0726469742661342
1761468192353349000,7.07534912109375,3.3712527951210736,1.1797209484711288,-0.2326214092535898
1761468192363303200,7.08530322265625,2.6468974873304365,1.2847713686160742,-0.4842524932730943
1761468192373257200,7.09525732421875,1.9269412912815809,1.4507663790673018,-0.6973007121264934
1761468192383211000,7.1052109375,1.2334604297041891,1.5755105107195675,-0.9501030684150755
1761468192393165000,7.1151650390625,0.551318123742938,1.7364817016594112,-1.4062763722166418
1761468192403119400,7.125119384765625,-0.044458734929561615,1.8785427326850592,-1.8210203719124196
1761468192413074200,7.13507421875,-0.46357378931641574,1.928140437938273,-2.013314191224426
1761468192423028200,7.1450283203125,-0.7226262920409441,1.9113849718399345,-2.06922385610342
1761468192432982300,7.154982177734375,-0.8388239830136298,1.7711491104148327,-2.0389108431652185
1761468192442936000,7.16493603515625,-0.8527414492070674,1.6657285417832433,-1.904330377153307
1761468192452890000,7.17489013671875,-0.7756494416981935,1.671415647508949,-1.5942517438076436
1761468192462844200,7.18484423828125,-0.7406289817214011,1.7045293970815836,-1.2373521764457225
1761468192472798200,7.194798095703125,-0.8605150058180093,1.7534629393376409,-0.9148681619700044
1761468192482753300,7.204753173828125,-0.9833049346625804,1.8375611723467706,-0.7164628009751439
1761468192492707300,7.214707275390625,-1.0811679275214672,1.8428093021333216,-0.6158182145737111
1761468192502661000,7.2246611328125,-1.2213111422270535,1.7749426574788987,-0.6113753732880577
1761468192512615200,7.234615234375,-1.3213514791250227,1.6939152102172375,-0.6968523107718676
1761468192522569200,7.2445693359375,-1.235059097072482,1.5792254395894705,-0.8084314020331949
1761468192532523300,7.254523193359375,-1.0105781415134667,1.4788393579937518,-0.9491665182173251
1761468192542477000,7.26447705078125,-0.6902864494502544,1.3303269588716327,-1.0881303869452328
1761468192552431000,7.27443115234375,-0.3259370044738054,1.1673635712012649,-1.201480798728019
1761468192562386200,7.28438623046875,-0.023665537747740745,0.9786687992945313,-1.2729900376684964
1761468192572340200,7.29434033203125,0.2075876884251833,0.8098011560164392,-1.3276578857928514
1761468192582294300,7.304294189453125,0.36392391304075716,0.7076778753645717,-1.3787231793805956
1761468192592248300,7.314248291015625,0.4710702825516462,0.6286553381845355,-1.3730574087038636
1761468192602202000,7.3242021484375,0.633410131496191,0.5818026938557624,-1.3270882692113517
1761468192612156200,7.33415625,0.8323182543814182,0.5548644180476665,-1.260147068838775
1761468192622110200,7.344110107421875,0.9923293681174516,0.49348508958593007,-1.1371902589946985
1761468192632065300,7.354065185546875,1.065278284472227,0.4700498534627259,-1.0386715787060559
1761468192642019300,7.364019287109375,1.143610647431016,0.44373497024998065,-0.939939328731969
1761468192651973000,7.37397314453125,1.1275240205049515,0.3677566230714321,-0.8445447718132286
1761468192661927200,7.38392724609375,1.046331591939926,0.32975977763235564,-0.7791074731975793
1761468192671881200,7.393881103515625,0.8873264403760432,0.3090282475098967,-0.7307349258251488
1761468192681835300,7.403835205078125,0.7969564336210488,0.2927798541508615,-0.7430307821661234
1761468192691789000,7.4137890625,0.7538181336402893,0.28018048481866714,-0.7560715385902672
1761468192701744400,7.423744384765625,0.754458185109496,0.22315438313037156,-0.7866154376748948
1761468192711698200,7.4336982421875,0.7239478960335254,0.15808394506573675,-0.8211826739914715
1761468192721652200,7.44365234375,0.6117471657425165,0.116359603536129,-0.8690192878562957
1761468192731606300,7.453606201171875,0.4665571890413761,0.08656973768919705,-0.907373056974262
1761468192741560300,7.463560302734375,0.28788872110843655,0.07004077382311225,-0.909125015208125
1761468192751514000,7.47351416015625,0.15656418815255163,0.07406476864218711,-0.8787592491693794
1761468192761468200,7.48346826171875,0.04197627046406269,0.12382263289317488,-0.7981418440133333
1761468192771422200,7.493422119140625,-0.2083627644509077,0.16847133743688464,-0.7307128601238131
1761468192781377300,7.503377197265625,-0.45910044329464433,0.223268218768388,-0.6945591583333909
1761468192791331300,7.513331298828125,-0.5876280390083789,0.27776158710867166,-0.7039143581125885
1761468192801285400,7.523285400390625,-0.5658621974021196,0.2635975988082588,-0.6897572379443794
1761468192811239200,7.5332392578125,-0.43818508103787895,0.1789984305396676,-0.6673487145204097
1761468192821193200,7.543193115234375,-0.2933639376491308,0.07312266548648476,-0.6710423814065754
1761468192831147300,7.553147216796875,-0.15421090302467344,0.009792202956974506,-0.6737580701060593
1761468192841101000,7.56310107421875,-0.11433072805702686,-0.026695699223875997,-0.6974243385061621
1761468192851056000,7.57305615234375,-0.22294190942347047,-0.07270195585638284,-0.7321686118900775
1761468192861010400,7.583010498046875,-0.4378817141771316,-0.02656096692830324,-0.7153443183392286
1761468192870964200,7.592964111328125,-0.6631482671558857,0.08781257735714317,-0.686722181097418
1761468192880918300,7.602918212890625,-0.8773737861603498,0.18334654274657367,-0.6666576635163277
1761468192890872300,7.612872314453125,-1.0622510456055403,0.28150135815888644,-0.5960152705382555
1761468192900826000,7.622826171875,-1.250605625772476,0.3460526677202433,-0.5074388692017644
1761468192910780200,7.6327802734375,-1.3567705830305814,0.44197073705643414,-0.46309298352953043
1761468192920734200,7.642734130859375,-1.335767542490363,0.5195238592710346,-0.39550055270660667
1761468192930689000,7.65268896484375,-1.202423486405611,0.5213780357703566,-0.2770893869355321
1761468192940643300,7.662643310546875,-1.0020967288941145,0.48754079422876234,-0.18245043415706605
1761468192950597400,7.672597412109375,-0.7925701813608408,0.47171194145604967,-0.0938866000412032
1761468192960551200,7.68255126953125,-0.6523720215976238,0.48584962627142664,-0.026601116275601088
1761468192970505200,7.692505126953125,-0.6622568712741136,0.4817461364753544,0.08774042543638497
1761468192980459300,7.702459228515625,-0.6232686767101288,0.4744647472955286,0.16200265287943183
1761468192990413300,7.712413330078125,-0.40801206109225746,0.46914881296977395,0.1613556967454031
1761468193000368000,7.7223681640625,-0.1692144108891487,0.4104937949053943,0.12855411839447914
1761468193010322400,7.732322509765625,-0.033416531911492346,0.3957248264491558,0.03339428354706615
1761468193020276200,7.742276123046875,-0.08984569061994552,0.4473638282716274,-0.2221925888935104
1761468193030230300,7.752230224609375,-0.27643150754868984,0.5530972622446716,-0.584927219084464
1761468193040184300,7.762184326171875,-0.6281698927551508,0.6905141207262874,-0.8595778710983694
1761468193050138000,7.77213818359375,-1.1240250724732874,0.8874858687214553,-1.023354913239181
1761468193060092400,7.782092529296875,-1.6606898169636726,1.1443576664060353,-1.0528073638252913
1761468193070046500,7.79204638671875,-2.0612147371709346,1.5259437851265072,-0.9844659412659704
1761468193080001300,7.802001220703125,-2.3069138373255726,1.9694806024558842,-0.7602918596990406
1761468193089955300,7.811955322265625,-2.2864134856104847,2.3993840312302113,-0.43778746002241964
1761468193099909400,7.821909423828125,-1.924150783780217,2.672508898448944,-0.14979133301675318
1761468193109863200,7.83186328125,-1.304532446271181,2.728138431212306,0.07384228499792515
1761468193119817200,7.841817138671875,-0.5094710326164961,2.668491771762073,0.07858144234903157
1761468193129771300,7.851771240234375,0.19085107315778732,2.498052495253086,-0.013408621622156352
1761468193139725600,7.8617255859375,0.6802841108739376,2.285503385028243,-0.13645793205527587
1761468193149680400,7.871680419921875,1.0188274989426136,2.1562705636546013,-0.3788459166342392
1761468193159634400,7.881634521484375,1.2714075907826423,2.0689532224684952,-0.6051485346624628
1761468193169588200,7.891588134765625,1.4253320780813694,2.003257638242841,-0.8616706055939197
1761468193179542300,7.901542236328125,1.5226158097475766,1.9689355357937515,-1.0874507341179995
1761468193189496300,7.911496337890625,1.6075614533662794,1.9139771802902221,-1.1648210471116005
1761468193199450400,7.921450439453125,1.6813795537710188,1.8679801298774779,-1.093951494314149
1761468193209404200,7.931404052734375,1.7452572749197481,1.8729409671552477,-1.0062884084302932
1761468193219359500,7.941359375,1.7786211998611687,1.8498573209486902,-0.9136782215330749
1761468193229313300,7.951313232421875,1.757244065311551,1.8028624916702507,-0.786564218944311
1761468193239267300,7.961267333984375,1.6317413703769446,1.7363034224830567,-0.6978101960185915
1761468193249221400,7.971221435546875,1.3798182811409234,1.6547260862536728,-0.6697907008450478
1761468193259175400,7.981175537109375,1.1063163973033427,1.5874765505842863,-0.6862884658552706
1761468193269129200,7.991129150390625,0.8261614853173493,1.505137290071696,-0.6951371774170547
1761468193288414200,8.010414306640625,0.42221828109920023,1.3866633247300981,-0.684550901472941
1761468193298369300,8.020369384765624,-0.058125441232323646,1.3294712188251316,-0.7016536466389894
1761468193308323300,8.0303232421875,-0.4900719201415777,1.2592708705261348,-0.6787537595015019
1761468193318277400,8.04027734375,-0.8028110048681497,1.2139623868994414,-0.6210575765319168
1761468193328231400,8.0502314453125,-0.9307967487901448,1.1933147356681526,-0.48255321507453913
1761468193338185200,8.060185302734375,-0.8321662786900996,1.0944095402799545,-0.3313088337052613
1761468193348139300,8.07013916015625,-0.687635058158636,0.940394744349271,-0.18487391671063377
1761468193358093300,8.08009326171875,-0.5428840573966502,0.7698902936495841,-0.11960019289255142
1761468193368047400,8.09004736328125,-0.5973959843069314,0.6049354399010539,-0.13292778516774997
1761468193378002400,8.10000244140625,-0.7491904738396405,0.5127015389703213,-0.21441090377504005
1761468193387956500,8.10995654296875,-0.9472802660793066,0.4217097470551729,-0.32236678130421786
1761468193397910300,8.11991015625,-1.1070324366182087,0.3709473088715225,-0.3979629972973838
1761468193407864300,8.1298642578125,-1.1834668570011853,0.37303668236620724,-0.4446648349786177
1761468193417818400,8.139818359375,-1.1704437092989683,0.35836255258657035,-0.44775016070809215
1761468193427772200,8.149772216796874,-0.9925888958364725,0.3515929123211652,-0.39622685768716037
1761468193437726200,8.159726318359375,-0.5360796380788088,0.33260647230036555,-0.3158827895797789
1761468193447681500,8.169681640625,-0.08077215732634067,0.2350640166327357,-0.21644250093419104
1761468193457635300,8.17963525390625,0.2390010638207197,0.13411094880402089,-0.15294859147127718
1761468193467589400,8.18958935546875,0.43375849676728245,0.04690422838553786,-0.12525580750145018
1761468193477543400,8.19954345703125,0.5087041398972273,-0.04259213734008371,-0.21250413857195524
1761468193487497200,8.209497314453126,0.5088584536761045,-0.13356792796850203,-0.35322643180713054
1761468193497451300,8.219451171875,0.4815197803735733,-0.23717604035064577,-0.5036564645862206
1761468193507405300,8.2294052734375,0.46616731294095515,-0.314711407712847,-0.576108719997853
1761468193517359400,8.239359375,0.4013578639000654,-0.33774799990728493,-0.5850609649993479
1761468193527314400,8.249314453125,0.364769131693244,-0.31372568461112676,-0.5658330078402534
1761468193537268500,8.2592685546875,0.3697475046277046,-0.28210984544605017,-0.5197618692779913
1761468193547222300,8.26922216796875,0.37153088091313835,-0.2947896596033126,-0.4589611444218084
1761468193557176300,8.27917626953125,0.3853869723081588,-0.35676651556678113,-0.37726569823808964
1761468193567130400,8.28913037109375,0.34117198300659657,-0.4126991959951818,-0.29698742537591605
1761468193577084400,8.29908447265625,0.3007943799108267,-0.46345082052387293,-0.2840982793169096
1761468193587038200,8.3090380859375,0.3479097668290138,-0.507627962033078,-0.25367362269777805
1761468193596993500,8.31899365234375,0.40528059030175206,-0.5819549618080258,-0.22654040883947163
1761468193606947300,8.328947265625,0.487743769454956,-0.6735564100541174,-0.16965777074247598
1761468193617523500,8.3395234375,0.5857400333046913,-0.7728842878337949,-0.047713279746100304
1761468193627477500,8.3494775390625,0.5090069222360849,-0.8053798324428498,0.019383074655570088
1761468193637432300,8.359432373046875,0.3631055823951959,-0.8739903542671352,0.09411028926186263
1761468193647386400,8.369386474609374,0.13480828341841697,-0.8637890590526163,0.16450053410977125
1761468193657340400,8.37934033203125,-0.08212415645718574,-0.8503099842764437,0.1688335583453998
1761468193667294200,8.389294189453125,-0.21440788983404635,-0.9166127406150102,0.1702756834451109
1761468193677248300,8.399248291015626,-0.24007599957585332,-0.8924914219237864,0.1631237658638507
1761468193687202300,8.409202392578125,-0.19767828882932661,-0.9387612979285418,0.14740385335832834
1761468193697156400,8.41915625,-0.149521283903718,-1.006182317707315,0.14870423189979046
1761468193707111400,8.429111328125,-0.01647124232947826,-1.0615577295791356,0.1247240752449259
1761468193717065200,8.439065185546875,0.09326631271839142,-1.1700457229573278,0.07817235009148717
1761468193727019300,8.449019287109374,0.16574936512708663,-1.2695754069194196,0.0646904257711023
1761468193736973300,8.458973388671875,0.2062888807862997,-1.3269398006513713,0.10689648640304804
1761468193746927400,8.46892724609375,0.23127836061418056,-1.3469348331928253,0.0849801304101944
1761468193756881200,8.478881103515626,0.25374036779105663,-1.3579063090622425,0.06380549616273493
1761468193766835500,8.48883544921875,0.27238661607205866,-1.4091449133902787,0.018275223011523484
1761468193776790300,8.498790283203125,0.3163631204426288,-1.4564400407895446,-0.03133731448464096
1761468193786744300,8.508744384765626,0.2773381009995937,-1.5000740153327583,-0.08660932078091427
1761468193796698400,8.518698486328125,0.15111176796555517,-1.5433958551868796,-0.17170810913471504
1761468193806652400,8.52865234375,0.028531682479381558,-1.5992019135609268,-0.239543901993148
1761468193816606200,8.538606201171875,-0.03352700654864311,-1.5814163737624882,-0.2869324980958365
1761468193826560300,8.548560302734375,-0.08551672150492667,-1.5334192355737088,-0.3132386682791635
1761468193836514300,8.558514404296876,-0.0792594146758318,-1.4946478986307978,-0.24809631575578822
1761468193846468400,8.56846826171875,-0.003926818054914474,-1.4489555302530526,-0.2105095672212541
1761468193856423400,8.57842333984375,0.060709027984738345,-1.4500488784477115,-0.08839461502879857
1761468193866377500,8.58837744140625,0.1938490859299898,-1.4160142146378756,0.045816067822650075
1761468193876331300,8.598331298828125,0.21192542536854742,-1.4433629709430038,0.1113622884391807
1761468193886285300,8.608285400390624,0.054469841334223744,-1.406127757526189,0.1092287287428975
1761468193896239400,8.6182392578125,-0.25865970401465893,-1.292850191783905,-0.004328256728965789
1761468193906193200,8.628193115234374,-0.6648404580265284,-1.1850269459247589,-0.027595588939357547
1761468193916147200,8.638147216796876,-1.1587176156699657,-1.0816098260700702,-0.05716949221435934
1761468193926102300,8.648102294921875,-1.663861432737112,-0.997859383585304,-0.13990924155293033
1761468193936056300,8.658056396484374,-2.123395006752014,-0.8393914076380431,-0.28380791806820777
1761468193946010400,8.66801025390625,-2.3302380142897365,-0.6205202547848224,-0.40725382660347964
1761468193955964400,8.67796435546875,-2.2588608772963283,-0.29144027611017226,-0.6621124943673611
1761468193965918200,8.687918212890626,-1.9280700030505655,-0.2129519919373095,-0.7036177863188088
1761468193975872300,8.697872314453125,-1.4935598111331463,-0.2311833758071065,-0.632803616970405
1761468193985826300,8.707826416015624,-0.9342278922826052,-0.10385668031573295,-0.7014363506264985
1761468193995781400,8.717781494140626,-0.3421814523100853,-0.054845688909292215,-0.6730247873954475
1761468194005735400,8.7277353515625,0.08296586797833443,-0.022456600349396467,-0.6337241658814251
1761468194015688700,8.737688720703124,0.3783744631975889,0.10109802925735711,-0.6529239563919603
1761468194025642800,8.747642822265625,0.5200526323854923,0.2731226752616465,-0.5655731513276696
1761468194035596500,8.757596435546875,0.46573476674258707,0.45667496971338983,-0.4592481081370264
1761468194045550600,8.767550537109376,0.403244116038084,0.6654157736964523,-0.4909256143614649
1761468194055504600,8.777504638671875,0.3240203571975231,0.8236614851951599,-0.5028484726715833
1761468194065458400,8.78745849609375,0.07816694326400757,0.9462691893406212,-0.4620120564250275
1761468194075413800,8.797413818359376,-0.21439503035247326,1.1238080687217413,-0.4251063306909054
1761468194085367600,8.807367431640625,-0.3241653186261654,1.3492916254520415,-0.300495396964252
1761468194095321600,8.817321533203126,-0.1484101077914238,1.4783362307772039,-0.017040383986942468
1761468194105275600,8.827275634765625,0.2023889507383108,1.5272307561971246,0.2587693018689751
1761468194115229700,8.837229736328124,0.5235112484067678,1.459001707971096,0.35381245153415947
1761468194125183500,8.84718359375,0.8340209666460752,1.3835880089379846,0.24235431977137922
1761468194135137500,8.857137451171875,1.0768769523292778,1.2552725946702061,0.19091361699998377
1761468194145092600,8.867092529296874,1.220569968470931,1.1277530069552362,0.18716109606605022
1761468194155046700,8.877046630859375,1.263026715928316,1.052994703090936,0.1638933985294774
1761468194165000700,8.887000732421875,1.1936030510902405,0.9271300429761409,0.18649455844871698
1761468194174954800,8.896954833984376,1.0716332064568996,0.8466378716349601,0.1262924205401912
1761468194184908500,8.906908447265625,0.828819890871644,0.7618919883720576,0.14146039825137705
1761468194194862600,8.916862548828124,0.4359177206277847,0.6928194750592113,0.08864873592033981
1761468194204816600,8.926816650390625,0.1095797341376543,0.6743000680282711,0.05641940449941903
1761468194214771500,8.936771484375,-0.09823942495584487,0.6979563995562493,0.12183007083646952
1761468194224725800,8.946725830078124,-0.24539573329389094,0.6879813873782753,0.2132348274666816
1761468194234679800,8.9566796875,-0.2982283288151026,0.7300288233824074,0.26995913319680837
1761468194244633600,8.966633544921875,-0.1381581783682108,0.7853443217605351,0.2577159203585237
1761468194254587600,8.976587646484376,0.05082885448336601,0.7469568695686757,0.26103611428979784
1761468194264541700,8.986541748046875,0.032386019819974896,0.6216071732386946,0.3529005973862484
1761468194274495500,8.99649560546875,-0.030101708275079724,0.557133239762485,0.3289272723309696
1761468194284450600,9.006450439453126,-0.039109190595149994,0.5115324951909482,0.22665289277061818
1761468194294404600,9.016404541015625,-0.013542203140258788,0.40137802990525956,0.16316793379914016
1761468194304358700,9.026358642578124,0.056148003679513926,0.30714915576502677,0.1731361143775284
1761468194314312700,9.036312744140625,0.13960603908896446,0.24508432925716042,0.2507727136244997
1761468194324266800,9.046266845703125,0.09312719650864601,0.17300810408368705,0.34187943715620783
1761468194334220500,9.056220458984376,0.13635200572907924,0.1469122704491019,0.3626382571443915
1761468194344174600,9.066174560546875,0.2233376307427883,0.025377748493105173,0.36016554688792674
1761468194354128600,9.076128662109374,0.2447825698316097,-0.10674246488511561,0.1856535045146942
1761468194364083500,9.08608349609375,0.3158803053617477,-0.32450127258226275,0.01691284861713648
1761468194374037800,9.096037841796875,0.3616927929878235,-0.5289814965113997,-0.20116861516311763
1761468194383991800,9.10599169921875,0.32421383394300934,-0.680728932031989,-0.3661553984198719
1761468194393945600,9.115945556640625,0.2769803736031055,-0.7272663729317486,-0.4111961344884708
1761468194403899600,9.125899658203124,0.2644248434126377,-0.6883936214409768,-0.29656003027670086
1761468194413853700,9.135853759765626,0.29934944179952144,-0.6192262694515287,-0.18561689883135257
1761468194423807700,9.145807861328125,0.3644476446539163,-0.5349560408763587,-0.1432365958773531
1761468194433762600,9.155762451171874,0.36516543753445146,-0.4584034009411931,-0.09401108493739739
1761468194443716600,9.165716552734375,0.27094460057020187,-0.39574543084576724,-0.0212676645594649
1761468194453670700,9.175670654296875,0.15857318988740443,-0.3648269993603229,-0.04141001488342881
1761468194463624700,9.185624755859376,-0.01038636945784092,-0.39895635571628807,-0.15428513730466364
1761468194473578800,9.195578857421875,-0.09314414764344692,-0.43503443498723204,-0.38942842971868813
1761468194483532500,9.205532470703124,-0.32291911795735356,-0.4950244279824197,-0.6312661052048206
1761468194493486600,9.215486572265625,-0.3429693878173828,-0.7774734422549605,-0.7942557232949883
1761468194503440600,9.225440673828125,-0.07271160046756267,-0.9534129236154257,-0.9344573901895433
1761468194513395500,9.2353955078125,0.06323708515763282,-0.9557700081355869,-1.0369945123393087
1761468194523349500,9.245349609375,0.11018179168403149,-0.879774563691765,-0.9237244723163545
1761468194533303800,9.2553037109375,0.1742769549757242,-0.7609003469862043,-0.7975937086112797
1761468194543257600,9.265257568359376,0.24110475810170173,-0.6632360915698111,-0.55530785096623
1761468194553211600,9.275211669921875,0.2652040110915899,-0.5287332208387553,-0.3886553629869595
1761468194563165700,9.285165771484374,0.14620353765785693,-0.45311610818803305,-0.3418380456998944
1761468194573119700,9.29511962890625,0.13879121557474136,-0.6496139550611376,-0.3169317871760577
