time,seconds_elapsed,z,y,x
1761468185335678500,0.057678466796875,0.07331234961748123,-0.1844058483839035,-0.12798374891281128
1761468185345632500,0.067632568359375,0.08002697676420212,-0.11655782163143158,-0.0812961533665657
1761468185355586600,0.077586669921875,0.06847410649061203,-0.04949107766151428,-0.007934216409921646
1761468185365540600,0.08754052734375,0.03325992822647095,-0.011155671440064907,0.05581093952059746
1761468185375494400,0.097494384765625,-0.007313346490263939,0.01061606127768755,0.09876146167516708
1761468185385448700,0.10744873046875,-0.0355636291205883,0.039691656827926636,0.11157925426959991
1761468185395402800,0.11740283203125,-0.04415111616253853,0.07084605097770691,0.09723487496376038
1761468185405357600,0.127357666015625,-0.03586282581090927,0.08583272248506546,0.0561140701174736
1761468185415311600,0.1373115234375,-0.020129183307290077,0.07643826305866241,-0.001201314153149724
1761468185425265700,0.147265625,-0.00026945877471007407,0.04239960387349129,-0.07623854279518127
1761468185435219500,0.157219482421875,0.02047448232769966,-0.020829008892178535,-0.14734983444213867
1761468185445173500,0.167173583984375,0.03368962183594704,-0.09270879626274109,-0.18740670382976532
1761468185455127600,0.17712744140625,0.04292159155011177,-0.12820415198802948,-0.18583618104457855
1761468185465081600,0.18708154296875,0.045062243938446045,-0.1381840705871582,-0.14875753223896027
1761468185475036700,0.19703662109375,0.04665136709809303,-0.10515167564153671,-0.08037219196557999
1761468185484990700,0.20699072265625,0.04374585673213005,-0.04946098476648331,-0.006917954422533512
1761468185494944500,0.216944580078125,0.03927774727344513,-0.013063355349004269,0.05463935434818268
1761468185504898600,0.226898681640625,0.03370508551597595,0.017554208636283875,0.09691570699214935
1761468185514852600,0.2368525390625,0.03513062745332718,0.04149959236383438,0.11617525666952133
1761468185524806400,0.246806396484375,0.039015911519527435,0.04437927156686783,0.10970031470060349
1761468185534760400,0.256760498046875,0.04183131083846092,0.032456252723932266,0.10234169661998749
1761468185544715500,0.266715576171875,0.04111066088080406,0.03158273547887802,0.10812608152627945
1761468185554669600,0.276669677734375,0.03613205999135971,0.027341676875948906,0.11824265122413635
1761468185564623600,0.28662353515625,0.02819211408495903,0.013446632772684097,0.12071379274129868
1761468185574577700,0.29657763671875,0.018699297681450844,-0.0007360887248069048,0.10672707855701447
1761468185584531500,0.306531494140625,0.016005776822566986,-0.0031542389187961817,0.08209177106618881
1761468185594485500,0.316485595703125,0.019523289054632187,0.007349876221269369,0.06580103188753128
1761468185604439600,0.326439453125,0.021360337734222412,0.024470806121826172,0.06051119416952133
1761468185614393600,0.3363935546875,0.012986598536372185,0.030614269897341728,0.0590105839073658
1761468185624348700,0.3463486328125,-0.006533040199428797,0.0074623459950089455,0.05450744554400444
1761468185634302700,0.356302734375,-0.031971096992492676,-0.023341482505202293,0.049182336777448654
1761468185644256500,0.366256591796875,-0.05052587389945984,-0.04179931804537773,0.0337972529232502
1761468185654210600,0.37621044921875,-0.05869939923286438,-0.05316722393035889,0.007558539044111967
1761468185664164600,0.38616455078125,-0.0591936819255352,-0.06602896004915237,-0.024398595094680786
1761468185674118400,0.396118408203125,-0.05175669491291046,-0.06387001276016235,-0.05205294117331505
1761468185684072400,0.406072509765625,-0.04379916936159134,-0.06082602217793465,-0.0749710351228714
1761468185694027800,0.41602783203125,-0.03291475400328636,-0.0760444849729538,-0.08388474583625793
1761468185703981600,0.425981689453125,-0.021516956388950348,-0.10295945405960083,-0.07792539149522781
1761468185713935600,0.435935546875,-0.006530322600156069,-0.12361261993646622,-0.05319029465317726
1761468185723889700,0.4458896484375,0.01056663878262043,-0.12586459517478943,-0.004077876918017864
1761468185733843500,0.455843505859375,0.017450228333473206,-0.08288303762674332,0.06352167576551437
1761468185743797500,0.465797607421875,0.021800769492983818,-0.000634240685030818,0.1337694674730301
1761468185753752600,0.475752685546875,0.028476646170020103,0.06491400301456451,0.18322183191776276
1761468185763706600,0.48570654296875,0.03670581802725792,0.08630238473415375,0.21578270196914673
1761468185773660700,0.49566064453125,0.03462913632392883,0.08100958168506622,0.2315208911895752
1761468185783614700,0.50561474609375,0.023403113707900047,0.06293550133705139,0.2308279275894165
1761468185793568500,0.515568603515625,0.016911031678318977,0.04019073396921158,0.20982246100902557
1761468185803522600,0.5255224609375,0.016291581094264984,0.008980880491435528,0.1746319830417633
1761468185813476600,0.5354765625,0.017176728695631027,-0.013646112754940987,0.13154232501983643
1761468185823430700,0.5454306640625,0.0211752001196146,-0.011720114387571812,0.09031207114458084
1761468185833385500,0.555385498046875,0.02246279828250408,-0.003737906226888299,0.05655748397111893
1761468185843339800,0.56533984375,0.026814138516783714,0.01154277939349413,0.02861080691218376
1761468185853293600,0.57529345703125,0.03314250707626343,0.013732843101024628,0.008351219817996025
1761468185863247600,0.58524755859375,0.03796309605240822,0.013726451434195042,0.004696030635386705
1761468185873201700,0.59520166015625,0.03672560676932335,0.008595849387347698,0.006267274729907513
1761468185883155700,0.60515576171875,0.031830716878175735,-0.008356236852705479,0.0025574914179742336
1761468185893109500,0.615109619140625,0.02565430849790573,-0.011091900989413261,-0.0045473515056073666
1761468185903064600,0.625064697265625,0.02022572234272957,-0.004359696991741657,-0.018022678792476654
1761468185913018400,0.635018310546875,0.023643722757697105,0.0032906108535826206,-0.03424549102783203
1761468185922972700,0.64497265625,0.02295183390378952,-0.000995480571873486,-0.047809503972530365
1761468185932926700,0.6549267578125,0.019027870148420334,-0.013898523524403572,-0.05798652768135071
1761468185942880500,0.664880615234375,0.01461048424243927,-0.008217467926442623,-0.05331054702401161
1761468185952834600,0.67483447265625,0.01716357097029686,0.01757740043103695,-0.032214295119047165
1761468185962788600,0.68478857421875,0.02220919542014599,0.028981322422623634,-0.002247076714411378
1761468185972743400,0.694743408203125,0.026836030185222626,0.014651181176304817,0.021204249933362007
1761468185982697500,0.704697509765625,0.03208538517355919,-0.013937320560216904,0.04073534160852432
1761468185992651800,0.71465185546875,0.04017585515975952,-0.02242252416908741,0.05945699289441109
1761468186002606000,0.724606201171875,0.04517913609743118,-0.014698293060064316,0.07347587496042252
1761468186012560100,0.73456005859375,0.04932159557938576,-0.009653710760176182,0.07327695190906525
1761468186022514200,0.74451416015625,0.05205799266695976,-0.01048648077994585,0.06264907866716385
1761468186032468200,0.75446826171875,0.05016074702143669,-0.014056789688766003,0.04548652097582817
1761468186042423300,0.76442333984375,0.04582565277814865,-0.02099592238664627,0.027757592499256134
1761468186052377300,0.77437744140625,0.03984435275197029,-0.023511463776230812,0.012234906665980816
1761468186062331100,0.7843310546875,0.03490445390343666,-0.029255902394652367,-0.003741396125406027
1761468186072285200,0.79428515625,0.04482923075556755,-0.029484618455171585,-0.011874381452798843
1761468186082239200,0.8042392578125,0.055562835186719894,-0.01513124629855156,0.000772437546402216
1761468186092193000,0.814193115234375,0.05887163430452347,0.0021470626816153526,0.019033197313547134
1761468186102147000,0.82414697265625,0.056636709719896317,0.016527067869901657,0.03399590402841568
1761468186112102100,0.83410205078125,0.05929558351635933,0.02233094349503517,0.03603299707174301
1761468186122056200,0.84405615234375,0.06506506353616714,0.011540879495441914,0.026126835495233536
1761468186132010200,0.85401025390625,0.0555717758834362,-0.00449829688295722,0.007341410033404827
1761468186141964300,0.86396435546875,0.04592180997133255,-0.019162461161613464,-0.005746428854763508
1761468186151918000,0.87391796875,0.04849995672702789,-0.017128895968198776,-0.002211636397987604
1761468186161872100,0.8838720703125,0.0628884807229042,-0.01125502958893776,0.0026366484817117453
1761468186171826200,0.893826171875,0.07241974025964737,-0.004255873151123524,0.007346285041421652
1761468186181781200,0.90378125,0.06775175034999847,-0.0011205339105799794,0.01125873439013958
1761468186191735300,0.9137353515625,0.05684033781290054,-0.0059179081581532955,0.00937991589307785
1761468186201689300,0.923689453125,0.04864499345421791,-0.02340289205312729,0.004634162411093712
1761468186211643100,0.93364306640625,0.046955596655607224,-0.023997657001018524,0.008223223499953747
1761468186221597200,0.94359716796875,0.04856947064399719,-0.011805703863501549,0.010041629895567894
1761468186231551200,0.95355126953125,0.053364209830760956,-0.008487014099955559,0.00502968393266201
1761468186241505000,0.963505126953125,0.054856911301612854,-0.011288393288850784,-0.002287884010002017
1761468186251460400,0.97346044921875,0.054695162922143936,-0.0059304251335561275,-0.002669290406629443
1761468186261414400,0.983414306640625,0.053477831184864044,0.007016266230493784,0.002401634817942977
1761468186271368200,0.9933681640625,0.045740921050310135,0.012965355068445206,0.007850052788853645
1761468186281322200,1.003322265625,0.03426642343401909,0.008249163627624512,0.009943829849362373
1761468186291276300,1.0132763671875,0.021705349907279015,-0.00754798436537385,0.0070952316746115685
1761468186301230000,1.02322998046875,0.0076627666130661964,-0.02480393648147583,-0.0076054176315665245
1761468186311184100,1.03318408203125,0.00021356117213144898,-0.028921084478497505,-0.021059604361653328
1761468186321139200,1.04313916015625,0.00105245690792799,-0.013651852495968342,-0.026653308421373367
1761468186331093200,1.05309326171875,0.0006195135065354407,0.005148178432136774,-0.023981913924217224
1761468186341047300,1.06304736328125,-0.0006854354287497699,0.008550632745027542,-0.021638330072164536
1761468186351001300,1.07300146484375,-0.002284868387505412,0.0012288314756006002,-0.030421148985624313
1761468186360955100,1.082955078125,-0.008968870155513287,-0.012790048494935036,-0.052148282527923584
1761468186370909200,1.0929091796875,-0.019763626158237457,-0.03118118643760681,-0.0826416164636612
1761468186380863200,1.10286328125,-0.027455899864435196,-0.038295552134513855,-0.10178442299365997
1761468186390818000,1.112818115234375,-0.03256433457136154,-0.03294677659869194,-0.10080961883068085
1761468186400772000,1.122772216796875,-0.03350948914885521,-0.016074586659669876,-0.0867936760187149
1761468186410726400,1.132726318359375,-0.03175943344831467,0.0063719190657138824,-0.06509444117546082
1761468186420680200,1.14268017578125,-0.0244919341057539,0.022049415856599808,-0.04061306640505791
1761468186430634200,1.15263427734375,-0.014222683385014534,0.029426749795675278,-0.013713439926505089
1761468186440588300,1.16258837890625,-0.006098710931837559,0.02534439042210579,0.010671262629330158
1761468186450542300,1.172542236328125,-0.0010577384382486343,0.01983531191945076,0.03174532949924469
1761468186460496100,1.18249609375,0.003540209261700511,0.022856667637825012,0.04443502426147461
1761468186470451200,1.192451171875,0.007391852792352438,0.021358396857976913,0.03649909049272537
1761468186480405000,1.202405029296875,0.00668371794745326,0.01603873260319233,0.016700884327292442
1761468186490359300,1.212359375,0.001324420445598662,0.007928234525024891,-0.0049155643209815025
1761468186500313300,1.222313232421875,-0.007668541744351387,-0.004150798544287682,-0.016651581972837448
1761468186510267100,1.23226708984375,-0.015355457551777363,-0.000257771898759529,-0.016048889607191086
1761468186520221200,1.24222119140625,-0.02048284187912941,-0.001026626443490386,-0.014041665010154247
1761468186530175200,1.25217529296875,-0.022007109597325325,-0.00010883905633818358,-0.013849056325852871
1761468186540130000,1.262130126953125,-0.020702160894870758,0.018094399943947792,-0.011573385447263718
1761468186550084000,1.272083984375,-0.02685708925127983,0.025816448032855988,-0.01237026322633028
1761468186560038100,1.2820380859375,-0.03353123739361763,0.01741550676524639,-0.007028760388493538
1761468186569992200,1.2919921875,-0.03702859207987785,0.01891828514635563,0.0111185098066926
1761468186579946200,1.3019462890625,-0.03906777501106262,0.00931998435407877,0.025389857590198517
1761468186589900300,1.311900390625,-0.03793848678469658,0.0003221494553145021,0.030056698247790337
1761468186599854300,1.321854248046875,-0.03264305740594864,0.0019496072782203555,0.02774054743349552
1761468186609808100,1.33180810546875,-0.024900494143366814,-0.0000399253040086478,0.02183830738067627
1761468186619763200,1.34176318359375,-0.02077951841056347,-0.027104832231998444,0.006675065960735083
1761468186629717000,1.351717041015625,-0.017915399745106697,-0.029108257964253426,-0.00002085743471980095
1761468186639671300,1.36167138671875,-0.01944591850042343,-0.008950524032115936,-0.006398594938218594
1761468186649625300,1.371625244140625,-0.022545170038938522,-0.005963119212538004,-0.014664905145764351
1761468186659579400,1.381579345703125,-0.024925503879785538,-0.008241986855864525,-0.01273065060377121
1761468186669533200,1.391533203125,-0.028720032423734665,-0.0009387597674503922,-0.002713662339374423
1761468186679487200,1.4014873046875,-0.029422041028738022,0.005996910855174065,0.011658351868391037
1761468186689442000,1.411442138671875,-0.02786707505583763,0.01325379777699709,0.02116454765200615
1761468186699396000,1.42139599609375,-0.02618448995053768,0.009448407217860222,0.026059437543153763
1761468186709350100,1.43135009765625,-0.024472501128911972,0.004294045269489288,0.03022160939872265
1761468186719304400,1.441304443359375,-0.029228638857603073,-0.00799750816076994,0.019669100642204285
1761468186729258200,1.45125830078125,-0.03473500534892082,-0.014529319480061531,0.007847717963159084
1761468186739212300,1.46121240234375,-0.03522369638085365,-0.013148203492164612,-0.00589898694306612
1761468186749166300,1.471166259765625,-0.03743809461593628,-0.006477575283497572,-0.022295864298939705
1761468186759120100,1.4811201171875,-0.04115426912903786,0.007791375275701284,-0.03738214075565338
1761468186769075200,1.4910751953125,-0.04835888370871544,0.026512082666158676,-0.041439179331064224
1761468186779029200,1.501029296875,-0.05278186500072479,0.031033597886562347,-0.032718922942876816
1761468186788983000,1.510983154296875,-0.05089592561125755,0.036985840648412704,-0.015797648578882217
1761468186798937300,1.520937255859375,-0.04810679703950882,0.04033423587679863,0.0027102543972432613
1761468186808891400,1.530891357421875,-0.041678283363580704,0.038444411009550095,0.010901297442615032
1761468186818845200,1.54084521484375,-0.03334551677107811,0.042363252490758896,0.00989808514714241
1761468186828799200,1.55079931640625,-0.026706675067543983,0.050519172102212906,0.003406343748793006
1761468186838754300,1.56075439453125,-0.019192565232515335,0.046783555299043655,-0.00892995111644268
1761468186848708000,1.5707080078125,-0.015282637439668179,0.02504650689661503,-0.021731294691562653
1761468186858662100,1.580662109375,-0.013939605094492435,-0.0036778163630515337,-0.03254612535238266
1761468186868616200,1.5906162109375,-0.0125883799046278,-0.02321372739970684,-0.029619598761200905
1761468186878570200,1.6005703125,-0.004289969336241484,-0.024040373042225838,-0.023673824965953827
1761468186888524300,1.610524169921875,0.007741925772279501,-0.011076903901994228,-0.010548703372478485
1761468186898478300,1.620478271484375,0.01629040762782097,0.00015551078831776977,0.002250449266284704
1761468186908433200,1.63043310546875,0.0240864809602499,0.016574928537011147,0.019964158535003662
1761468186918387200,1.64038720703125,0.03203122317790985,0.02983693778514862,0.03933439403772354
1761468186928341200,1.65034130859375,0.036128848791122437,0.03429052233695984,0.0518600195646286
1761468186938295000,1.660294921875,0.035164788365364075,0.034561097621917725,0.05107571929693222
1761468186948249000,1.6702490234375,0.03071884997189045,0.024626215919852257,0.035003580152988434
1761468186958203400,1.680203369140625,0.02483459562063217,0.016562430188059807,0.005023844540119171
1761468186968157200,1.6901572265625,0.022340355440974236,0.006280133500695229,-0.019861366599798203
1761468186978111200,1.700111328125,0.02675640769302845,-0.013313541188836098,-0.03569146245718002
1761468186988066300,1.71006640625,0.0343061126768589,-0.03528200089931488,-0.045617371797561646
1761468186998019800,1.720019775390625,0.03916585072875023,-0.050959765911102295,-0.055297963321208954
1761468187007974000,1.729973876953125,0.03930305689573288,-0.04884552210569382,-0.05345243215560913
1761468187017928000,1.739927978515625,0.037580255419015884,-0.030432159081101418,-0.04166581481695175
1761468187027882000,1.749882080078125,0.042378753423690796,-0.008523255586624146,-0.01469423994421959
1761468187037836000,1.7598359375,0.04457665979862213,0.01275113970041275,0.0130732087418437
1761468187047790000,1.7697900390625,0.0525815449655056,0.025509927421808243,0.03752754256129265
1761468187057745000,1.779744873046875,0.05427638068795204,0.022860880941152573,0.05384393036365509
1761468187067699000,1.789698974609375,0.04295739158987999,0.005292056128382683,0.060305334627628326
1761468187077653000,1.799653076171875,0.035052862018346786,-0.011443248018622398,0.06334799528121948
1761468187087606800,1.809606689453125,0.023353416472673416,-0.016683304682374,0.060906920582056046
1761468187097560800,1.819560791015625,0.016966354101896286,-0.017499297857284546,0.06886976957321167
1761468187107515000,1.829514892578125,0.009557676501572132,-0.015332834795117378,0.08283190429210663
1761468187117469200,1.83946923828125,0.0025586227420717478,-0.028473669663071632,0.09900182485580444
1761468187127424000,1.849424072265625,-0.001017961883917451,-0.03961331397294998,0.10525581985712051
1761468187137378000,1.8593779296875,-0.010414127260446548,-0.03063579834997654,0.10325978696346283
1761468187147331800,1.869331787109375,-0.016553455963730812,-0.018297946080565453,0.09661249816417694
1761468187157286000,1.879285888671875,-0.0155252106487751,-0.018955213949084282,0.08496196568012238
1761468187167240000,1.889239990234375,-0.021151138469576836,-0.0283266119658947,0.06834010779857635
1761468187177194000,1.899194091796875,-0.027866831049323082,-0.05159944295883179,0.049039117991924286
1761468187187147800,1.909147705078125,-0.04157434031367302,-0.0859825611114502,0.021600179374217987
1761468187197102000,1.91910205078125,-0.04827139154076576,-0.10055165737867355,-0.008375562727451324
1761468187207057000,1.929056884765625,-0.05645794793963432,-0.09786505997180939,-0.041600361466407776
1761468187217011000,1.939010986328125,-0.06450522691011429,-0.08291486650705338,-0.0785336047410965
1761468187226965000,1.948965087890625,-0.05736852437257767,-0.04165166988968849,-0.10647104680538177
1761468187236919000,1.9589189453125,-0.04988637566566467,-0.0040395804680883884,-0.12633290886878967
1761468187246872800,1.968872802734375,-0.04304524511098862,0.018308335915207863,-0.14131931960582733
1761468187256827000,1.978826904296875,-0.03469144180417061,0.012888536788523197,-0.15308064222335815
1761468187266781000,1.988781005859375,-0.02821323275566101,-0.0046738432720303535,-0.15943589806556702
1761468187276736000,1.998736083984375,-0.015509686432778835,-0.025415340438485146,-0.16217470169067383
1761468187286690000,2.00868994140625,-0.00007230532355606556,-0.04166875779628754,-0.16550351679325104
1761468187296644000,2.01864404296875,0.017018264159560204,-0.04323682561516762,-0.1845661699771881
1761468187306598000,2.028597900390625,0.03557383269071579,-0.035580314695835114,-0.20510107278823853
1761468187316552000,2.038552001953125,0.0471697673201561,-0.03074002079665661,-0.2324533462524414
1761468187326506000,2.048506103515625,0.06318233907222748,-0.03276865556836128,-0.2648737132549286
1761468187336459800,2.058459716796875,0.07678736746311188,-0.037234775722026825,-0.2979259490966797
1761468187346415000,2.0684150390625,0.07998407632112503,-0.04359441250562668,-0.33266979455947876
1761468187356369000,2.078368896484375,0.06989974528551102,-0.062286075204610825,-0.36615851521492004
1761468187366323000,2.088322998046875,0.05657867342233658,-0.09063833206892014,-0.3866136968135834
1761468187376277000,2.098277099609375,0.02934545837342739,-0.10979524254798889,-0.4033178389072418
1761468187386231000,2.10823095703125,-0.016475709155201912,-0.1139092966914177,-0.4217711389064789
1761468187396184800,2.118184814453125,-0.06729281693696976,-0.1114133819937706,-0.43644118309020996
1761468187406139000,2.128138916015625,-0.1196167916059494,-0.10376474261283875,-0.4432465732097626
1761468187416093000,2.138093017578125,-0.1626870334148407,-0.09471186250448227,-0.42404866218566895
1761468187426048000,2.148048095703125,-0.21503233909606934,-0.08174917101860046,-0.361664354801178
1761468187436002000,2.158001953125,-0.28542396426200867,-0.07684868574142456,-0.2600831389427185
1761468187445956000,2.1679560546875,-0.33797192573547363,-0.06812120229005814,-0.13633131980895996
1761468187455910000,2.177909912109375,-0.36914023756980896,-0.05771356448531151,-0.014964940957725048
1761468187465864000,2.187864013671875,-0.3797329068183899,-0.0431123785674572,0.09021435678005219
1761468187475818000,2.19781787109375,-0.3595496118068695,-0.03223096951842308,0.17198804020881653
1761468187485772800,2.207772705078125,-0.3274475634098053,-0.036268483847379684,0.22588759660720825
1761468187495727000,2.21772705078125,-0.2896738052368164,-0.04485105350613594,0.2598192095756531
1761468187505681200,2.22768115234375,-0.24838118255138397,-0.050753332674503326,0.2697606086730957
1761468187515635000,2.237635009765625,-0.214961975812912,-0.062476836144924164,0.24420170485973358
1761468187525589000,2.247589111328125,-0.18634329736232758,-0.07103446125984192,0.17662471532821655
1761468187535543000,2.25754296875,-0.15134456753730774,-0.05898871645331383,0.09700445085763931
1761468187545496800,2.267496826171875,-0.12503643333911896,-0.010523401200771332,0.029910141602158546
1761468187555451000,2.277450927734375,-0.10950382053852081,0.04363437741994858,-0.029567833989858627
1761468187565406000,2.287406005859375,-0.09814251959323883,0.0684618204832077,-0.08001010864973068
1761468187575360000,2.297360107421875,-0.08937112987041473,0.06840083003044128,-0.12375306338071823
1761468187585314000,2.30731396484375,-0.0812736302614212,0.05732648819684982,-0.14758501946926117
1761468187595268000,2.31726806640625,-0.0769510567188263,0.028114009648561478,-0.16031786799430847
1761468187605222000,2.327221923828125,-0.07132603228092194,0.0032928965520113707,-0.15380287170410156
1761468187615176000,2.337176025390625,-0.05450417846441269,-0.015756161883473396,-0.13366246223449707
1761468187625130000,2.3471298828125,-0.02585994452238083,-0.04310592636466026,-0.11298051476478577
1761468187635084800,2.357084716796875,0.011398211121559143,-0.06217548996210098,-0.09747852385044098
1761468187645038800,2.367038818359375,0.0421874076128006,-0.05414146929979324,-0.09316173940896988
1761468187654993200,2.3769931640625,0.06065003573894501,-0.044756755232810974,-0.10560562461614609
1761468187664947000,2.386947021484375,0.06272640079259872,-0.04609251767396927,-0.11806701123714447
1761468187674901000,2.39690087890625,0.06269656866788864,-0.05488254874944687,-0.11488240212202072
1761468187684855000,2.40685498046875,0.058923330157995224,-0.07168399542570114,-0.1073225885629654
1761468187694808800,2.416808837890625,0.061285022646188736,-0.0849023312330246,-0.0897502526640892
1761468187704764000,2.426763916015625,0.06251881271600723,-0.08842745423316956,-0.05540096387267113
1761468187714718000,2.436718017578125,0.062238920480012894,-0.0911734402179718,-0.028422076255083084
1761468187724671700,2.446671630859375,0.06525924056768417,-0.11251599341630936,0.0004961430095136166
1761468187734626000,2.4566259765625,0.06914559006690979,-0.1288433074951172,0.03549008071422577
1761468187744580000,2.466580078125,0.061940960586071014,-0.13247545063495636,0.06694721430540085
1761468187754534000,2.476533935546875,0.03508564084768295,-0.1408414989709854,0.08400822430849075
1761468187764488000,2.486488037109375,-0.0037458855658769608,-0.1544812023639679,0.08537915349006653
1761468187774443000,2.496443115234375,-0.03394399955868721,-0.1595665067434311,0.08997949957847595
1761468187784396800,2.506396728515625,-0.042208001017570496,-0.1388985514640808,0.10008323192596436
1761468187794350800,2.516350830078125,-0.03295458108186722,-0.11053482443094254,0.10990177094936371
1761468187804305200,2.52630517578125,-0.015738405287265778,-0.07003191858530045,0.11139655858278275
1761468187814259000,2.536259033203125,-0.004415443167090416,-0.03802205249667168,0.10825349390506744
1761468187824213000,2.546212890625,0.0063387928530573845,-0.026378650218248367,0.10798058658838272
1761468187834167000,2.5561669921875,0.021535588428378105,-0.02019745483994484,0.12638436257839203
1761468187844121900,2.566121826171875,0.0397217832505703,-0.016808314248919487,0.1711054891347885
1761468187854076000,2.576075927734375,0.06110510602593422,-0.007667813450098038,0.2375151365995407
1761468187864030000,2.586030029296875,0.09679974615573883,-0.001343853073194623,0.29931992292404175
1761468187873983700,2.595983642578125,0.15887244045734406,0.0008005242561921477,0.3274066746234894
1761468187883938000,2.60593798828125,0.251247376203537,0.008125406689941883,0.2939058542251587
1761468187893892000,2.61589208984375,0.36005616188049316,0.009153120219707489,0.1953718215227127
1761468187903846100,2.62584619140625,0.4520110487937927,-0.05906005948781967,0.019884653389453888
1761468187913800000,2.635800048828125,0.5051317811012268,-0.22061486542224884,-0.20220515131950378
1761468187923755000,2.645755126953125,0.4952361285686493,-0.40112683176994324,-0.38555577397346497
1761468187933708800,2.655708740234375,0.4227645993232727,-0.5083776712417603,-0.44515252113342285
1761468187943662800,2.665662841796875,0.2998851239681244,-0.4844436049461365,-0.32826775312423706
1761468187953617000,2.675616943359375,0.1503475457429886,-0.3167467415332794,-0.0649772584438324
1761468187963571000,2.685571044921875,0.03659478574991226,-0.017576659098267555,0.27710992097854614
1761468187973525000,2.69552490234375,0.016828803345561028,0.3346184194087982,0.6684198975563049
1761468187983480000,2.70547998046875,0.04670688509941101,0.6984984874725342,1.010780930519104
1761468187993433900,2.715433837890625,0.06785717606544495,0.9747617840766907,1.235175371170044
1761468188003388200,2.72538818359375,0.07080735266208649,1.1449962854385376,1.341468095779419
1761468188013342200,2.73534228515625,0.09484904259443283,1.2234817743301392,1.3475273847579956
1761468188023296000,2.7452958984375,0.12403646856546402,1.2472443580627441,1.2692227363586426
1761468188033250000,2.75525,0.174482062458992,1.2117769718170166,1.1396688222885132
1761468188043204400,2.765204345703125,0.24897758662700653,1.078513503074646,0.967824399471283
1761468188053158400,2.775158447265625,0.33948296308517456,0.842782735824585,0.765949547290802
1761468188063113200,2.78511328125,0.42929697036743164,0.5623998045921326,0.5642444491386414
1761468188073067300,2.7950673828125,0.4902016222476959,0.2608568072319031,0.3943502604961395
1761468188083021000,2.80502099609375,0.5229748487472534,-0.01420695148408413,0.2652527391910553
1761468188092975000,2.81497509765625,0.5545935034751892,-0.2074935883283615,0.1944049447774887
1761468188102929200,2.82492919921875,0.5853610038757324,-0.33332908153533936,0.1526036560535431
1761468188112883200,2.83488330078125,0.6106293201446533,-0.42166826128959656,0.11063329875469208
1761468188122837200,2.844837158203125,0.6326921582221985,-0.4418250620365143,0.05770469456911087
1761468188132792300,2.854792236328125,0.6355478763580322,-0.4041706323623657,-0.02010807767510414
1761468188142746000,2.86474609375,0.6207242608070374,-0.3522081673145294,-0.12673285603523254
1761468188152700200,2.8747001953125,0.5890837907791138,-0.3009588122367859,-0.24989448487758636
1761468188162654200,2.884654296875,0.5510352849960327,-0.263560026884079,-0.375918447971344
1761468188172608300,2.894608154296875,0.5181436538696289,-0.22578415274620056,-0.48580819368362427
1761468188182562000,2.90456201171875,0.4972221851348877,-0.18345962464809418,-0.5558232069015503
1761468188192516400,2.914516357421875,0.4792192280292511,-0.14776688814163208,-0.5717904567718506
1761468188202471200,2.92447119140625,0.465437650680542,-0.10601849108934402,-0.5301254391670227
1761468188212425200,2.93442529296875,0.44883444905281067,-0.040987297892570496,-0.43783441185951233
1761468188222379300,2.944379150390625,0.44524362683296204,0.05044611170887947,-0.3276803195476532
1761468188232333000,2.9543330078125,0.450366735458374,0.1398087590932846,-0.22041724622249603
1761468188242287000,2.964287109375,0.4669855833053589,0.20501114428043365,-0.13258224725723267
1761468188252241200,2.9742412109375,0.4824865162372589,0.24826247990131378,-0.06557150930166245
1761468188262195200,2.9841953125,0.48883673548698425,0.2727363407611847,-0.023252882063388824
1761468188272150300,2.994150390625,0.4802496135234833,0.2689056396484375,-0.009921896271407604
1761468188282104300,3.004104248046875,0.45717254281044006,0.24172011017799377,-0.01902935653924942
1761468188292058000,3.01405810546875,0.41560113430023193,0.21986915171146393,-0.04509611055254936
1761468188302012200,3.02401220703125,0.3623661696910858,0.20609509944915771,-0.0772305279970169
1761468188311966200,3.03396630859375,0.29515916109085083,0.19020481407642365,-0.11209449917078018
1761468188321920300,3.043920166015625,0.22132796049118042,0.1798960417509079,-0.13174724578857422
1761468188331874000,3.0538740234375,0.15172570943832397,0.19145655632019043,-0.12138780951499939
1761468188341829400,3.063829345703125,0.09296248853206635,0.2095697522163391,-0.09036626666784286
1761468188351783200,3.073783203125,0.026542723178863525,0.24125711619853973,-0.05385085940361023
1761468188361737200,3.0837373046875,-0.05539340153336525,0.26225900650024414,-0.034815713763237
1761468188371691300,3.093691162109375,-0.15439453721046448,0.2570623755455017,-0.045928820967674255
1761468188381645300,3.103645263671875,-0.24351337552070618,0.2083979696035385,-0.07606694847345352
1761468188391599000,3.11359912109375,-0.307935506105423,0.12047424167394638,-0.11882399767637253
1761468188401553200,3.12355322265625,-0.3400280773639679,0.027616403996944427,-0.15099479258060455
1761468188411508200,3.13350830078125,-0.3536624014377594,-0.05987163633108139,-0.15239721536636353
1761468188421462300,3.143462158203125,-0.3643106520175934,-0.11955093592405319,-0.12927323579788208
1761468188431416300,3.153416259765625,-0.370920330286026,-0.16147682070732117,-0.08841156214475632
1761468188441370400,3.163370361328125,-0.37967395782470703,-0.18377889692783356,-0.03629958629608154
1761468188451324200,3.17332421875,-0.3940851092338562,-0.16218997538089752,0.020933344960212708
1761468188461278200,3.1832783203125,-0.40188875794410706,-0.11885271966457367,0.08236437290906906
1761468188471232300,3.193232177734375,-0.3979952335357666,-0.07362345606088638,0.14046816527843475
1761468188481187000,3.20318701171875,-0.39086198806762695,-0.014090172946453094,0.20259617269039154
1761468188491141400,3.213141357421875,-0.3895394802093506,0.051262468099594116,0.2652185261249542
1761468188501095200,3.22309521484375,-0.4012036621570587,0.07589811831712723,0.29807326197624207
1761468188511049200,3.23304931640625,-0.41832485795021057,0.07266690582036972,0.299506813287735
1761468188521003300,3.243003173828125,-0.45723873376846313,0.03804907575249672,0.2730425000190735
1761468188530957300,3.252957275390625,-0.4995616674423218,-0.011006618849933147,0.22852537035942078
1761468188540911000,3.2629111328125,-0.5503321290016174,-0.06267565488815308,0.1685725748538971
1761468188550866200,3.2728662109375,-0.6039245128631592,-0.11853412538766861,0.11363103985786438
1761468188560820200,3.2828203125,-0.6517157554626465,-0.1595982015132904,0.08610273897647858
1761468188570774300,3.292774169921875,-0.6742178201675415,-0.17988376319408417,0.09083304554224014
1761468188580728300,3.302728271484375,-0.6740210652351379,-0.1726263016462326,0.11400049924850464
1761468188590682400,3.312682373046875,-0.6536617279052734,-0.1327851414680481,0.13935911655426025
1761468188600636200,3.32263623046875,-0.6222913265228271,-0.06250636279582977,0.16228583455085754
1761468188610590200,3.332590087890625,-0.6027905941009521,0.006494278088212013,0.20413927733898163
1761468188620545000,3.342544921875,-0.5929117202758789,0.029463181272149086,0.2573118805885315
1761468188630499000,3.3524990234375,-0.5879502892494202,0.0015812169294804335,0.304343044757843
1761468188640453000,3.362453125,-0.5889972448348999,-0.053384024649858475,0.3544065058231354
1761468188650407400,3.372407470703125,-0.5752241611480713,-0.10585948824882507,0.4005878269672394
1761468188660361200,3.382361328125,-0.5448818802833557,-0.12658800184726715,0.43365517258644104
1761468188670315300,3.392315185546875,-0.4997333288192749,-0.08664937317371368,0.4459501802921295
1761468188680269300,3.402269287109375,-0.44638317823410034,-0.026060951873660088,0.41229116916656494
1761468188690224000,3.41222412109375,-0.38598135113716125,0.021196573972702026,0.2992170751094818
1761468188700178200,3.42217822265625,-0.30573514103889465,0.07161946594715118,0.12228221446275711
1761468188710132200,3.43213232421875,-0.23280739784240723,0.09196840971708298,-0.07879656553268433
1761468188720086000,3.4420859375,-0.18103185296058655,0.10265938937664032,-0.22935335338115692
1761468188730040300,3.452040283203125,-0.14274784922599792,0.1258872151374817,-0.24879175424575806
1761468188739994400,3.461994384765625,-0.1319630742073059,0.20556162297725677,-0.12960456311702728
1761468188749948200,3.4719482421875,-0.16583287715911865,0.34430938959121704,0.08356443792581558
1761468188759903200,3.4819033203125,-0.2249995917081833,0.5258006453514099,0.3131827414035797
1761468188769857300,3.491857177734375,-0.2552424371242523,0.6434348225593567,0.49000251293182373
1761468188779811000,3.50181103515625,-0.2752392888069153,0.6043780446052551,0.5322828888893127
1761468188789765000,3.51176513671875,-0.30335482954978943,0.33778947591781616,0.41900986433029175
1761468188799719200,3.52171923828125,-0.36650529503822327,-0.06446368247270584,0.18316619098186493
1761468188809673200,3.531673095703125,-0.4548354148864746,-0.45015278458595276,-0.09105470776557922
1761468188819627300,3.541627197265625,-0.564378023147583,-0.7022191286087036,-0.29071274399757385
1761468188829582300,3.551582275390625,-0.6546996831893921,-0.7545555830001831,-0.37993770837783813
1761468188839536000,3.5615361328125,-0.6964343786239624,-0.6264679431915283,-0.3674785792827606
1761468188849490200,3.571490234375,-0.6914694309234619,-0.35648757219314575,-0.26646488904953003
1761468188859444200,3.5814443359375,-0.6270200610160828,-0.026463015004992485,-0.12646353244781494
1761468188869398000,3.59139794921875,-0.4922611713409424,0.2799011766910553,0.024319306015968323
1761468188879352000,3.60135205078125,-0.3360389769077301,0.526489794254303,0.1396396905183792
1761468188889306400,3.611306396484375,-0.22193343937397003,0.6603424549102783,0.17816470563411713
1761468188899261200,3.62126123046875,-0.18364323675632477,0.6546593308448792,0.13860562443733215
1761468188909215200,3.63121533203125,-0.20282572507858276,0.5644652247428894,0.0506850928068161
1761468188919169300,3.641169189453125,-0.24453257024288177,0.4246880114078522,-0.061314284801483154
1761468188929123000,3.651123046875,-0.27453890442848206,0.26037895679473877,-0.18843069672584534
1761468188939077000,3.6610771484375,-0.29703617095947266,0.08765589445829391,-0.3121265470981598
1761468188949031200,3.67103125,-0.3040831685066223,-0.06654965132474899,-0.4108811020851135
1761468188958986200,3.680986328125,-0.27945491671562195,-0.15365685522556305,-0.45155662298202515
1761468188968940300,3.690940185546875,-0.21717184782028198,-0.18347840011119843,-0.4425804316997528
1761468188978894300,3.700894287109375,-0.133243590593338,-0.18468132615089417,-0.38592004776000977
1761468188988848000,3.71084814453125,-0.038483791053295135,-0.14672383666038513,-0.29610228538513184
1761468188998802200,3.72080224609375,0.055256105959415436,-0.08764667809009552,-0.2040240466594696
1761468189008756200,3.730756103515625,0.13441218435764313,-0.04361344128847122,-0.1318204253911972
1761468189018710000,3.7407099609375,0.17975836992263794,-0.020726626738905907,-0.08559473603963852
1761468189028665000,3.7506650390625,0.18928156793117523,-0.012174418196082115,-0.06292270869016647
1761468189038619100,3.760619140625,0.18714389204978943,0.003976671956479549,-0.05150672793388367
1761468189048573000,3.770572998046875,0.1725527048110962,0.008651318959891796,-0.044993966817855835
1761468189058527000,3.78052685546875,0.15177494287490845,-0.004193457309156656,-0.04048025608062744
1761468189068481000,3.79048095703125,0.13444042205810547,-0.0353202186524868,-0.04173886775970459
1761468189078435000,3.80043505859375,0.11922626197338104,-0.06994020193815231,-0.051346711814403534
1761468189088389000,3.81038916015625,0.10901650041341782,-0.09127239137887955,-0.05909065157175064
1761468189098344200,3.82034423828125,0.1131913810968399,-0.10270515084266663,-0.06020819768309593
1761468189108298000,3.830298095703125,0.12887606024742126,-0.10533555597066879,-0.05886915698647499
1761468189118252000,3.840251953125,0.14753904938697815,-0.10650850087404251,-0.054050248116254807
1761468189128206000,3.8502060546875,0.16619502007961273,-0.09224247932434082,-0.025340043008327484
1761468189138159900,3.860159912109375,0.1823105365037918,-0.036115601658821106,0.026768390089273453
1761468189148114000,3.870114013671875,0.20357108116149902,0.047244537621736526,0.09582788497209549
1761468189158068200,3.880068115234375,0.2319837212562561,0.14783993363380432,0.16362352669239044
1761468189168023000,3.89002294921875,0.2639884948730469,0.23239822685718536,0.21218839287757874
1761468189177977000,3.89997705078125,0.29729869961738586,0.266644150018692,0.23265086114406586
1761468189187931100,3.90993115234375,0.3310161828994751,0.25826239585876465,0.23954924941062927
1761468189197885000,3.919885009765625,0.37358880043029785,0.2074826955795288,0.23225551843643188
1761468189207839000,3.9298388671875,0.41699913144111633,0.12029772996902466,0.2172427475452423
1761468189217793000,3.93979296875,0.46748486161231995,0.038015395402908325,0.19533586502075195
1761468189227747300,3.949747314453125,0.5236845016479492,-0.020303837954998016,0.16808001697063446
1761468189237702100,3.9597021484375,0.5940529704093933,-0.06618840247392654,0.15837635099887848
1761468189247656200,3.96965625,0.6754636764526367,-0.08768277615308762,0.17487996816635132
1761468189257610000,3.97960986328125,0.7498190999031067,-0.06575826555490494,0.22618500888347626
1761468189267564000,3.98956396484375,0.8059366941452026,-0.0037838411517441273,0.30215007066726685
1761468189286849000,4.00884912109375,0.8904545903205872,0.27678728103637695,0.456411749124527
1761468189296803000,4.018802978515625,0.9404117465019226,0.3972841203212738,0.46056893467903137
1761468189306758100,4.028758056640625,0.9670652747154236,0.38975760340690613,0.3931516408920288
1761468189316712200,4.038712158203125,0.9741207957267761,0.2432403415441513,0.2650908827781677
1761468189326666200,4.048666259765625,0.9485112428665161,-0.000990349450148642,0.12864631414413452
1761468189336620000,4.0586201171875,0.8719940781593323,-0.24744674563407898,0.0260874405503273
1761468189346574000,4.068573974609375,0.799663245677948,-0.40755653381347656,0.0018657045438885689
1761468189356528000,4.078528076171875,0.7679487466812134,-0.4290594458580017,0.07326824218034744
1761468189366482000,4.08848193359375,0.7653564810752869,-0.2814645767211914,0.23498502373695374
1761468189376437200,4.098437255859375,0.797247588634491,-0.011182227171957493,0.4462570548057556
1761468189386391000,4.10839111328125,0.8584527373313904,0.3426292836666107,0.6455352306365967
1761468189396345000,4.118344970703125,0.9071452021598816,0.6504334807395935,0.7669974565505981
1761468189406299100,4.128299072265625,0.9124552011489868,0.8030191659927368,0.7761205434799194
1761468189416253200,4.138253173828125,0.8933270573616028,0.8084620833396912,0.7103870511054993
1761468189426207000,4.14820703125,0.8672692775726318,0.6781128644943237,0.5987563729286194
1761468189436161000,4.1581611328125,0.8406970500946045,0.4326344132423401,0.45804959535598755
1761468189446116000,4.1681162109375,0.8105465769767761,0.1176583468914032,0.2945094108581543
1761468189456070100,4.178070068359375,0.7850774526596069,-0.19803541898727417,0.14857348799705505
1761468189466024200,4.188024169921875,0.7673839926719666,-0.4584159851074219,0.0483570396900177
1761468189475978200,4.197978271484375,0.7677035331726074,-0.6571179032325745,-0.0032393091823905706
1761468189485932000,4.20793212890625,0.7773858308792114,-0.7788689732551575,-0.015123297460377216
1761468189495886000,4.217885986328125,0.7634117007255554,-0.8050481081008911,0.005391033366322517
1761468189505840000,4.227840087890625,0.726128339767456,-0.7657250165939331,0.022623468190431595
1761468189515795000,4.237794921875,0.6733314394950867,-0.6604268550872803,0.03060336410999298
1761468189525749000,4.2477490234375,0.6115797758102417,-0.48926931619644165,0.02781306579709053
1761468189535703300,4.257703369140625,0.5363526344299316,-0.2890928089618683,0.005835330113768578
1761468189545657000,4.267656982421875,0.46250125765800476,-0.0740705356001854,-0.0369422473013401
1761468189555611100,4.277611083984375,0.38037335872650146,0.13855651021003723,-0.10321500897407532
1761468189565565200,4.287565185546875,0.31057387590408325,0.2827395498752594,-0.18273749947547913
1761468189575520000,4.29752001953125,0.26583728194236755,0.34187769889831543,-0.2685171067714691
1761468189585474000,4.30747412109375,0.23830054700374603,0.31492477655410767,-0.3395133912563324
1761468189595428000,4.317427978515625,0.22610992193222046,0.23563048243522644,-0.39379847049713135
1761468189605382000,4.3273818359375,0.22231389582157135,0.1460426300764084,-0.43188905715942383
1761468189615959000,4.337958984375,0.2292197346687317,0.03962936997413635,-0.4635910391807556
1761468189625913000,4.3479130859375,0.24179552495479584,-0.06935807317495346,-0.4810808002948761
1761468189635867100,4.3578671875,0.25151658058166504,-0.14994320273399353,-0.4817380905151367
1761468189645822000,4.367822021484375,0.25963684916496277,-0.17492717504501343,-0.4540487229824066
1761468189655776000,4.37777587890625,0.2668401598930359,-0.15624935925006866,-0.4179452955722809
1761468189665730000,4.38772998046875,0.26701539754867554,-0.11712338775396347,-0.3852578103542328
1761468189675684000,4.39768408203125,0.2630462348461151,-0.04961385577917099,-0.349561870098114
1761468189685638100,4.40763818359375,0.24950459599494934,0.03177788108587265,-0.32084986567497253
1761468189695592200,4.41759228515625,0.22393479943275452,0.09449825435876846,-0.30529698729515076
1761468189705547000,4.427547119140625,0.1876918524503708,0.14912942051887512,-0.296239972114563
1761468189715501000,4.4375009765625,0.13675810396671295,0.20216654241085052,-0.28375375270843506
1761468189725455000,4.447455078125,0.08192592114210129,0.23914982378482819,-0.2726478576660156
1761468189735409000,4.457408935546875,0.03059934452176094,0.2569357454776764,-0.27491524815559387
1761468189745363000,4.467363037109375,-0.016122786328196526,0.28511688113212585,-0.29276180267333984
1761468189755317000,4.47731689453125,-0.04707244411110878,0.30872365832328796,-0.3226459324359894
1761468189765271300,4.487271240234375,-0.05541012063622475,0.29469600319862366,-0.34578824043273926
1761468189775226000,4.49722607421875,-0.05726101994514465,0.2483506202697754,-0.3537077009677887
1761468189785180200,4.50718017578125,-0.05733174830675125,0.19522207975387573,-0.3365604877471924
1761468189795134000,4.517134033203125,-0.0514909029006958,0.12069058418273926,-0.286114901304245
1761468189805088000,4.527087890625,-0.05137743800878525,0.022626211866736412,-0.21435214579105377
1761468189815042000,4.5370419921875,-0.06742564588785172,-0.06914977729320526,-0.1376807987689972
1761468189824996000,4.54699609375,-0.0883648693561554,-0.13559171557426453,-0.07460656017065048
1761468189834950000,4.556949951171875,-0.11902052164077759,-0.1767660528421402,-0.038442160934209824
1761468189844905200,4.5669052734375,-0.14910583198070526,-0.19186164438724518,-0.01584497280418873
1761468189854859000,4.57685888671875,-0.17786051332950592,-0.18735158443450928,-0.004499906674027443
1761468189864813000,4.58681298828125,-0.21461018919944763,-0.17743045091629028,0.004623879212886095
1761468189874767000,4.59676708984375,-0.25611022114753723,-0.17284661531448364,0.013727628625929356
1761468189884721200,4.60672119140625,-0.3052379786968231,-0.18408623337745667,0.01782035455107689
1761468189894675000,4.616675048828125,-0.34972208738327026,-0.22676311433315277,0.013669284991919994
1761468189904630300,4.62663037109375,-0.3876020908355713,-0.2681763470172882,0.0023931944742798805
1761468189914584000,4.636583984375,-0.4331669211387634,-0.2949259281158447,-0.02555881254374981
1761468189924538000,4.6465380859375,-0.4625733196735382,-0.2898603081703186,-0.0456981286406517
1761468189934492200,4.6564921875,-0.47031939029693604,-0.24052603542804718,-0.03802582621574402
1761468189944446200,4.6664462890625,-0.4689490497112274,-0.15536446869373322,-0.004319446161389351
1761468189954400000,4.67639990234375,-0.4577224850654602,-0.04845345392823219,0.046195127069950104
1761468189964354000,4.68635400390625,-0.44563475251197815,0.05934665724635124,0.10287319868803024
1761468189974308900,4.696308837890625,-0.4349411129951477,0.11561658978462219,0.15581338107585907
1761468189984263200,4.70626318359375,-0.4347028136253357,0.09397844225168228,0.18202824890613556
1761468189994217200,4.71621728515625,-0.45216116309165955,0.014269235543906689,0.16902536153793335
1761468190004170800,4.726170654296875,-0.487416535615921,-0.08599679172039032,0.11442109197378159
1761468190014124500,4.73612451171875,-0.5298313498497009,-0.14964421093463898,0.04356929287314415
1761468190024078600,4.74607861328125,-0.5736316442489624,-0.18081609904766083,-0.02312544174492359
1761468190034033700,4.75603369140625,-0.6362516283988953,-0.18738079071044922,-0.08187903463840485
1761468190043987500,4.765987548828125,-0.7101250290870667,-0.16203752160072327,-0.14601078629493713
1761468190053941800,4.775941650390625,-0.768825888633728,-0.054849013686180115,-0.19680792093276978
1761468190063895800,4.785895751953125,-0.7766251564025879,0.13537810742855072,-0.21658968925476074
1761468190073849600,4.795849609375,-0.7391436100006104,0.33377134799957275,-0.1669084131717682
1761468190083803600,4.8058037109375,-0.6818548440933228,0.46193718910217285,-0.04925088584423065
1761468190093757700,4.8157578125,-0.6080166101455688,0.5225371718406677,0.09560243785381317
1761468190103712500,4.82571240234375,-0.49986201524734497,0.5082271695137024,0.25024524331092834
1761468190113666600,4.83566650390625,-0.3789614140987396,0.46214619278907776,0.38513514399528503
1761468190123620600,4.84562060546875,-0.2561883330345154,0.369154155254364,0.4778301417827606
1761468190133574700,4.85557470703125,-0.1485670655965805,0.2723724842071533,0.5326148271560669
1761468190143528700,4.86552880859375,-0.06463712453842163,0.1630719155073166,0.5434837937355042
1761468190153482800,4.875482666015625,-0.02003982476890087,0.023065799847245216,0.5112941265106201
1761468190163436500,4.8854365234375,-0.0005382245872169733,-0.11410073935985565,0.4539406895637512
1761468190173391600,4.8953916015625,0.01185106672346592,-0.23610654473304749,0.3804430365562439
1761468190183345700,4.905345703125,0.038405004888772964,-0.3564707338809967,0.2984275817871094
1761468190193299500,4.915299560546875,0.06301288306713104,-0.47509562969207764,0.23798313736915588
1761468190203253500,4.92525341796875,0.06757111102342606,-0.5425548553466797,0.2160583734512329
1761468190213207800,4.935207763671875,0.04997454583644867,-0.5464111566543579,0.2221468985080719
1761468190223161600,4.94516162109375,0.005748816300183535,-0.5178503394126892,0.22891315817832947
1761468190233115600,4.95511572265625,-0.04808192327618599,-0.45538273453712463,0.2268553376197815
1761468190243070700,4.96507080078125,-0.09303268045186996,-0.3749317526817322,0.21796706318855286
1761468190253024500,4.9750244140625,-0.12746867537498474,-0.3137003779411316,0.19389688968658447
1761468190262978600,4.984978515625,-0.1621694266796112,-0.2525605261325836,0.1547359675168991
1761468190272932600,4.9949326171875,-0.18744175136089325,-0.17220337688922882,0.12003311514854431
1761468190282886700,5.00488671875,-0.20177946984767914,-0.08518421649932861,0.0869695395231247
1761468190292840700,5.0148408203125,-0.211579367518425,-0.007903809659183025,0.04222043976187706
1761468190302795800,5.024795654296875,-0.2229405790567398,0.05864616855978966,-0.011136544868350029
1761468190312749600,5.03474951171875,-0.23251119256019592,0.1056395098567009,-0.04916621744632721
1761468190322703600,5.04470361328125,-0.2263726443052292,0.1307213306427002,-0.06797487288713455
1761468190332657700,5.05465771484375,-0.20962269604206085,0.1529209166765213,-0.07038582861423492
1761468190342611500,5.064611572265625,-0.1914546638727188,0.16287212073802948,-0.06702382117509842
1761468190352565500,5.0745654296875,-0.16249199211597443,0.17336764931678772,-0.057182904332876205
1761468190362519800,5.084519775390625,-0.11963934451341629,0.17679499089717865,-0.020523041486740112
1761468190372474600,5.094474609375,-0.06877563148736954,0.16483713686466217,0.031196612864732742
1761468190382428700,5.1044287109375,-0.013852087780833244,0.16618619859218597,0.10465556383132935
1761468190392382700,5.1143828125,0.051135431975126266,0.1759197860956192,0.1712854653596878
1761468190402336500,5.12433642578125,0.10727962106466293,0.17304721474647522,0.2036566436290741
1761468190412290600,5.13429052734375,0.15218105912208557,0.16842903196811676,0.20189042389392853
1761468190422244600,5.14424462890625,0.18101082742214203,0.16064953804016113,0.17335104942321777
1761468190432198400,5.154198486328125,0.1850593537092209,0.11321677267551422,0.12309986352920532
1761468190442153700,5.16415380859375,0.1761804223060608,0.030900148674845695,0.06203073263168335
1761468190452107800,5.174107666015625,0.16927245259284973,-0.05299821496009827,-0.0015972452238202095
1761468190462061600,5.1840615234375,0.1663084477186203,-0.11821890622377396,-0.050279974937438965
1761468190472015600,5.194015625,0.16606742143630981,-0.15928484499454498,-0.06996579468250275
1761468190481969700,5.2039697265625,0.1672944724559784,-0.14892376959323883,-0.07811686396598816
1761468190491923500,5.21392333984375,0.169993057847023,-0.10869591683149338,-0.08515879511833191
1761468190501877500,5.22387744140625,0.17502067983150482,-0.06927821040153503,-0.09031814336776733
1761468190511832800,5.233832763671875,0.18474388122558594,-0.025033779442310333,-0.09860483556985855
1761468190521786600,5.24378662109375,0.19886738061904907,0.04593896120786667,-0.0988660678267479
1761468190531740700,5.25374072265625,0.2183995395898819,0.14296084642410278,-0.09380819648504257
1761468190541694700,5.26369482421875,0.24114254117012024,0.2221270650625229,-0.08586475998163223
1761468190551648500,5.2736484375,0.26315009593963623,0.26149043440818787,-0.06891454011201859
1761468190561602600,5.2836025390625,0.285128116607666,0.25496745109558105,-0.048816319555044174
1761468190571556600,5.293556640625,0.30391910672187805,0.20889607071876526,-0.030769675970077515
1761468190581511700,5.30351171875,0.31495681405067444,0.14407531917095184,-0.014756047166883945
1761468190591465700,5.3134658203125,0.32491225004196167,0.09647317230701447,-0.0023433188907802105
1761468190601419800,5.323419677734375,0.3418044447898865,0.07102861255407333,0.01153769064694643
1761468190611373600,5.33337353515625,0.363770991563797,0.06818488985300064,0.02878538705408573
1761468190621327600,5.34332763671875,0.40288475155830383,0.1012420579791069,0.05397610366344452
1761468190631281700,5.35328173828125,0.44871455430984497,0.13996975123882294,0.09829802811145782
1761468190641236500,5.363236572265625,0.48656678199768066,0.18522074818611145,0.14994247257709503
1761468190651190500,5.3731904296875,0.5108692049980164,0.2284124195575714,0.20544461905956268
1761468190661144800,5.383144775390625,0.5326307415962219,0.2544761598110199,0.26498132944107056
1761468190671098600,5.3930986328125,0.5523104071617126,0.2781828045845032,0.3122047781944275
1761468190681052700,5.403052734375,0.5796873569488525,0.31335875391960144,0.3386988341808319
1761468190691006700,5.4130068359375,0.6041114330291748,0.3226768970489502,0.31620922684669495
1761468190700960500,5.42296044921875,0.6091855764389038,0.28542134165763855,0.24772092700004578
1761468190710915600,5.43291552734375,0.61359041929245,0.1869427114725113,0.15559792518615723
1761468190720869600,5.44286962890625,0.6100993156433105,0.013783861882984638,0.04403534531593323
1761468190730823400,5.452823486328125,0.5854941010475159,-0.19228781759738922,-0.04615739732980728
1761468190740777700,5.46277783203125,0.5427256226539612,-0.39882799983024597,-0.09951815009117126
1761468190750731800,5.472731689453125,0.5029398798942566,-0.5499205589294434,-0.11366140097379684
1761468190760685600,5.482685546875,0.4690665900707245,-0.5701116323471069,-0.07687142491340637
1761468190770639600,5.4926396484375,0.4457852244377136,-0.43384429812431335,0.025089820846915245
1761468190780594700,5.5025947265625,0.43099087476730347,-0.14287810027599335,0.17944571375846863
1761468190790548500,5.512548583984375,0.43675127625465393,0.2262144535779953,0.3542974293231964
1761468190800502500,5.52250244140625,0.45437753200531006,0.5515162944793701,0.48593074083328247
1761468190810456600,5.53245654296875,0.46325916051864624,0.7833383679389954,0.5593993663787842
1761468190820410600,5.54241064453125,0.4496859610080719,0.8953349590301514,0.5766593813896179
1761468190830364700,5.55236474609375,0.4446517825126648,0.8991443514823914,0.548123300075531
1761468190840318700,5.562318603515625,0.4564216732978821,0.7865815758705139,0.4901691675186157
1761468190850273500,5.5722734375,0.47182461619377136,0.5829698443412781,0.4108884632587433
1761468190860227600,5.5822275390625,0.49612662196159363,0.31494852900505066,0.31179118156433105
1761468190870181600,5.592181640625,0.5233393311500549,0.009406187571585178,0.1842249631881714
1761468190880135400,5.602135498046875,0.5411823391914368,-0.2639111876487732,0.046338651329278946
1761468190890089500,5.61208935546875,0.5481478571891785,-0.43932828307151794,-0.06253829598426819
1761468190900043800,5.622043701171875,0.5466326475143433,-0.5169609785079956,-0.1469244658946991
1761468190909997800,5.631997802734375,0.5352486968040466,-0.5014249086380005,-0.20834948122501373
1761468190919952600,5.64195263671875,0.4935414791107178,-0.41840049624443054,-0.2597960829734802
1761468190929906700,5.65190673828125,0.4365958869457245,-0.30223074555397034,-0.2979099154472351
1761468190939860500,5.661860595703125,0.38300779461860657,-0.1622195541858673,-0.3173869550228119
1761468190949814500,5.671814453125,0.3570654094219208,-0.053835026919841766,-0.32462620735168457
1761468190959768600,5.6817685546875,0.34022435545921326,-0.025441626086831093,-0.3275771737098694
1761468190969722600,5.69172265625,0.33607593178749084,-0.058801449835300446,-0.3302680253982544
1761468190979676700,5.7016767578125,0.3398784101009369,-0.13282059133052826,-0.32886964082717896
1761468190989631700,5.7116318359375,0.35190045833587646,-0.20730015635490417,-0.32682618498802185
1761468190999585500,5.72158544921875,0.36529266834259033,-0.268331915140152,-0.33178722858428955
1761468191009540400,5.731540283203125,0.3835270404815674,-0.31684938073158264,-0.3505704998970032
1761468191019494400,5.741494384765625,0.40081682801246643,-0.32090502977371216,-0.3720248341560364
1761468191029448200,5.7514482421875,0.4156477153301239,-0.2824782729148865,-0.38526394963264465
1761468191039402200,5.76140234375,0.4248904287815094,-0.2045973539352417,-0.37586089968681335
1761468191049356300,5.771356201171875,0.42046505212783813,-0.10382974147796631,-0.3473336398601532
1761468191059311400,5.781311279296875,0.40175408124923706,0.014882072806358337,-0.3042204678058624
1761468191069265400,5.791265380859375,0.37335947155952454,0.1354692131280899,-0.2517697811126709
1761468191079219500,5.801219482421875,0.3366714417934418,0.22822082042694092,-0.20611350238323212
1761468191089173200,5.81117333984375,0.2994218170642853,0.296762079000473,-0.18514536321163177
1761468191099127300,5.821127197265625,0.2549363672733307,0.332520067691803,-0.18450087308883667
1761468191109081300,5.831081298828125,0.20935717225074768,0.32533273100852966,-0.20242927968502045
1761468191119035100,5.84103515625,0.16253024339675903,0.3045962154865265,-0.21503996849060059
1761468191128990500,5.850990478515625,0.12781886756420135,0.25474342703819275,-0.2240627557039261
1761468191138944500,5.860944580078125,0.09002204984426498,0.16491131484508514,-0.23978734016418457
1761468191148898300,5.870898193359375,0.057411640882492065,0.06233647093176842,-0.26489800214767456
1761468191158852400,5.880852294921875,0.02485399693250656,-0.030712492763996124,-0.2842727601528168
1761468191168806400,5.890806396484375,-0.007964403368532658,-0.09888515621423721,-0.29993534088134766
1761468191178760200,5.90076025390625,-0.044157810509204865,-0.13665716350078583,-0.30428093671798706
1761468191188714200,5.91071435546875,-0.07453010231256485,-0.1543882191181183,-0.2993772625923157
1761468191198669300,5.92066943359375,-0.110200896859169,-0.15780885517597198,-0.28751805424690247
1761468191208623400,5.930623291015625,-0.14279507100582123,-0.15791592001914978,-0.2658976912498474
1761468191218577400,5.940577392578125,-0.17034566402435303,-0.15145398676395416,-0.23082435131072998
1761468191228531500,5.950531494140625,-0.19453676044940948,-0.1529110074043274,-0.18796636164188385
1761468191238485200,5.9604853515625,-0.21958070993423462,-0.1504877805709839,-0.13896551728248596
1761468191248439300,5.970439208984375,-0.24730528891086578,-0.14978045225143433,-0.09283985197544098
1761468191258393300,5.980393310546875,-0.28217998147010803,-0.14659994840621948,-0.048645857721567154
1761468191268348200,5.99034814453125,-0.31911614537239075,-0.14071595668792725,-0.010223899967968464
1761468191278302500,6.000302490234375,-0.3564694821834564,-0.12461712956428528,0.017875932157039642
1761468191288256500,6.010256591796875,-0.3934418857097626,-0.12096193432807922,0.02887319028377533
1761468191298210300,6.020210205078125,-0.43060925602912903,-0.14089952409267426,0.030492309480905533
1761468191308164400,6.030164306640625,-0.4669126570224762,-0.16867442429065704,0.02548317052423954
1761468191318118400,6.040118408203125,-0.5118117928504944,-0.18616855144500732,0.027174174785614014
1761468191328072200,6.050072265625,-0.5595790147781372,-0.18041984736919403,0.029390458017587662
1761468191338027300,6.06002734375,-0.6050160527229309,-0.16264480352401733,0.038839682936668396
1761468191347981600,6.069981689453125,-0.6502469182014465,-0.13394443690776825,0.05725624039769173
1761468191357935400,6.079935302734375,-0.6782849431037903,-0.08371371030807495,0.08627168089151382
1761468191367889400,6.089889404296875,-0.690772533416748,-0.03544631972908974,0.12382145971059799
1761468191377843500,6.099843505859375,-0.7034994959831238,-0.00251039769500494,0.1646648496389389
1761468191387797200,6.10979736328125,-0.7130985856056213,0.02399631030857563,0.19913014769554138
1761468191397751300,6.119751220703125,-0.7191396951675415,0.018762381747364998,0.20539574325084686
1761468191407706400,6.129706298828125,-0.7328020334243774,-0.03373517841100693,0.16079792380332947
1761468191417660200,6.13966015625,-0.7571158409118652,-0.10911814123392105,0.06922931969165802
1761468191427614500,6.149614501953125,-0.7931990027427673,-0.20894168317317963,-0.04352865368127823
1761468191437568500,6.159568603515625,-0.8340669274330139,-0.3219725787639618,-0.14790160953998566
1761468191447522300,6.169522216796875,-0.8874087333679199,-0.47038814425468445,-0.2370605170726776
1761468191457476400,6.179476318359375,-0.9340794086456299,-0.5746610760688782,-0.2965222895145416
1761468191467430400,6.189430419921875,-0.9608282446861267,-0.5328608751296997,-0.31074461340904236
1761468191477385200,6.19938525390625,-0.9653837084770203,-0.3534604012966156,-0.27191829681396484
1761468191487339300,6.20933935546875,-0.9449071884155273,-0.058898262679576874,-0.18319827318191528
1761468191497293300,6.219293212890625,-0.8772555589675903,0.2613312602043152,-0.05167876556515694
1761468191507247400,6.229247314453125,-0.7702297568321228,0.5058450698852539,0.0950334444642067
1761468191517201400,6.239201416015625,-0.6481007933616638,0.6275050640106201,0.2241281270980835
1761468191527155500,6.249155517578125,-0.5444121956825256,0.631550133228302,0.3249306380748749
1761468191537109200,6.259109130859375,-0.4542495608329773,0.571948766708374,0.3951583802700043
1761468191547064300,6.269064208984375,-0.37524929642677307,0.45864376425743103,0.43692925572395325
1761468191557018400,6.279018310546875,-0.3091481924057007,0.31196290254592896,0.4489288628101349
1761468191566972200,6.28897216796875,-0.25694596767425537,0.1649835854768753,0.44352132081985474
1761468191576926200,6.29892626953125,-0.2064761370420456,0.038599610328674316,0.428846538066864
1761468191586880500,6.308880615234375,-0.16585548222064972,-0.046256158500909805,0.4079090356826782
1761468191596834300,6.318834228515625,-0.13236121833324432,-0.09166720509529114,0.38514313101768494
1761468191606788400,6.328788330078125,-0.11115419864654541,-0.12252525240182877,0.3640471398830414
1761468191616742400,6.338742431640625,-0.0976780578494072,-0.1739254593849182,0.3373938500881195
1761468191626697200,6.348697265625,-0.09122814983129501,-0.24706092476844788,0.3068460524082184
1761468191636651300,6.3586513671875,-0.10047422349452972,-0.3412472605705261,0.27257150411605835
1761468191646605300,6.368605224609375,-0.1277007907629013,-0.446723610162735,0.2231922447681427
1761468191656559000,6.37855908203125,-0.15831123292446136,-0.5211598873138428,0.17377373576164246
1761468191666513400,6.388513427734375,-0.19603703916072845,-0.5422153472900391,0.12595614790916443
1761468191676467500,6.398467529296875,-0.24399100244045258,-0.4982753396034241,0.08586516231298447
1761468191686421500,6.40842138671875,-0.30639979243278503,-0.42174220085144043,0.04180449619889259
1761468191696376300,6.418376220703125,-0.378126323223114,-0.33292245864868164,-0.00839410163462162
1761468191706330400,6.428330322265625,-0.43600213527679443,-0.2289758324623108,-0.06590612977743149
1761468191716284200,6.4382841796875,-0.470786988735199,-0.12752270698547363,-0.1264440268278122
1761468191726238200,6.44823828125,-0.4965304434299469,-0.0777551457285881,-0.19149546325206757
1761468191736192300,6.458192138671875,-0.5140278339385986,-0.06392081826925278,-0.2566582262516022
1761468191746146600,6.468146484375,-0.5151879191398621,-0.05626103654503822,-0.31285330653190613
1761468191756100400,6.478100341796875,-0.5098596811294556,-0.05884598568081856,-0.363571435213089
1761468191766055400,6.488055419921875,-0.5057011842727661,-0.07459884881973267,-0.41209208965301514
1761468191776009200,6.49800927734375,-0.4993703365325928,-0.08125396817922592,-0.4427582919597626
1761468191785963300,6.50796337890625,-0.5071630477905273,-0.07812821120023727,-0.4568573236465454
1761468191795917300,6.517917236328125,-0.5239636301994324,-0.06634639948606491,-0.45472732186317444
1761468191805871400,6.527871337890625,-0.5256235599517822,-0.010041586123406887,-0.43005314469337463
1761468191815825200,6.5378251953125,-0.5193578004837036,0.07084420323371887,-0.391772598028183
1761468191825779500,6.547779541015625,-0.5259097218513489,0.14393626153469086,-0.3646616041660309
1761468191835734300,6.557734375,-0.5324534773826599,0.20223243534564972,-0.34209227561950684
1761468191845688300,6.567688232421875,-0.5334676504135132,0.24743534624576569,-0.3312359154224396
1761468191855642400,6.577642333984375,-0.5508095622062683,0.2479097545146942,-0.3332619369029999
1761468191865596400,6.587596435546875,-0.5701965689659119,0.19518022239208221,-0.3464539051055908
1761468191875550200,6.59755029296875,-0.5825707912445068,0.1031564250588417,-0.35514768958091736
1761468191885504300,6.607504150390625,-0.5908598899841309,0.00566528458148241,-0.34702399373054504
1761468191895458300,6.617458251953125,-0.6017622947692871,-0.06460818648338318,-0.3276974856853485
1761468191905413400,6.627413330078125,-0.6174299716949463,-0.10742302983999252,-0.30463239550590515
1761468191915367400,6.637367431640625,-0.6400840878486633,-0.12500132620334625,-0.2895084023475647
1761468191925321200,6.6473212890625,-0.6623566150665283,-0.12382366508245468,-0.2818092107772827
1761468191935275300,6.657275146484375,-0.6752489805221558,-0.10754935443401337,-0.2703762650489807
1761468191945229300,6.667229248046875,-0.6895695924758911,-0.08427359163761139,-0.2540383040904999
1761468191955183400,6.677183349609375,-0.7043595910072327,-0.05509153753519058,-0.2257699817419052
1761468191965137200,6.68713720703125,-0.7150478959083557,-0.027987750247120857,-0.19621607661247253
1761468191975092500,6.697092529296875,-0.7178944945335388,-0.0024486477486789227,-0.16621245443820953
1761468191985046300,6.70704638671875,-0.7203035950660706,0.026508435606956482,-0.14577242732048035
1761468191995000300,6.717000244140625,-0.7169612050056458,0.058461759239435196,-0.1273125410079956
1761468192004954000,6.7269541015625,-0.7170009016990662,0.08936960995197296,-0.11126752942800522
1761468192014908400,6.736908447265625,-0.7199472784996033,0.10964106023311615,-0.09628218412399292
1761468192024862200,6.7468623046875,-0.7165290713310242,0.11567684262990952,-0.06406699120998383
1761468192034816300,6.756816162109375,-0.7033147215843201,0.11655356734991074,-0.007737387903034687
1761468192044770300,6.766770263671875,-0.6774599552154541,0.12143567949533463,0.05744747444987297
1761468192054725000,6.77672509765625,-0.6440200209617615,0.12868539988994598,0.10947611182928085
1761468192064679200,6.78667919921875,-0.609019935131073,0.14513148367404938,0.1460450440645218
1761468192074633200,6.79663330078125,-0.5708922743797302,0.16900701820850372,0.16217689216136932
1761468192084587000,6.8065869140625,-0.5421727895736694,0.17722420394420624,0.16418464481830597
1761468192094541300,6.816541259765625,-0.5178736448287964,0.17341671884059906,0.18012797832489014
1761468192104495400,6.826495361328125,-0.492538720369339,0.176411435008049,0.21633417904376984
1761468192114449200,6.83644921875,-0.4646489918231964,0.1455199271440506,0.2573714554309845
1761468192124404200,6.846404296875,-0.43642905354499817,0.08815596252679825,0.2913413941860199
1761468192134358300,6.856358154296875,-0.41343429684638977,0.02202233485877514,0.3205755949020386
1761468192144312000,6.86631201171875,-0.38742029666900635,-0.03277992457151413,0.3484647274017334
1761468192154266000,6.87626611328125,-0.33929339051246643,-0.022552525624632835,0.37246787548065186
1761468192164220200,6.88622021484375,-0.28911063075065613,0.0582275390625,0.3676840364933014
1761468192174174200,6.89617431640625,-0.26055288314819336,0.07743753492832184,0.2862187922000885
1761468192184128300,6.906128173828125,-0.2663425803184509,-0.07526492327451706,0.10760565102100372
1761468192194083300,6.916083251953125,-0.3076581656932831,-0.4072605073451996,-0.12026724964380264
1761468192204037000,6.926037109375,-0.3824860751628876,-0.6979791522026062,-0.29563480615615845
1761468192213991200,6.9359912109375,-0.4778006374835968,-0.8527412414550781,-0.3702658414840698
1761468192223945200,6.9459453125,-0.5748523473739624,-0.8979254961013794,-0.346605509519577
1761468192233899000,6.95589892578125,-0.6541998386383057,-0.7283399701118469,-0.2151561826467514
1761468192243853000,6.96585302734375,-0.7180438041687012,-0.33657485246658325,0.003245652187615633
1761468192253807400,6.975807373046875,-0.7414262294769287,0.2068963497877121,0.25608423352241516
1761468192263761400,6.985761474609375,-0.7058546543121338,0.7291669845581055,0.4613513648509979
1761468192273716200,6.99571630859375,-0.6496304869651794,1.1058363914489746,0.5884292721748352
1761468192283670300,7.005670166015625,-0.6209945678710938,1.2925833463668823,0.6438283324241638
1761468192293624000,7.0156240234375,-0.5822393894195557,1.351172685623169,0.6406464576721191
1761468192303578000,7.025578125,-0.5392959117889404,1.2872350215911865,0.5732695460319519
1761468192313532200,7.0355322265625,-0.4830891788005829,1.1015324592590332,0.4566437900066376
1761468192323486200,7.045486328125,-0.42416247725486755,0.8201231360435486,0.334380179643631
1761468192333440300,7.055440185546875,-0.36955973505973816,0.44415414333343506,0.2189999669790268
1761468192343395300,7.065395263671875,-0.3349554240703583,-0.010765410959720612,0.12058018893003464
1761468192353349000,7.07534912109375,-0.32745036482810974,-0.4539090394973755,0.04899121820926666
1761468192363303200,7.08530322265625,-0.3263414204120636,-0.7972576022148132,0.01002331543713808
1761468192373257200,7.09525732421875,-0.31973156332969666,-1.0140111446380615,-0.008173245005309582
1761468192383211000,7.1052109375,-0.32394173741340637,-1.1105151176452637,-0.010740531608462334
1761468192393165000,7.1151650390625,-0.36677613854408264,-1.0804524421691895,-0.0038825436495244503
1761468192403119400,7.125119384765625,-0.4276126027107239,-0.9403981566429138,0.004788442514836788
1761468192413074200,7.13507421875,-0.49459347128868103,-0.7427171468734741,-0.0007792855612933636
1761468192423028200,7.1450283203125,-0.5799363851547241,-0.5235165953636169,-0.0365854874253273
1761468192432982300,7.154982177734375,-0.6863346695899963,-0.29411518573760986,-0.10396511852741241
1761468192442936000,7.16493603515625,-0.7864525318145752,-0.09240257740020752,-0.18777506053447723
1761468192452890000,7.17489013671875,-0.8589756488800049,0.015331698581576347,-0.2632082402706146
1761468192462844200,7.18484423828125,-0.8983994722366333,0.03946632891893387,-0.3073815405368805
1761468192472798200,7.194798095703125,-0.9101056456565857,0.015292651951313019,-0.31406649947166443
1761468192482753300,7.204753173828125,-0.8936401009559631,-0.05275830253958702,-0.28833797574043274
1761468192492707300,7.214707275390625,-0.8670771718025208,-0.14588959515094757,-0.2358311116695404
1761468192502661000,7.2246611328125,-0.8459367752075195,-0.21734993159770966,-0.15898984670639038
1761468192512615200,7.234615234375,-0.8350708484649658,-0.24180790781974792,-0.07575120776891708
1761468192522569200,7.2445693359375,-0.8377300500869751,-0.22439642250537872,-0.010356216691434383
1761468192532523300,7.254523193359375,-0.8544966578483582,-0.18413056433200836,0.014506460167467594
1761468192542477000,7.26447705078125,-0.8827253580093384,-0.1390046328306198,0.009974026121199131
1761468192552431000,7.27443115234375,-0.9280864000320435,-0.10082390904426575,-0.014502779580652714
1761468192562386200,7.28438623046875,-0.9887800812721252,-0.079593725502491,-0.04838165268301964
1761468192572340200,7.29434033203125,-1.0594210624694824,-0.07582151889801025,-0.08053415268659592
1761468192582294300,7.304294189453125,-1.13700270652771,-0.07356582581996918,-0.10144023597240448
1761468192592248300,7.314248291015625,-1.2116601467132568,-0.06295978277921677,-0.11400263756513596
1761468192602202000,7.3242021484375,-1.282396912574768,-0.05964840576052666,-0.1341550350189209
1761468192612156200,7.33415625,-1.347541332244873,-0.07386001944541931,-0.16664472222328186
1761468192622110200,7.344110107421875,-1.4028900861740112,-0.08203592151403427,-0.20209139585494995
1761468192632065300,7.354065185546875,-1.444347620010376,-0.09316564351320267,-0.23849532008171082
1761468192642019300,7.364019287109375,-1.4832755327224731,-0.1243150383234024,-0.27085432410240173
1761468192651973000,7.37397314453125,-1.518407940864563,-0.1727200746536255,-0.2959745526313782
1761468192661927200,7.38392724609375,-1.54376220703125,-0.21718208491802216,-0.3116634786128998
1761468192671881200,7.393881103515625,-1.5598515272140503,-0.2428852766752243,-0.30736643075942993
1761468192681835300,7.403835205078125,-1.571589469909668,-0.2701498866081238,-0.29742431640625
1761468192691789000,7.4137890625,-1.5830951929092407,-0.30250003933906555,-0.29490378499031067
1761468192701744400,7.423744384765625,-1.6037893295288086,-0.3293244540691376,-0.30368611216545105
1761468192711698200,7.4336982421875,-1.6307483911514282,-0.345322847366333,-0.3214944005012512
1761468192721652200,7.44365234375,-1.6617457866668701,-0.3525407910346985,-0.3381583094596863
1761468192731606300,7.453606201171875,-1.6986465454101562,-0.3496352434158325,-0.349026620388031
1761468192741560300,7.463560302734375,-1.7365835905075073,-0.3379889726638794,-0.34387660026550293
1761468192751514000,7.47351416015625,-1.7696443796157837,-0.35066691040992737,-0.33435896039009094
1761468192761468200,7.48346826171875,-1.7989405393600464,-0.39409828186035156,-0.32085537910461426
1761468192771422200,7.493422119140625,-1.8121267557144165,-0.4115947186946869,-0.28975820541381836
1761468192781377300,7.503377197265625,-1.8191694021224976,-0.39586982131004333,-0.24148280918598175
1761468192791331300,7.513331298828125,-1.8179724216461182,-0.36291560530662537,-0.18688856065273285
1761468192801285400,7.523285400390625,-1.8208904266357422,-0.3441126048564911,-0.14667536318302155
1761468192811239200,7.5332392578125,-1.8342257738113403,-0.34817901253700256,-0.12442944943904877
1761468192821193200,7.543193115234375,-1.8596822023391724,-0.3663574755191803,-0.12050367891788483
1761468192831147300,7.553147216796875,-1.8955649137496948,-0.4062172770500183,-0.1420486718416214
1761468192841101000,7.56310107421875,-1.943921685218811,-0.4595164656639099,-0.17799842357635498
1761468192851056000,7.57305615234375,-2.0004920959472656,-0.4958062767982483,-0.20587210357189178
1761468192861010400,7.583010498046875,-2.0552756786346436,-0.5166489481925964,-0.21707016229629517
1761468192870964200,7.592964111328125,-2.099639654159546,-0.5271044373512268,-0.2131595015525818
1761468192880918300,7.602918212890625,-2.136836290359497,-0.5436647534370422,-0.19602392613887787
1761468192890872300,7.612872314453125,-2.1702792644500732,-0.5307195782661438,-0.1704382300376892
1761468192900826000,7.622826171875,-2.19438099861145,-0.4892789125442505,-0.12717890739440918
1761468192910780200,7.6327802734375,-2.2156598567962646,-0.44433122873306274,-0.07511794567108154
1761468192920734200,7.642734130859375,-2.233776092529297,-0.40680569410324097,-0.016167009249329567
1761468192930689000,7.65268896484375,-2.2484676837921143,-0.3914579749107361,0.033044662326574326
1761468192940643300,7.662643310546875,-2.266451835632324,-0.3818175792694092,0.06808174401521683
1761468192950597400,7.672597412109375,-2.288670301437378,-0.38218337297439575,0.09153634309768677
1761468192960551200,7.68255126953125,-2.306347131729126,-0.3878822922706604,0.11446323245763779
1761468192970505200,7.692505126953125,-2.312023639678955,-0.37454113364219666,0.15394063293933868
1761468192980459300,7.702459228515625,-2.3081417083740234,-0.367575079202652,0.18839502334594727
1761468192990413300,7.712413330078125,-2.312598705291748,-0.4043082892894745,0.200053870677948
1761468193000368000,7.7223681640625,-2.331646203994751,-0.47944673895835876,0.15781506896018982
1761468193010322400,7.732322509765625,-2.3644731044769287,-0.5657806396484375,0.07817868888378143
1761468193020276200,7.742276123046875,-2.4212682247161865,-0.6181056499481201,-0.020558541640639305
1761468193030230300,7.752230224609375,-2.5101804733276367,-0.6436057686805725,-0.13958115875720978
1761468193040184300,7.762184326171875,-2.627394914627075,-0.6544637084007263,-0.2514493465423584
1761468193050138000,7.77213818359375,-2.7550220489501953,-0.6096295118331909,-0.32243701815605164
1761468193060092400,7.782092529296875,-2.8694303035736084,-0.4695405662059784,-0.34103065729141235
1761468193070046500,7.79204638671875,-2.9541678428649902,-0.29157397150993347,-0.31282860040664673
1761468193080001300,7.802001220703125,-2.973933696746826,-0.09268991649150848,-0.23129697144031525
1761468193089955300,7.811955322265625,-2.936802387237549,0.08765558153390884,-0.099612757563591
1761468193099909400,7.821909423828125,-2.8435254096984863,0.22320115566253662,0.05059032514691353
1761468193109863200,7.83186328125,-2.734492778778076,0.26380249857902527,0.17811831831932068
1761468193119817200,7.841817138671875,-2.642260789871216,0.1920127272605896,0.2630710005760193
1761468193129771300,7.851771240234375,-2.5632312297821045,0.08139131218194962,0.3071531653404236
1761468193139725600,7.8617255859375,-2.5038516521453857,-0.019604815170168877,0.31968653202056885
1761468193149680400,7.871680419921875,-2.4647178649902344,-0.09948620200157166,0.3135581910610199
1761468193159634400,7.881634521484375,-2.4478321075439453,-0.15326635539531708,0.28630393743515015
1761468193169588200,7.891588134765625,-2.4401156902313232,-0.1719978302717209,0.24684453010559082
1761468193179542300,7.901542236328125,-2.4526519775390625,-0.15649636089801788,0.1982029527425766
1761468193189496300,7.911496337890625,-2.468937635421753,-0.14602258801460266,0.14268280565738678
1761468193199450400,7.921450439453125,-2.4797275066375732,-0.15354974567890167,0.0954258143901825
1761468193209404200,7.931404052734375,-2.4758927822113037,-0.1933775395154953,0.04234587773680687
1761468193219359500,7.941359375,-2.4643735885620117,-0.2545998692512512,-0.012521900236606598
1761468193229313300,7.951313232421875,-2.4480600357055664,-0.3522668480873108,-0.0667407438158989
1761468193239267300,7.961267333984375,-2.4265167713165283,-0.4598905146121979,-0.12371774017810822
1761468193249221400,7.971221435546875,-2.399508237838745,-0.5444420576095581,-0.1844283938407898
1761468193259175400,7.981175537109375,-2.376513719558716,-0.6200785040855408,-0.24747872352600098
1761468193269129200,7.991129150390625,-2.35122013092041,-0.6733638644218445,-0.3141006827354431
1761468193288414200,8.010414306640625,-2.313479423522949,-0.6608054637908936,-0.38951078057289124
1761468193298369300,8.020369384765624,-2.2911059856414795,-0.5859254002571106,-0.3836915194988251
1761468193308323300,8.0303232421875,-2.257880449295044,-0.48651185631752014,-0.35674843192100525
1761468193318277400,8.04027734375,-2.204845666885376,-0.41707873344421387,-0.32072409987449646
1761468193328231400,8.0502314453125,-2.141441583633423,-0.40542927384376526,-0.29441559314727783
1761468193338185200,8.060185302734375,-2.0792899131774902,-0.44093239307403564,-0.28685539960861206
1761468193348139300,8.07013916015625,-2.024068593978882,-0.5083417892456055,-0.3010880947113037
1761468193358093300,8.08009326171875,-1.9833307266235352,-0.5637030005455017,-0.3200785517692566
1761468193368047400,8.09004736328125,-1.9574143886566162,-0.5893560647964478,-0.33613139390945435
1761468193378002400,8.10000244140625,-1.93754243850708,-0.5526459813117981,-0.3357234001159668
1761468193387956500,8.10995654296875,-1.9171650409698486,-0.47925880551338196,-0.31250831484794617
1761468193397910300,8.11991015625,-1.8996188640594482,-0.3790121078491211,-0.2755018472671509
1761468193407864300,8.1298642578125,-1.8790849447250366,-0.261203795671463,-0.21334882080554962
1761468193417818400,8.139818359375,-1.8528006076812744,-0.16848690807819366,-0.14186851680278778
1761468193427772200,8.149772216796874,-1.8176357746124268,-0.13886341452598572,-0.09211605787277222
1761468193437726200,8.159726318359375,-1.778915286064148,-0.1589931845664978,-0.06740725040435791
1761468193447681500,8.169681640625,-1.743091344833374,-0.2130698263645172,-0.059283893555402756
1761468193457635300,8.17963525390625,-1.709370732307434,-0.2901797890663147,-0.05888388678431511
1761468193467589400,8.18958935546875,-1.685624122619629,-0.3421006202697754,-0.06431339681148529
1761468193477543400,8.19954345703125,-1.6738338470458984,-0.36859002709388733,-0.07214388251304626
1761468193487497200,8.209497314453126,-1.6774678230285645,-0.3714824318885803,-0.08741122484207153
1761468193497451300,8.219451171875,-1.6944012641906738,-0.35656633973121643,-0.11057406663894653
1761468193507405300,8.2294052734375,-1.7115288972854614,-0.3269531726837158,-0.1337631195783615
1761468193517359400,8.239359375,-1.7134603261947632,-0.2785278558731079,-0.1562172919511795
1761468193527314400,8.249314453125,-1.7045071125030518,-0.24142226576805115,-0.17600613832473755
1761468193537268500,8.2592685546875,-1.6867824792861938,-0.21739043295383453,-0.18480682373046875
1761468193547222300,8.26922216796875,-1.6663868427276611,-0.2066129595041275,-0.18378213047981262
1761468193557176300,8.27917626953125,-1.6422138214111328,-0.20219823718070984,-0.17388077080249786
1761468193567130400,8.28913037109375,-1.6153244972229004,-0.19228240847587585,-0.1565144658088684
1761468193577084400,8.29908447265625,-1.58598792552948,-0.1918746829032898,-0.13596710562705994
1761468193587038200,8.3090380859375,-1.562645435333252,-0.1932782530784607,-0.12439390271902084
1761468193596993500,8.31899365234375,-1.5393654108047485,-0.18682967126369476,-0.12386580556631088
1761468193606947300,8.328947265625,-1.5171037912368774,-0.1830710619688034,-0.13952191174030304
1761468193617523500,8.3395234375,-1.4886788129806519,-0.16923834383487701,-0.16083252429962158
1761468193627477500,8.3494775390625,-1.459200382232666,-0.16745227575302124,-0.1811261773109436
1761468193637432300,8.359432373046875,-1.4261928796768188,-0.17250321805477142,-0.18568578362464905
1761468193647386400,8.369386474609374,-1.384804129600525,-0.17823979258537292,-0.1719019114971161
1761468193657340400,8.37934033203125,-1.3433544635772705,-0.1677248328924179,-0.13307781517505646
1761468193667294200,8.389294189453125,-1.2887823581695557,-0.13834238052368164,-0.08943280577659607
1761468193677248300,8.399248291015626,-1.2280654907226562,-0.085921511054039,-0.05851589888334274
1761468193687202300,8.409202392578125,-1.1721875667572021,-0.03437507152557373,-0.03737929090857506
1761468193697156400,8.41915625,-1.1150624752044678,0.01875605620443821,-0.024384664371609688
1761468193707111400,8.429111328125,-1.0647032260894775,0.052693307399749756,-0.012165221385657787
1761468193717065200,8.439065185546875,-1.0235233306884766,0.06496862322092056,-0.011620605364441872
1761468193727019300,8.449019287109374,-0.9875845313072205,0.06280746310949326,-0.012270682491362095
1761468193736973300,8.458973388671875,-0.9477537870407104,0.058166902512311935,-0.002476108493283391
1761468193746927400,8.46892724609375,-0.9072094559669495,0.06076051667332649,0.01181144267320633
1761468193756881200,8.478881103515626,-0.8629575371742249,0.07274287194013596,0.025100616738200188
1761468193766835500,8.48883544921875,-0.8095335960388184,0.08932507038116455,0.0345119833946228
1761468193776790300,8.498790283203125,-0.7598195672035217,0.08590956777334213,0.046673309057950974
1761468193786744300,8.508744384765626,-0.718410074710846,0.05874224752187729,0.06943520158529282
1761468193796698400,8.518698486328125,-0.6903659701347351,0.03384967893362045,0.10683237761259079
1761468193806652400,8.52865234375,-0.6660232543945312,0.021407291293144226,0.15420857071876526
1761468193816606200,8.538606201171875,-0.6414279341697693,0.02047278918325901,0.19532404839992523
1761468193826560300,8.548560302734375,-0.6248318552970886,0.041974812746047974,0.2253415286540985
1761468193836514300,8.558514404296876,-0.6068121194839478,0.07171273231506348,0.24055378139019012
1761468193846468400,8.56846826171875,-0.5854126811027527,0.11337132751941681,0.2396068572998047
1761468193856423400,8.57842333984375,-0.5511447191238403,0.13682445883750916,0.22556054592132568
1761468193866377500,8.58837744140625,-0.5088790059089661,0.11548863351345062,0.18050074577331543
1761468193876331300,8.598331298828125,-0.4797186851501465,0.03446382284164429,0.1086590588092804
1761468193886285300,8.608285400390624,-0.4475036859512329,-0.0753207802772522,0.03476320207118988
1761468193896239400,8.6182392578125,-0.40777838230133057,-0.15772350132465363,-0.025810930877923965
1761468193906193200,8.628193115234374,-0.36003267765045166,-0.21449996531009674,-0.036594048142433167
1761468193916147200,8.638147216796876,-0.31220123171806335,-0.2755902111530304,0.002535776700824499
1761468193926102300,8.648102294921875,-0.28123190999031067,-0.32439759373664856,0.08434207737445831
1761468193936056300,8.658056396484374,-0.2553321123123169,-0.3067903518676758,0.20001089572906494
1761468193946010400,8.66801025390625,-0.22159884870052338,-0.2310613989830017,0.326183557510376
1761468193955964400,8.67796435546875,-0.2045988291501999,-0.13591410219669342,0.4340309500694275
1761468193965918200,8.687918212890626,-0.18488331139087677,-0.03979843482375145,0.5057070851325989
1761468193975872300,8.697872314453125,-0.1734708696603775,0.03102167882025242,0.5374830961227417
1761468193985826300,8.707826416015624,-0.1900215744972229,0.04631124436855316,0.5227774977684021
1761468193995781400,8.717781494140626,-0.21973393857479095,-0.009718735702335835,0.46371522545814514
1761468194005735400,8.7277353515625,-0.25733816623687744,-0.08885424584150314,0.3836606442928314
1761468194015688700,8.737688720703124,-0.30237194895744324,-0.16228479146957397,0.28422752022743225
1761468194025642800,8.747642822265625,-0.3401679992675781,-0.244147390127182,0.18464000523090363
1761468194035596500,8.757596435546875,-0.3651207685470581,-0.2937711477279663,0.09728565812110901
1761468194045550600,8.767550537109376,-0.3882926404476166,-0.2866080403327942,0.013118870556354523
1761468194055504600,8.777504638671875,-0.4019607901573181,-0.24065756797790527,-0.0645732581615448
1761468194065458400,8.78745849609375,-0.402300626039505,-0.143763467669487,-0.08999175578355789
1761468194075413800,8.797413818359376,-0.3914218842983246,-0.02239176444709301,-0.06622330844402313
1761468194085367600,8.807367431640625,-0.36592477560043335,0.0754106268286705,0.0016038748435676098
1761468194095321600,8.817321533203126,-0.3094497621059418,0.09527221322059631,0.08071201294660568
1761468194105275600,8.827275634765625,-0.23792265355587006,0.04425555467605591,0.1415073722600937
1761468194115229700,8.837229736328124,-0.17724625766277313,-0.016008585691452026,0.16334421932697296
1761468194125183500,8.84718359375,-0.13926829397678375,-0.05159423500299454,0.13520850241184235
1761468194135137500,8.857137451171875,-0.11041267961263657,-0.08118967711925507,0.0637044906616211
1761468194145092600,8.867092529296874,-0.09611440449953079,-0.09597347676753998,-0.03696838766336441
1761468194155046700,8.877046630859375,-0.08276211470365524,-0.08752939105033875,-0.13940927386283875
1761468194165000700,8.887000732421875,-0.07240431755781174,-0.054120056331157684,-0.23158343136310577
1761468194174954800,8.896954833984376,-0.07333482801914215,-0.042380839586257935,-0.3113269805908203
1761468194184908500,8.906908447265625,-0.082883320748806,-0.05083504691720009,-0.35919490456581116
1761468194194862600,8.916862548828124,-0.10270203649997711,-0.02364843152463436,-0.37752199172973633
1761468194204816600,8.926816650390625,-0.13191279768943787,0.014088557101786137,-0.3553408086299896
1761468194214771500,8.936771484375,-0.14358091354370117,0.02322692796587944,-0.30675753951072693
1761468194224725800,8.946725830078124,-0.14539285004138947,0.014459903351962566,-0.2381237894296646
1761468194234679800,8.9566796875,-0.1334182173013687,0.02841593325138092,-0.16073845326900482
1761468194244633600,8.966633544921875,-0.1220264658331871,0.007001890335232019,-0.11772770434617996
1761468194254587600,8.976587646484376,-0.12134416401386261,-0.0838843360543251,-0.10944820195436478
1761468194264541700,8.986541748046875,-0.12880371510982513,-0.14663542807102203,-0.09318915009498596
1761468194274495500,8.99649560546875,-0.13972319662570953,-0.14850389957427979,-0.08198337256908417
1761468194284450600,9.006450439453126,-0.15263178944587708,-0.11050277948379517,-0.09361878037452698
1761468194294404600,9.016404541015625,-0.1604689359664917,-0.036657847464084625,-0.11684367805719376
1761468194304358700,9.026358642578124,-0.1615496277809143,0.04388148710131645,-0.13267746567726135
1761468194314312700,9.036312744140625,-0.15781481564044952,0.09024978429079056,-0.1435232162475586
1761468194324266800,9.046266845703125,-0.15105439722537994,0.12109582871198654,-0.1324433982372284
1761468194334220500,9.056220458984376,-0.1408989578485489,0.13384971022605896,-0.10463601350784302
1761468194344174600,9.066174560546875,-0.12845385074615479,0.12139292061328888,-0.08256090432405472
1761468194354128600,9.076128662109374,-0.13358603417873383,0.10602142661809921,-0.07460284233093262
1761468194364083500,9.08608349609375,-0.16184969246387482,0.09571735560894012,-0.08797461539506912
1761468194374037800,9.096037841796875,-0.22023257613182068,0.09946335852146149,-0.1198987290263176
1761468194383991800,9.10599169921875,-0.2870883345603943,0.1367117166519165,-0.13366268575191498
1761468194393945600,9.115945556640625,-0.3588424026966095,0.16197845339775085,-0.1304706186056137
1761468194403899600,9.125899658203124,-0.40912872552871704,0.1540762037038803,-0.1106158122420311
1761468194413853700,9.135853759765626,-0.4371957778930664,0.1452195942401886,-0.10328333079814911
1761468194423807700,9.145807861328125,-0.439396470785141,0.14456887543201447,-0.11103245615959167
1761468194433762600,9.155762451171874,-0.4227099120616913,0.1414729505777359,-0.12570033967494965
1761468194443716600,9.165716552734375,-0.3901991844177246,0.12410619854927063,-0.1307947039604187
1761468194453670700,9.175670654296875,-0.35166698694229126,0.10837011784315109,-0.12741781771183014
1761468194463624700,9.185624755859376,-0.3129163980484009,0.11750321835279465,-0.11369555443525314
1761468194473578800,9.195578857421875,-0.29159167408943176,0.12403568625450134,-0.10284982621669769
1761468194483532500,9.205532470703124,-0.31197068095207214,0.14774516224861145,0.017633605748414993
1761468194493486600,9.215486572265625,-0.37644314765930176,0.0491352416574955,0.09102579951286316
1761468194503440600,9.225440673828125,-0.4499610960483551,0.004808688070625067,0.11958809942007065
1761468194513395500,9.2353955078125,-0.5115089416503906,-0.03300553932785988,0.10082053393125534
1761468194523349500,9.245349609375,-0.5491787791252136,-0.028706612065434456,0.064914770424366
1761468194533303800,9.2553037109375,-0.546449601650238,-0.009610682725906372,0.017619961872696877
1761468194543257600,9.265257568359376,-0.5031939148902893,-0.010617170482873917,-0.03659568727016449
1761468194553211600,9.275211669921875,-0.44248339533805847,-0.007900213822722435,-0.08665832132101059
1761468194563165700,9.285165771484374,-0.36343905329704285,0.07086783647537231,-0.0859890729188919
1761468194573119700,9.29511962890625,-0.3115130066871643,0.1546410322189331,-0.04202906787395477
