time,seconds_elapsed,z,y,x
1761507013676153000,0.079153076171875,-0.25495149714648724,-0.21134236478358506,-0.10484765498130581
1761507013686125000,0.089125,-0.1498258198082447,-0.08880363422110676,-0.014782850851118563
1761507013696096300,0.09909619140625,-0.19344108965098858,-0.13868848585262894,0.024703986550541592
1761507013706068000,0.10906787109375,-0.22861937053799627,-0.07996931651085615,0.03835777857280336
1761507013716040200,0.119040283203125,-0.2309761627972126,-0.07072086504176259,0.08764602515120058
1761507013726011100,0.12901123046875,-0.17507073570191858,-0.09934168710932136,0.1488381604777649
1761507013735983000,0.138983154296875,-0.05240414097607136,-0.12633724606260657,0.1978916027864441
1761507013745955000,0.148955078125,0.0940203459560871,-0.1788223433203995,0.22747692250460386
1761507013755926000,0.158926025390625,0.20232523785233497,-0.23755729475319384,0.25538267337167636
1761507013765898000,0.16889794921875,0.28705402384996415,-0.27910028836652634,0.2751930517949164
1761507013775869200,0.178869140625,0.2891197242081165,-0.2956519024558365,0.29445087436931205
1761507013785841000,0.1888408203125,0.2429360651820898,-0.29776041904240846,0.3190949565593153
1761507013795813000,0.198813232421875,0.1524748730123043,-0.27190394712164995,0.3285358618605882
1761507013805784000,0.2087841796875,0.10537994436025619,-0.2725302623264491,0.31690994067043066
1761507013815756000,0.218756103515625,0.11754092227518557,-0.2919016100116074,0.29165548976343125
1761507013825728300,0.228728271484375,0.17041501885056495,-0.325137670789659,0.304999795711413
1761507013835699200,0.23869921875,0.21784955472052095,-0.38497459211498497,0.28500195015836505
1761507013845671200,0.248671142578125,0.24750059661865234,-0.4086481670387089,0.2509636330867186
1761507013855642000,0.25864208984375,0.1950081928372383,-0.4378239926405251,0.2174096654659137
1761507013865614000,0.268614013671875,0.08790916959941386,-0.435739003060013,0.19139003887269646
1761507013875586000,0.2785859375,0.00847965905368328,-0.3890221139401197,0.21212726808357982
1761507013885557500,0.2885576171875,-0.07985211987197399,-0.35405455319434403,0.22601601963918655
1761507013895529200,0.298529296875,-0.10276596246957778,-0.31576500841900706,0.20810807730378583
1761507013905501400,0.30850146484375,-0.1341103642821312,-0.3023325492635369,0.17627709755068643
1761507013915472400,0.318472412109375,-0.12428688940405845,-0.2895408722296357,0.1167094033544883
1761507013925444400,0.3284443359375,-0.11116788011193275,-0.28406214855760337,0.07198837336008436
1761507013935415300,0.338415283203125,-0.1218318974673748,-0.2778312913440168,0.0016607705357833764
1761507013945387300,0.34838720703125,-0.14777005632221699,-0.25585224537849427,-0.037092156250891274
1761507013955359200,0.358359130859375,-0.1330389356583357,-0.2297793542280793,-0.0012737964952131732
1761507013965330400,0.368330322265625,-0.08408931905031204,-0.19258286538645625,0.06619871600877959
1761507013975302100,0.37830224609375,0.03248655758500099,-0.1550727805510163,0.12095407345322891
1761507013985274400,0.3882744140625,0.1472948400259018,-0.20845438825711607,0.1411179049566388
1761507013995245300,0.398245361328125,0.1314122112393379,-0.23562457312494514,0.004869939557346515
1761507014005217300,0.40821728515625,0.1330687462747097,-0.23993198799528181,-0.024999553697323425
1761507014015188200,0.418188232421875,0.19445348156392572,-0.21600166183151304,0.02946430542068556
1761507014025160200,0.42816015625,0.20991233198046683,-0.1964765848893672,0.06307239611521363
1761507014035132400,0.43813232421875,0.24918869583606718,-0.16153963847756383,0.1039511719324626
1761507014045103400,0.448103271484375,0.3682517131119966,-0.1596295670725405,0.15901764571927487
1761507014055075300,0.458075439453125,0.46051147913634777,-0.17622151317223905,0.16398167960112914
1761507014065047300,0.46804736328125,0.49071255613267417,-0.19801080871932208,0.14166824144893325
1761507014075018500,0.4780185546875,0.47784255316555496,-0.23785021328516304,0.13532857183231972
1761507014084990200,0.487990234375,0.44988545570373534,-0.23668453050665555,0.1485037956905551
1761507014094962400,0.49796240234375,0.45231063702404495,-0.2829148051533848,0.17571992032565176
1761507014104933400,0.507933349609375,0.5330792872190475,-0.34625564294643696,0.1973542993056588
1761507014114905300,0.5179052734375,0.6639782882392407,-0.396265216936171,0.2372997397955507
1761507014124876300,0.527876220703125,0.7620686601132154,-0.4616466937113553,0.26171949344407763
1761507014134848300,0.53784814453125,0.7676052514523267,-0.4970429281979799,0.2733431313456036
1761507014144820200,0.5478203125,0.6770715785682201,-0.49083581718616187,0.2315483549282886
1761507014154791400,0.55779150390625,0.526470682734251,-0.4858326020713895,0.14429036098029463
1761507014164763100,0.56776318359375,0.311193024328351,-0.46997561918273567,0.07828109856243246
1761507014174735400,0.5777353515625,0.0025561142235994336,-0.4174560351334512,0.024949650140991434
1761507014184706300,0.587706298828125,-0.32417350193262096,-0.35796756191961465,0.007497507015382871
1761507014194678300,0.59767822265625,-0.6238356629431248,-0.2859608217857778,0.017612786180572583
1761507014204649200,0.607649169921875,-0.8279244033366441,-0.24077201901599762,0.030397549416497346
1761507014214621200,0.61762109375,-0.931661841186881,-0.21608254504799843,0.0645879426441621
1761507014224593400,0.627593505859375,-0.9343775298863649,-0.21650332774333655,0.11011250757379457
1761507014234564400,0.637564453125,-0.8258423363655805,-0.2506628600418567,0.17101112158019094
1761507014244536300,0.647536376953125,-0.6392664563089608,-0.32824666965566573,0.21786003958191721
1761507014254508300,0.65750830078125,-0.47454526518583295,-0.41409591105058785,0.22217293434496968
1761507014264479500,0.6674794921875,-0.31464111895561214,-0.5243864968713373,0.19625581827815622
1761507014274451200,0.677451171875,-0.18964929615259168,-0.6276973068073392,0.18504300793353468
1761507014284423400,0.68742333984375,-0.07476911751925945,-0.6959300813604146,0.1793973667293787
1761507014294394400,0.697394287109375,-0.00006897358298301697,-0.7415631207663566,0.19457383827427402
1761507014304366300,0.707366455078125,0.11099778424203395,-0.7710068765893578,0.21239665960948914
1761507014314337300,0.717337158203125,0.19046061253547666,-0.8159384166624396,0.2045458730438724
1761507014324309200,0.727309326171875,0.2660024679929018,-0.8737485083352774,0.1722423986745067
1761507014334281200,0.73728125,0.2937561518371105,-0.9122956080682575,0.11713418637150898
1761507014344252400,0.74725244140625,0.28901684835553165,-0.9386683589480816,0.043490072560496626
1761507014354224000,0.75722412109375,0.2842892353117466,-0.9496823587849735,0.022635244851931927
1761507014364196400,0.7671962890625,0.23463234721720216,-0.935905616236478,0.050660859239008274
1761507014374167300,0.777167236328125,0.16707856790423392,-0.8786109998051077,0.10930855251345784
1761507014384139300,0.78713916015625,0.08648995045125484,-0.8316310027696192,0.175483298558183
1761507014394110200,0.797110107421875,-0.027651392513513562,-0.7640810228489339,0.23996406363397835
1761507014404082200,0.807082275390625,-0.1346188983261585,-0.7188266074970364,0.2853452837033197
1761507014414054400,0.817054443359375,-0.19308102416694164,-0.6900982334017753,0.29477992366058753
1761507014424025300,0.827025390625,-0.20174539213776588,-0.6839640414956957,0.2797310057518072
1761507014433997300,0.836997314453125,-0.14595160872340202,-0.7069875550128519,0.2516723841442726
1761507014443969300,0.84696923828125,-0.054337739387154575,-0.7318700673349201,0.2529890014344826
1761507014453940500,0.8569404296875,0.053119595769047734,-0.773607268346101,0.2522366304309107
1761507014463912200,0.866912109375,0.15346797570288181,-0.8321452359020709,0.24391733130440116
1761507014473884400,0.876884521484375,0.26100188322663304,-0.8847601700846105,0.25284990349104625
1761507014483855400,0.88685546875,0.37416006037294863,-0.9416700980473309,0.2575003231127746
1761507014493827300,0.896827392578125,0.45891281176805493,-1.0011880165513605,0.26588472336474805
1761507014503798300,0.90679833984375,0.45331250754296776,-1.035872668702528,0.26958894817754625
1761507014513770200,0.916770263671875,0.42031741591393945,-1.038263363231346,0.2699665493182838
1761507014523742200,0.9267421875,0.37121290100514887,-1.0275243078783154,0.3059242353462614
1761507014533713400,0.93671337890625,0.27085283063352106,-1.00841804087013,0.3340782618859783
1761507014543685000,0.94668505859375,0.1973386816114187,-0.9928806453246622,0.39844183032289143
1761507014553657300,0.9566572265625,0.1557470265507698,-0.9900104967158287,0.4459811052089557
1761507014563628500,0.966628662109375,0.12615619040727616,-1.0087778140932322,0.47771439674124117
1761507014573600300,0.976600341796875,0.10348550891578197,-1.0303162766844034,0.47864795126430687
1761507014583572500,0.986572509765625,0.0739911188840866,-1.0490904621940105,0.43147805767990643
1761507014593543200,0.996543212890625,0.056817865765094754,-1.0413318108912557,0.38939898442849513
1761507014603515400,1.006515380859375,0.06441606580913066,-1.0406694014597684,0.34054676378034054
1761507014613486300,1.016486328125,0.041615620458126064,-1.022314902666956,0.2541725851958617
1761507014623458300,1.026458251953125,0.0004664484679698944,-0.9743399032447486,0.16972718271687626
1761507014633430300,1.03643017578125,-0.13721300647258758,-0.8673550079058855,0.07737976580853574
1761507014643401500,1.0464013671875,-0.36029461662769313,-0.7338052731812,0.016408534090500325
1761507014653373200,1.056373291015625,-0.4877490301519632,-0.5938190756682307,0.015960863388236612
1761507014663345400,1.066345458984375,-0.5394874006956816,-0.5193270945899188,0.055292144902003924
1761507014673316400,1.07631640625,-0.5192033220797777,-0.4861133187089115,0.12264290332300588
1761507014683288300,1.086288330078125,-0.3778735279381275,-0.5172462697278708,0.216344410854578
1761507014693259300,1.09625927734375,-0.12745733613371849,-0.5691208338718861,0.3127517250124365
1761507014703231200,1.106231201171875,0.06153904906809329,-0.5728092400610446,0.3465991956871003
1761507014713203500,1.116203369140625,0.04273907153010368,-0.5426742140382528,0.27765452827131376
1761507014723174400,1.12617431640625,-0.09722352591156959,-0.4734425646409392,0.16474493732489645
1761507014733146400,1.136146484375,-0.34732056876420975,-0.39586555009409785,0.021519502162374554
1761507014743118300,1.146118408203125,-0.6889613383263349,-0.2513225660596043,-0.13442925750557333
1761507014753089500,1.156089599609375,-0.9344435808598994,-0.09690035837180912,-0.25536566743794825
1761507014763061200,1.166061279296875,-0.9344038333714008,-0.003452551606670022,-0.30253287587491795
1761507014773032400,1.176032470703125,-0.7361240715175866,0.05026815186068415,-0.2808969990575686
1761507014783004200,1.186004150390625,-0.5329933625012636,0.08614902805909513,-0.1853028096471913
1761507014792976400,1.195976318359375,-0.40640228780806065,0.11052227568477392,-0.1643800860678777
1761507014802947300,1.205947265625,-0.15583879648745058,0.0837752115998417,-0.19632702035084365
1761507014812919300,1.215919189453125,0.16025135223269463,0.051241892263665795,-0.16465221754014492
1761507014822891300,1.225891357421875,0.2957072859048843,0.03136274118684232,-0.1921829793486744
1761507014832862500,1.235862548828125,0.2056745482802391,0.08044007582776248,-0.24453834927957505
1761507014842834200,1.245834228515625,-0.11206687477827071,0.12322788187041878,-0.33700682615116234
1761507014852806400,1.255806396484375,-0.4501140037626028,0.1636765774410218,-0.46701541767027227
1761507014862777300,1.26577734375,-0.6993617363095284,0.20865144519917667,-0.5510244380259887
1761507014872749300,1.275749267578125,-0.7942179485678672,0.2565088095910847,-0.5392588891694322
1761507014882720300,1.28572021484375,-0.7434148130476474,0.2725162338010967,-0.4685044141190126
1761507014892692000,1.29569189453125,-0.5120861835509538,0.2714026465360075,-0.3237057748230174
1761507014902664200,1.305664306640625,-0.2568845110356808,0.24385931750684975,-0.13757146452143787
1761507014912635100,1.31563525390625,-0.06646890668570996,0.21823775032050907,0.017463851829711347
1761507014922607000,1.325607177734375,0.06594108341932296,0.19918547852188348,0.09584810937251895
1761507014932579000,1.3355791015625,0.23547990395724772,0.15357501627393066,0.18430605369480327
1761507014942550300,1.34555029296875,0.43198622639775275,0.1122781063761562,0.28589122714828696
1761507014952522000,1.35552197265625,0.6165466749787331,0.08530592829845846,0.3568144463617354
1761507014962493200,1.3654931640625,0.7654080336689949,0.0381526205226779,0.3856721093924716
1761507014972465200,1.375465087890625,0.7892132721483707,-0.02129683585502207,0.33566648092549295
1761507014982437000,1.38543701171875,0.7324421681344508,-0.042844139339774844,0.270711759928707
1761507014992408000,1.395407958984375,0.589828763923049,-0.03342698024027049,0.20422049528071656
1761507015002380000,1.405380126953125,0.39661446876525874,0.005069266088306904,0.13835655048452317
1761507015012352300,1.415352294921875,0.186646022683382,0.051883624233305455,0.06776636261772365
1761507015022323200,1.4253232421875,-0.006571779605746269,0.11739311130233109,-0.02611088507324457
1761507015032295200,1.435295166015625,-0.16030279015898705,0.17024236569739878,-0.10049240978071465
1761507015042266000,1.44526611328125,-0.315290522775054,0.21775310860872268,-0.10736256954483687
1761507015052238300,1.45523828125,-0.41528877409696574,0.2745835415944457,-0.06229220552295446
1761507015062210000,1.4652099609375,-0.41412206840515137,0.3019672230824828,0.016788345454633233
1761507015072181200,1.47518115234375,-0.40234044519662854,0.2961628476526588,0.07583228977136314
1761507015082153000,1.485153076171875,-0.36216450215280055,0.26126163014136256,0.10096534278839826
1761507015092125200,1.495125244140625,-0.2786602895140648,0.2098547565743327,0.08183584103509783
1761507015102096100,1.50509619140625,-0.19297814831435678,0.1581003847438842,0.05835026296414435
1761507015112068000,1.515068115234375,-0.12477554970383643,0.13291121762543917,0.06802238320540636
1761507015122039000,1.5250390625,-0.05111936186254024,0.11175298652350901,0.12709058518055827
1761507015132011300,1.53501123046875,0.11348434036076069,0.0966118968192488,0.2582078320613131
1761507015141983000,1.54498291015625,0.3417757941186428,0.050804377629235384,0.38728188267666847
1761507015151954200,1.5549541015625,0.559434794703126,-0.02164996014162898,0.4681737208599224
1761507015161926100,1.564926025390625,0.6892337255269289,-0.08425678457170724,0.5225622405862436
1761507015171898000,1.574898193359375,0.7079793425291776,-0.12305574017390608,0.5360324379362166
1761507015181869300,1.584869384765625,0.6835697084158658,-0.151986797234416,0.5102350392589345
1761507015191841000,1.594841064453125,0.6619844840735196,-0.1786379266642034,0.4813729192487895
1761507015201813200,1.604813232421875,0.6158277130544185,-0.18416984182819723,0.46843832661285995
1761507015211784200,1.6147841796875,0.5477852734416723,-0.18404563092663884,0.4659518800919875
1761507015221756200,1.624756103515625,0.4590986897289753,-0.1759902616996318,0.4745989681344479
1761507015231727000,1.63472705078125,0.3772767310887575,-0.17065153102017938,0.4783105725361034
1761507015241699300,1.64469921875,0.3301373787730932,-0.17218378208875654,0.4635619162155315
1761507015251671000,1.654671142578125,0.3169476423323154,-0.18608663523495197,0.4479912394549697
1761507015261642200,1.664642333984375,0.31095044774413105,-0.20588841022662818,0.4242481064263731
1761507015271614000,1.674614013671875,0.3479968605905771,-0.22839951724223792,0.41105811425726857
1761507015281586200,1.684586181640625,0.36419045502245423,-0.24959559613652527,0.4295382121911272
1761507015291557000,1.69455712890625,0.32467969788908957,-0.237871694464609,0.4526171456899494
1761507015301529000,1.704529052734375,0.2761246335566044,-0.21680369892939924,0.4507569413086399
1761507015311500000,1.7145,0.2843190459281206,-0.2281294681292027,0.46246275933459396
1761507015321472300,1.72447216796875,0.27691666071712967,-0.2438393706973642,0.47082478335797784
1761507015331444200,1.7344443359375,0.2935392942160368,-0.2725117768216878,0.4541397156147286
1761507015341415200,1.744415283203125,0.3326782954275608,-0.3071774320114404,0.4557553706504404
1761507015351387100,1.75438720703125,0.32539924433529377,-0.32919461803026495,0.4697113422233611
1761507015361359000,1.764359130859375,0.22128888151943682,-0.30524047259949144,0.49273006996754554
1761507015371330300,1.774330322265625,0.03766775961518287,-0.2532690239522606,0.5092484028417616
1761507015381302000,1.784302001953125,-0.12764730574786662,-0.20090616483464835,0.4926622288957238
1761507015391274200,1.794274169921875,-0.27219547741413114,-0.18637641196176408,0.46084556992892173
1761507015401245200,1.8042451171875,-0.33035423639416694,-0.18833251446560023,0.38889399404842406
1761507015411217200,1.814217041015625,-0.2911193735927343,-0.21836554141864178,0.32594690481331196
1761507015421188000,1.82418798828125,-0.2565858203500509,-0.2788827000930905,0.24076821962371467
1761507015431160300,1.834160400390625,-0.26762100910544395,-0.30762554110512136,0.16348974963203072
1761507015441132000,1.844132080078125,-0.3326677740335464,-0.30606662122532724,0.10925817403309046
1761507015451103200,1.854103271484375,-0.3945779945015907,-0.28497765596732494,0.07512220527324825
1761507015461075000,1.864074951171875,-0.4275163875073194,-0.2634203425452113,0.05603223181273788
1761507015471046100,1.874046142578125,-0.4307189829409122,-0.24531748042590915,0.0660614583959803
1761507015481018000,1.88401806640625,-0.45445174070596694,-0.22576675758585332,0.08819123794380575
1761507015490990000,1.893989990234375,-0.44152796172499653,-0.19727058481127022,0.11168982162680476
1761507015500961000,1.9039609375,-0.4644149163156748,-0.15454700311124323,0.13172149638421832
1761507015510933200,1.913933349609375,-0.5429840106397867,-0.16119184795320032,0.09927969125639646
1761507015520905200,1.9239052734375,-0.5760977602124214,-0.16294548668749628,0.11078454335015267
1761507015530876200,1.933876220703125,-0.37317338742315764,-0.2579414727427065,0.1867686626823619
1761507015540848000,1.94384814453125,0.04592471582889557,-0.37434739963859315,0.22197730217501518
1761507015550820000,1.953820068359375,0.38565643689930434,-0.41645182652696966,0.19203111325521022
1761507015560791300,1.963791259765625,0.4859405194252729,-0.4539359001383185,0.09866846402287482
1761507015570763000,1.973762939453125,0.28227088122665883,-0.42916020919159054,0.038953013652749356
1761507015580734200,1.983734130859375,-0.12652268563210964,-0.26698095763623714,-0.10562818350028245
1761507015590706200,1.9937060546875,-0.6005652619928121,-0.06358312211632729,-0.22802217182982712
1761507015600678100,2.00367822265625,-0.9564940846264361,0.20565109433941542,-0.24913985172566025
1761507015610649000,2.013649169921875,-1.2175947520524262,0.40462088428400456,-0.20200630809627473
1761507015620621300,2.023621337890625,-1.336832541373372,0.5905124353382736,-0.1405325428167358
1761507015630593000,2.033593017578125,-1.2328443436324596,0.6555629265934229,-0.03614540888611227
1761507015640564200,2.043564208984375,-0.8964479044646024,0.602704612109065,0.04211398016801104
1761507015650536000,2.053535888671875,-0.47943303722739217,0.4910759095523506,0.17242524442812426
1761507015660507100,2.063507080078125,-0.09326981984972953,0.40551417986191807,0.2750337147810496
1761507015670479000,2.07347900390625,0.2276736141204834,0.32020532895401116,0.36294480234291404
1761507015680451000,2.083451171875,0.42870822764039035,0.283777486397326,0.4189162804117426
1761507015690422000,2.093422119140625,0.5612164174228906,0.274033652626723,0.43657486936226486
1761507015700394200,2.103394287109375,0.6476859096080064,0.30735519973114134,0.42892932304516435
1761507015710366200,2.1133662109375,0.5787994203865527,0.2966409134931862,0.3125081255149096
1761507015720337200,2.123337158203125,0.5051999311685562,0.3225999690055847,0.14091209845254196
1761507015730309000,2.13330908203125,0.38887306085824963,0.31043241521939635,-0.024771142635773867
1761507015740280000,2.143280029296875,0.2631307119488716,0.3134431413426995,-0.21405938692362977
1761507015750252300,2.153252197265625,0.15237199715971947,0.3470509580425918,-0.37372875628359614
1761507015760224000,2.16322412109375,0.07088964573740959,0.364083633647114,-0.5194704485833644
1761507015770195200,2.1731953125,0.06644260320067405,0.3516946921952069,-0.6071493165582418
1761507015780167200,2.183167236328125,0.11835282317996024,0.3321766295157373,-0.6737441877111792
1761507015790139100,2.19313916015625,0.15508359420597553,0.3315305866971612,-0.7148482053853571
1761507015800110000,2.203110107421875,0.2101490633457899,0.31099238718971606,-0.7567686540089548
1761507015810082300,2.213082275390625,0.27125498169362544,0.31069048163369295,-0.7295317605804652
1761507015820053000,2.223052978515625,0.30770109055936334,0.34483123616650696,-0.644708355101943
1761507015830025200,2.233025146484375,0.26525544901788234,0.3977263755299151,-0.5477494349433109
1761507015839997000,2.242996826171875,0.15385668275952338,0.4699971003621816,-0.4714963259439915
1761507015849968000,2.252968017578125,0.03856500071585178,0.5166035148449242,-0.4258339143130928
1761507015859940000,2.262940185546875,-0.022450316739082335,0.536611699128896,-0.4020391241624951
1761507015869912000,2.272912109375,-0.1028174003958702,0.5428367111235857,-0.41571679025068875
1761507015879883000,2.282883056640625,-0.17942951543331145,0.560123799880594,-0.44378618898056443
1761507015889855500,2.29285546875,-0.25525778661668297,0.5805998939372599,-0.4959942959278822
1761507015899827200,2.3028271484375,-0.26309388706982134,0.588625817874074,-0.5353385373879224
1761507015909798400,2.31279833984375,-0.25444354762434956,0.5726781610272824,-0.5178867595884948
1761507015919770400,2.322770263671875,-0.2019184106171131,0.548691136240214,-0.5076408945798874
1761507015929741300,2.3327412109375,-0.09477145658433436,0.4980697870276868,-0.4756057340241968
1761507015939713300,2.34271337890625,-0.027327567386627196,0.4419260211318731,-0.41860403612479563
1761507015949685200,2.352685302734375,0.05349836595356464,0.40806525258421894,-0.3662308017436415
1761507015959656200,2.36265625,0.1286672964453697,0.3759906368009746,-0.2914660864048637
1761507015969628400,2.37262841796875,0.2189981402337551,0.3472381511777639,-0.24390454488806426
1761507015979600100,2.38260009765625,0.325777429997921,0.295014042943716,-0.18424973866399377
1761507015989571300,2.3925712890625,0.465302220544219,0.22424320128038525,-0.13502305868025868
1761507015999543300,2.402543212890625,0.6175608204573393,0.12968626422956586,-0.0838889559063129
1761507016009514200,2.41251416015625,0.7677817770630121,0.029924305881559848,-0.0833889887612313
1761507016019486200,2.422486328125,0.8620154735088348,-0.08838920820131897,-0.12660322178872302
1761507016029458200,2.432458251953125,0.9820797767817974,-0.20063523893877863,-0.1340690276247449
1761507016039429000,2.44242919921875,1.0724924536347389,-0.2966590336717665,-0.09151432708506473
1761507016049401300,2.4524013671875,1.1122142231702803,-0.35926220484003424,-0.02597635370707139
1761507016059373300,2.462373291015625,1.1210779131054878,-0.4006748500719666,0.049412676675664256
1761507016069344300,2.47234423828125,1.0402297679334878,-0.42231377736292774,0.07766233647642656
1761507016079316500,2.48231640625,0.8929460338234901,-0.4395234169695526,0.08529144311537966
1761507016089287200,2.492287109375,0.6798311064094305,-0.4409370100945234,0.05582450734619051
1761507016099259400,2.50225927734375,0.45477790392041206,-0.42162959449104964,0.018367906263656912
1761507016109231400,2.5122314453125,0.3219166629165411,-0.4076600327841937,0.013660514023993164
1761507016119202300,2.522202392578125,0.25332944890260695,-0.4331214409727603,0.04318257751390338
1761507016129174300,2.53217431640625,0.1612842024117708,-0.44429172734990713,0.08844387926431373
1761507016139146200,2.542146240234375,0.05657061300575733,-0.46318354788981375,0.1270216298638843
1761507016149117200,2.5521171875,-0.062469023394584655,-0.4968531777795404,0.15090017104148865
1761507016159089400,2.56208935546875,-0.13358020292818545,-0.5342651360027492,0.1767001452683471
1761507016169060400,2.572060302734375,-0.1548620604097843,-0.5755941946044564,0.21175759452097118
1761507016179032300,2.5820322265625,-0.11809095737338066,-0.6319106136534363,0.24337683121953158
1761507016189004300,2.59200439453125,-0.02659925311207771,-0.6968908892165869,0.27584042805405334
1761507016198975200,2.601975341796875,0.02460077277123928,-0.7705140515711159,0.28303249498261135
1761507016208947200,2.611947265625,0.011910218024253844,-0.8215390131484717,0.2603782349029556
1761507016218919200,2.621919189453125,-0.032653730845451354,-0.8558983058027922,0.23727193847317246
1761507016228890000,2.63189013671875,-0.06602876170277595,-0.8997001111935824,0.20306509643420576
1761507016238862300,2.6418623046875,-0.051262569725513456,-0.9412246193021535,0.18364271268155424
1761507016248833300,2.651833251953125,0.0056903205960989,-0.9894913682125508,0.201207211874146
1761507016258805200,2.66180517578125,0.08436638242602348,-1.047988200040534,0.23388308148616924
1761507016268777500,2.671777587890625,0.12813947317898272,-1.1191996981434524,0.24180737167941405
1761507016278748200,2.681748046875,0.10172785159349441,-1.1569728178292513,0.21847652751244603
1761507016288720400,2.691720458984375,-0.007798106530308723,-1.1570180452104657,0.17798035780461505
1761507016298692400,2.7016923828125,-0.13340659992694853,-1.1395227935954928,0.15574605843639
1761507016308663300,2.711663330078125,-0.32107787400484084,-1.0946272746838628,0.13403514362145214
1761507016318635300,2.72163525390625,-0.49798517748415466,-1.0362973238553852,0.06002882716823369
1761507016328607200,2.731607177734375,-0.6271510711014271,-0.9925324894741177,-0.06793729873783887
1761507016338578200,2.741578125,-0.6615326486527919,-0.9730526399131864,-0.1183490603202954
1761507016348550400,2.75155029296875,-0.6424263816446065,-0.9681604108922183,-0.1343337612418458
1761507016358521300,2.761521240234375,-0.5229916084468365,-0.9437930815506725,-0.1460527310103178
1761507016368493300,2.771493408203125,-0.3822919289022684,-0.9394076330080627,-0.0916615078702569
1761507016378465300,2.78146533203125,-0.2468564534962177,-0.913875789931789,-0.06189538822509348
1761507016388436200,2.791436279296875,-0.08422083647549151,-0.8637555951744318,-0.07422587748803199
1761507016398408200,2.801408203125,0.06274199511706828,-0.8331528785746544,-0.05543053959254175
1761507016408379400,2.81137939453125,0.15097674340903758,-0.7816624914426356,-0.03351599196428433
1761507016418351000,2.82135107421875,0.14692834480106828,-0.7061223895508796,0.015525522444583474
1761507016428323300,2.8313232421875,0.13152677752971648,-0.6595619331017136,0.12135478147491811
1761507016438294300,2.841294189453125,0.21056056675612925,-0.6788745363369584,0.20915829874277114
1761507016448266200,2.851266357421875,0.39790860022902486,-0.7407286427035927,0.2668522166900337
1761507016458238500,2.861238525390625,0.4074959282636642,-0.7995000536892563,0.2402487805931829
1761507016468209200,2.871209228515625,0.14556348618865012,-0.7697828146871178,0.13321359810549765
1761507016478181400,2.881181396484375,-0.18076339438557623,-0.6437644253153354,0.1126520907877013
1761507016488153300,2.8911533203125,-0.6654138740003108,-0.4566206822428852,0.13817072732253
1761507016498124300,2.901124267578125,-1.1622580647557974,-0.14374620763361454,0.14309196324227377
1761507016508096300,2.91109619140625,-1.5821820974379777,0.13669899253584444,0.16123070039255544
1761507016518067500,2.9210673828125,-1.8606746291697025,0.34382973097376524,0.14770725675169377
1761507016528039200,2.9310390625,-1.8754209474027155,0.4758763676591217,0.1158101164272055
1761507016538011400,2.941011474609375,-1.5671674836575984,0.47125484533831474,0.05744209861066192
1761507016547982300,2.950982421875,-1.0669278052449225,0.36812026875205334,0.03923066155035049
1761507016557954300,2.960954345703125,-0.5260170937478542,0.22550343047454952,0.007176540565863252
1761507016567926300,2.97092626953125,-0.045914778956770895,0.057883229974284765,-0.0681171122841537
1761507016577897200,2.980897216796875,0.315831205523014,-0.0828205412235111,-0.11858586475085467
1761507016587869200,2.990869140625,0.5280132360011339,-0.16197116176262497,-0.16919859226550907
1761507016597840400,3.00084033203125,0.605953384771943,-0.17370609628520906,-0.21124248460568487
1761507016607812000,3.01081201171875,0.526217000234127,-0.1325848352152854,-0.2622206113666296
1761507016617784300,3.020784423828125,0.34364041894674296,-0.0770363317988813,-0.32101525709740814
1761507016627755300,3.03075537109375,0.1526841318488121,0.013455109378695488,-0.34371859874948857
1761507016637727200,3.040727294921875,0.0015127426505088806,0.10118607286699116,-0.3502827065054327
1761507016647699500,3.050699462890625,-0.12230068402290344,0.18685053227953613,-0.3414754229325801
1761507016657670100,3.060670166015625,-0.2208849768936634,0.27394597434327006,-0.2978062309455126
1761507016667642400,3.070642333984375,-0.2872895861715078,0.3355037281118333,-0.22419439370259642
1761507016677614300,3.0806142578125,-0.2519318570643663,0.3923273660305887,-0.1305498953215778
1761507016687585300,3.090585205078125,-0.18434826713502406,0.41012693435437975,-0.053703387006372214
1761507016697557200,3.10055712890625,-0.0797995129019022,0.38861930529288946,-0.0011581935917958617
1761507016707528400,3.110528564453125,0.021916063731908797,0.3628871904041618,0.03876143660340458
1761507016717500200,3.120500244140625,0.09682838911414146,0.38235790681056675,0.08540065737720579
1761507016727472400,3.130472412109375,0.1305979722470045,0.41658480525687336,0.17041275382824242
1761507016737443300,3.140443359375,0.15125146869719028,0.46689387364983553,0.272228009710554
1761507016747415300,3.150415283203125,0.17691548678576946,0.5282204490110278,0.34546894954815505
1761507016757386200,3.16038623046875,0.2744365343391895,0.5582595403786749,0.4260686729170382
1761507016767358200,3.170358154296875,0.46047699234485623,0.5359651448536664,0.48035643568262454
1761507016777330200,3.180330078125,0.613033113899827,0.4928579706635326,0.5114651290431619
1761507016787301400,3.19030126953125,0.6335252823084593,0.4543916810818016,0.48482766281254586
1761507016797273000,3.200273193359375,0.5873363625854253,0.4203586977723986,0.4254394351027906
1761507016807245300,3.210245361328125,0.4976005620807409,0.40806357208378613,0.35439153006374835
1761507016817216300,3.22021630859375,0.3385778748601675,0.4497151406381279,0.2988429901147261
1761507016827188200,3.230188232421875,0.22626666993200778,0.502852856585756,0.2716804770966992
1761507016837160400,3.240160400390625,0.22785013973116874,0.5250803974196314,0.2659771508885547
1761507016847131100,3.250131103515625,0.2541857734709978,0.540105532594025,0.23232154952418058
1761507016857103400,3.260103271484375,0.22098434561491012,0.5348756691165268,0.12382993941679596
1761507016867074300,3.27007421875,0.1525748262554407,0.5100466405473649,-0.005546893537417054
1761507016877046300,3.28004638671875,0.06925239992439747,0.5077070916838944,-0.09269607508238405
1761507016887017200,3.290017333984375,-0.04852817632555961,0.5059690158449113,-0.1678960582995787
1761507016896988400,3.299988525390625,-0.1719640018582344,0.4941643040217459,-0.17414507222436368
1761507016906960100,3.309960205078125,-0.2524865683376789,0.5049926450934261,-0.14547916890606283
1761507016916932400,3.319932373046875,-0.261546657627821,0.4820579789035022,-0.06488408517967909
1761507016926903300,3.3299033203125,-0.23657237536907194,0.4662614209651947,0.05266633557621389
1761507016936875300,3.339875244140625,-0.19843992085158824,0.45972171699814496,0.12088226859234273
1761507016946846200,3.34984619140625,-0.08525719378590584,0.39736119547933335,0.133041127615422
1761507016956818400,3.359818359375,0.04284370094835758,0.303163300999254,0.1159383824493736
1761507016966790100,3.3697900390625,0.16712825226485728,0.22028861843571065,0.05578264096584171
1761507016976761300,3.37976123046875,0.2641197229862213,0.14553732883408665,0.011566847946681082
1761507016986733300,3.3897333984375,0.33902737219333645,0.09941606751978396,-0.004966536366194487
1761507016996705300,3.399705322265625,0.36059506087899207,0.07990713799484074,0.04609499436188489
1761507017006676200,3.40967626953125,0.3742529993534088,0.09169073396474123,0.11843732312563807
1761507017016648200,3.419648193359375,0.38090427393615245,0.07977145585119724,0.2046558727569878
1761507017026619100,3.429619140625,0.3820341547489166,0.07199994506686926,0.25451073110904543
1761507017036591400,3.43959130859375,0.4229167847573757,0.03496398054920137,0.28110684241596606
1761507017046563300,3.449563232421875,0.5104033450305462,-0.01703998212814331,0.3072532737266272
1761507017056534300,3.4595341796875,0.5864490583568811,-0.06921725554578007,0.3276602115372196
1761507017066506500,3.469506591796875,0.6436877798825502,-0.11708433761410414,0.3494070927146822
1761507017076478200,3.479478271484375,0.6934674175739288,-0.16337708303779364,0.3635303836785257
1761507017086449400,3.489449462890625,0.6937205155521631,-0.1956515322420746,0.3538239593088627
1761507017096421000,3.499421142578125,0.7064210071712732,-0.23303514115363358,0.32862343054618687
1761507017106392300,3.509392333984375,0.7081114444762467,-0.2782790351115167,0.3020020386675373
1761507017116364300,3.5193642578125,0.6839198370277881,-0.3171189072459936,0.27522505436837674
1761507017126336300,3.529336181640625,0.6513771653413772,-0.34608627772890027,0.26782785678915677
1761507017136307200,3.53930712890625,0.5838812536954879,-0.38300226912871,0.24888540204055606
1761507017146279400,3.549279541015625,0.4692775539159775,-0.3951505336925387,0.24330442357044665
1761507017156251100,3.559251220703125,0.32574878842532634,-0.4025304878760129,0.22635022002961486
1761507017166222300,3.569222412109375,0.15220190128982067,-0.3976628087744117,0.22313973355051128
1761507017176194300,3.5791943359375,0.0073357497155666345,-0.38891412352100013,0.24530177140012382
1761507017186165200,3.589165283203125,-0.1300567049771547,-0.38289135610014197,0.2889598574712872
1761507017196137200,3.59913720703125,-0.2535381232172251,-0.3735813106369227,0.32872751197516914
1761507017206109200,3.609109130859375,-0.3432733392000198,-0.3604696809336543,0.3453661102281883
1761507017216080100,3.619080078125,-0.40957273453772064,-0.3614782003890723,0.3447859357200563
1761507017226052400,3.62905224609375,-0.41872167115509507,-0.39500381869822737,0.31216161363217976
1761507017236024300,3.6390244140625,-0.4076058183789253,-0.4489353153720498,0.23242391392011194
1761507017245995300,3.648995361328125,-0.34834815824627874,-0.4949425949178636,0.12501226280285044
1761507017255967500,3.658967529296875,-0.2828811220794916,-0.5445198419049382,0.031547395305056125
1761507017265938200,3.668938232421875,-0.27562603638470173,-0.5777470617894083,-0.031166232234053313
1761507017275910400,3.678910400390625,-0.36870764018595215,-0.5632222042873501,-0.06161094526052475
1761507017285882000,3.688882080078125,-0.5441729281634092,-0.51353630929403,-0.0807444108028896
1761507017295853300,3.698853271484375,-0.6964554934740066,-0.4712598137743771,-0.0889652545236051
1761507017305825300,3.7088251953125,-0.7249649641215801,-0.43785007692985234,-0.06906648543085903
1761507017315797200,3.71879736328125,-0.6214730254650116,-0.430980921812728,-0.0419736766481772
1761507017325768200,3.728768310546875,-0.4286696491956711,-0.4532987712785601,-0.005021116097643971
1761507017335740400,3.738740478515625,-0.21723054603934286,-0.4930533471051603,-0.0017365597353316841
1761507017345712000,3.748712158203125,-0.06752689130604267,-0.5483964641425758,-0.02512969201616943
1761507017355683300,3.758683349609375,-0.003464461240172386,-0.6208869692053646,-0.06533513514911755
1761507017365655300,3.7686552734375,-0.01988251207768917,-0.6953121686577797,-0.05814325088365003
1761507017375626200,3.778626220703125,0.05320025978982448,-0.7498274565689266,-0.014134926602710037
1761507017385598200,3.78859814453125,0.21641689156889915,-0.7496420169994235,0.007517846550513059
1761507017395570200,3.798570068359375,0.29716391445398327,-0.7050761684335768,0.05963104175599292
1761507017405541000,3.808541015625,0.2106272022515535,-0.6522399927157908,0.07371274033412337
1761507017415513300,3.818513427734375,0.036196518018841745,-0.6071007281761616,0.031832167063187804
1761507017425485300,3.8284853515625,-0.21189912188351154,-0.49892640385702247,-0.033322697881888595
1761507017435456300,3.838456298828125,-0.48225277082324025,-0.3764816351883113,-0.05000909906569868
1761507017445428500,3.848428466796875,-0.7382073075324297,-0.22137663286812603,-0.05170218498548493
1761507017455399200,3.858399169921875,-0.9777981539398432,-0.04624043071456253,-0.03323496479950845
1761507017465371400,3.868371337890625,-1.3069219717562197,0.06269267608262598,0.035601949659176166
1761507017475343000,3.878343017578125,-1.6242957305461168,0.21868279067426918,0.14640569090014321
1761507017485314300,3.888314208984375,-1.7463573451161383,0.3505010984964669,0.26198375213714314
1761507017495286300,3.898286376953125,-1.48236270981431,0.3927246947851032,0.41134135164543983
1761507017505257500,3.908257568359375,-0.9558084404498338,0.30486097176261245,0.5268004261452705
1761507017515229200,3.918229248046875,-0.39949557715952394,0.17169366048425436,0.5510969918055459
1761507017525201400,3.928201416015625,0.059329556325078005,0.035666502795368434,0.45288602575920517
1761507017535172400,3.93817236328125,0.4546113151818514,-0.09525734040513634,0.35362054569125173
1761507017545144300,3.948144287109375,0.7295259884268045,-0.18052059860564768,0.2642392211800441
1761507017555116300,3.9581162109375,0.8545540515869855,-0.19487397199831902,0.18935729093607515
1761507017565087200,3.968087158203125,0.8360065875053405,-0.14432649173960088,0.08288754204511642
1761507017575059200,3.97805908203125,0.7177320902585983,-0.05437076487392187,-0.05818856959640979
1761507017585031200,3.98803125,0.5551859050869942,0.027954394048079846,-0.17387370793707668
1761507017595002000,3.998002197265625,0.38355274261832234,0.1049034128896892,-0.27311430929210034
1761507017604974300,4.007974365234375,0.22783026598691938,0.20057342574894427,-0.3886168576074764
1761507017614945300,4.0179453125,0.054226095706224435,0.28812231066860255,-0.5220893989101052
1761507017624917200,4.027917236328125,-0.07198796236813068,0.3631843467198312,-0.6452772410310804
1761507017634889500,4.037889404296875,-0.13956161542534828,0.4443077286366373,-0.6758651984531432
1761507017644860200,4.047860107421875,-0.12504326072931288,0.5200612540833651,-0.6412085302874445
1761507017654832400,4.057832275390625,-0.008423544952273368,0.5779040059167891,-0.5443731999758631
1761507017664804000,4.06780419921875,0.1664788484454155,0.5940173747193068,-0.42098227303083985
1761507017674775300,4.077775390625,0.34300504365265366,0.5875025859978049,-0.32274697626084087
1761507017684747300,4.087747314453125,0.47767830251455307,0.5459458561200649,-0.24820642506675794
1761507017694718500,4.097718505859375,0.5601110865294933,0.5054468916669488,-0.24034069666033608
1761507017704690200,4.107690185546875,0.6308703838855028,0.4600772524375468,-0.2517150359759107
1761507017714662400,4.117662353515625,0.6644757163673639,0.43774537444636225,-0.27664712306074796
1761507017724633300,4.12763330078125,0.6280676014244556,0.43544272352717817,-0.32530754746384916
1761507017734605300,4.137605224609375,0.49830666452348227,0.42072234345301984,-0.4093624527879059
1761507017744577300,4.147577392578125,0.3555482988834381,0.415680476828292,-0.5396922390853985
1761507017754548200,4.15754833984375,0.16666414188444614,0.3770326201345771,-0.6746834413226693
1761507017764520200,4.167520263671875,-0.06509352667927741,0.339471170438081,-0.7449992326948791
1761507017774491400,4.177491455078125,-0.27892683149576186,0.3552331685196608,-0.7279813893333077
1761507017784463000,4.187463134765625,-0.5162082319170236,0.3687384006503969,-0.6178412448339163
1761507017794435300,4.197435302734375,-0.6831026754260062,0.4059524251487106,-0.46986470615416764
1761507017804406300,4.20740625,-0.7706827592015266,0.40965654036365445,-0.3070855159442872
1761507017814378200,4.217378173828125,-0.7890922761172056,0.4119170326415449,-0.16378588303439318
1761507017824350500,4.2273505859375,-0.7868798607647418,0.3822743201803416,-0.058579267680738116
1761507017834321200,4.237321044921875,-0.8019751385658979,0.3271130625158548,0.003933247795701027
1761507017844293400,4.24729345703125,-0.7032739413172007,0.2328854304846376,0.0013125439032912255
1761507017854264300,4.257264404296875,-0.4978495684057474,0.13178447861783205,0.015215543179959058
1761507017864236300,4.267236328125,-0.21848200740516185,0.012914426630735396,0.040084702830109745
1761507017874208300,4.277208251953125,0.15557108546197412,-0.1289217095978558,0.05204230366004631
1761507017884179500,4.287179443359375,0.4230757747113704,-0.25079934590309855,0.11640413679759949
1761507017894151200,4.297151123046875,0.5003957457572221,-0.3098172789957374,0.12096892396248876
1761507017904123400,4.307123291015625,0.4527361689597368,-0.35230296028666197,0.11343261017352342
1761507017914094300,4.31709423828125,0.4094569992035627,-0.38790772295743225,0.10933264577509835
1761507017924066300,4.32706640625,0.38267654430568215,-0.418310971462354,0.08789073889357969
1761507017934037200,4.337037353515625,0.37210663497447966,-0.44957631668932735,0.06773288047323003
1761507017944009200,4.34700927734375,0.3467705336660146,-0.4688816864661872,0.06437118548778817
1761507017953981400,4.3569814453125,0.372499433684349,-0.5004345433976501,0.07682298130914568
1761507017963952400,4.366952392578125,0.3816536309987306,-0.5294574434600771,0.07086858468307182
1761507017973924400,4.37692431640625,0.36527006695270536,-0.5651542683284729,0.053875364306103436
1761507017983896300,4.386896240234375,0.325728914681077,-0.6054514265991747,0.06558165725609287
1761507017993867500,4.396867431640625,0.2683066532820463,-0.6200445270318538,0.09908287177635357
1761507018003839200,4.406839111328125,0.19852233843803405,-0.6226323515679687,0.14802536452384665
1761507018013811500,4.4168115234375,0.10181728344261645,-0.6027938978277146,0.15659114922471343
1761507018023783200,4.426783203125,-0.03761339907944202,-0.5467668901793659,0.16347016814872622
1761507018033754400,4.43675439453125,-0.16392682587504387,-0.4986989517766982,0.142721906087175
1761507018043726000,4.44672607421875,-0.2226058093369007,-0.48260333782657977,0.15299776437524706
1761507018053697300,4.456697265625,-0.24602701693475246,-0.479221221107617,0.17429695658413694
1761507018063669200,4.466669189453125,-0.1856798079997301,-0.48733270443603394,0.217024721268937
1761507018073641200,4.47664111328125,-0.08641454712748527,-0.5215677861887962,0.2767664933904074
1761507018083612200,4.486612060546875,-0.03689852880835533,-0.5280148434363305,0.3119286451265216
1761507018093584400,4.49658447265625,-0.055686231386661525,-0.5231538132712245,0.2917322813266888
1761507018103556400,4.506556396484375,-0.07677052046954631,-0.497856363472715,0.2500595969190821
1761507018113527300,4.51652734375,-0.12710253134667873,-0.47645920904837546,0.17169207131536676
1761507018123499500,4.52649951171875,-0.17123744114935396,-0.46611814003698526,0.08339410332776606
1761507018133470200,4.53647021484375,-0.13797288492918014,-0.45011984898149965,0.06528727741939946
1761507018143442400,4.5464423828125,-0.2142144130885601,-0.4497631444983184,0.04394970769518986
1761507018153414100,4.5564140625,-0.2668728210866451,-0.3994074604846537,0.015286726986337451
1761507018163385300,4.56638525390625,-0.21439093869924544,-0.3735247581440955,0.026316253185924142
1761507018173357300,4.576357421875,-0.23110826474428176,-0.4135593930210918,0.054402694382146
1761507018183329300,4.586329345703125,-0.2824152581334114,-0.45242052713930603,0.07730605211835354
1761507018193300200,4.59630029296875,-0.14867723429501056,-0.5393928542800247,0.10993545224014668
1761507018203272400,4.6062724609375,0.19180793549120426,-0.6291118497803807,0.15336449706209823
1761507018213243100,4.6162431640625,0.329162396261096,-0.6277415843404829,0.13807503012940286
1761507018223215400,4.62621533203125,0.025869185271859167,-0.5359890371859073,0.04209023396624252
1761507018233187000,4.63618701171875,-0.44979193220138547,-0.32561186417266724,-0.10313921622876077
1761507018243158300,4.646158203125,-0.8797796782582997,-0.08546236096918583,-0.17906828090548516
1761507018253130200,4.656130126953125,-1.2618956660717724,0.17967194588705895,-0.2734090179223567
1761507018263102200,4.666102294921875,-1.452246388491988,0.39960181401297445,-0.321352416629903
1761507018273073400,4.676073486328125,-1.359958565416932,0.5082400295168161,-0.2685823466845788
1761507018283045400,4.68604541015625,-1.03806236076653,0.5241508614845574,-0.22310807803692295
1761507018293016300,4.696016357421875,-0.5237099858492612,0.469919943472743,-0.1465830202284269
1761507018302988300,4.70598828125,-0.027106618112325665,0.3853881413519382,-0.0386964633421041
1761507018312960500,4.71596044921875,0.37339199860990047,0.34143794046640397,-0.005361353503214195
1761507018322931200,4.72593115234375,0.554376926791668,0.2785246804356575,-0.04837994522759691
1761507018332903400,4.7359033203125,0.5543441935658454,0.2511673024326563,-0.12142206542431376
1761507018342875100,4.745875244140625,0.4677145423829555,0.2781535090357065,-0.19705084111336618
1761507018352846300,4.755846435546875,0.36361645452678204,0.3455255020409822,-0.2413489786537364
1761507018362818300,4.765818359375,0.24601065032184122,0.4546094154857099,-0.22592834135573356
1761507018372789500,4.77578955078125,0.0847223562568426,0.5818620228275656,-0.13685491374991834
1761507018382761200,4.78576123046875,-0.05531447546482086,0.6834151023760437,-0.05797021413799375
1761507018392733400,4.7957333984375,-0.1484054316163063,0.7334491532199084,-0.01047191058313474
1761507018402704100,4.8057041015625,-0.1688701274961233,0.7276845983438194,0.002524915367737412
1761507018412676400,4.81567626953125,-0.0866097774386406,0.7025377359971403,0.017235596031788737
1761507018422648300,4.8256484375,0.08913783461153507,0.6408354591913521,0.06960717731197365
1761507018432619300,4.835619384765625,0.2433668578147888,0.599483604235947,0.1709932936625555
1761507018442591500,4.845591552734375,0.3134516169101,0.5853355441570282,0.2678765913017094
1761507018452562400,4.8555625,0.27661037124693394,0.6090509123958647,0.30999968635793773
1761507018462534400,4.865534423828125,0.18366496104598043,0.6327944838158786,0.32895693681687116
1761507018472506400,4.87550634765625,0.057957683449983595,0.6797475197792053,0.31998492766898123
1761507018482477300,4.885477294921875,-0.05403320348262786,0.750184599443525,0.29141386302728206
1761507018492449300,4.89544921875,-0.09295651611685753,0.7858397040620446,0.2681789717817679
1761507018502421500,4.90542138671875,-0.06683247930109501,0.8160235376626253,0.22035154587039724
1761507018512392200,4.91539208984375,0.021679916888475415,0.8029683873869479,0.16028249628962948
1761507018522364400,4.925364501953125,0.15088964964747428,0.7510922158077359,0.13249713866552337
1761507018532335400,4.93533544921875,0.2578811208575964,0.7164505260154604,0.13682378795929254
1761507018542307300,4.945307373046875,0.39729952841997146,0.6631789545550942,0.16520053560528902
1761507018552279300,4.955279296875,0.5859527992725372,0.6067860362038016,0.213556241440773
1761507018562250500,4.96525048828125,0.7302753454893827,0.558486261806637,0.27415892297420646
1761507018572222200,4.97522216796875,0.810458889272809,0.550830486356467,0.31585860498659313
1761507018582194400,4.9851943359375,0.8044652018159627,0.5251312508240342,0.3450909830812365
1761507018592165000,4.9951650390625,0.7388187174290418,0.5384079348959029,0.34278014885559677
1761507018602137300,5.005137451171875,0.6598609160482883,0.5602529792182147,0.3393046547647565
1761507018612108300,5.0151083984375,0.5748883844226599,0.5710179727301001,0.3535759028319269
1761507018622080300,5.025080322265625,0.43902679255902766,0.6153174254447221,0.3608911212161183
1761507018632052500,5.035052490234375,0.2798363475561142,0.6477326713591813,0.3638304626036435
1761507018642023400,5.0450234375,0.11672843684852123,0.6519478048361838,0.3392048111194744
1761507018651995400,5.054995361328125,0.00898117883503437,0.6215465290926396,0.2945028785511851
1761507018661967400,5.06496728515625,-0.04560673592090606,0.5704555165417492,0.23026819719094782
1761507018671938300,5.074938232421875,-0.04375964674949646,0.49487625168338417,0.18798614871334282
1761507018681910300,5.08491015625,-0.003989361897110939,0.444432743255794,0.17515344554930926
1761507018691881500,5.094881591796875,0.005534837773442268,0.41157764461934565,0.17576664554420857
1761507018701853200,5.104853271484375,-0.05092822320461273,0.40235914989709853,0.18065416185744107
1761507018711825400,5.114825439453125,-0.13951076202094553,0.3999254930093884,0.19974636380765587
1761507018721796400,5.12479638671875,-0.20161679732203483,0.39820495282709595,0.2675034106077626
1761507018731768300,5.134768310546875,-0.29439854139387606,0.400782402099669,0.34213801502715796
1761507018741740300,5.144740234375,-0.3789320970803499,0.37589638264626263,0.36527602176945656
1761507018751711500,5.15471142578125,-0.3169453042447567,0.325487361010164,0.43812962452359494
1761507018761683200,5.16468310546875,-0.14662673150599,0.25485534329563375,0.5578707237241789
1761507018771654400,5.174654296875,0.10646657055318355,0.16787804771885276,0.646803719945997
1761507018781626000,5.184626220703125,0.40411856078505515,0.046479134841263293,0.7059750169694423
1761507018791598300,5.194598388671875,0.610422054618597,-0.07538885685279965,0.7187804302677512
1761507018801569300,5.2045693359375,0.6869552592009306,-0.1271793959751725,0.7118585220500826
1761507018811541200,5.214541259765625,0.6712643535941839,-0.21354908104762435,0.6815730547059327
1761507018821513500,5.224513427734375,0.6175707573294639,-0.2673825241744518,0.6181007725529373
1761507018831484400,5.234484375,0.5151502472966909,-0.2867196773290634,0.5619193049952388
1761507018841456400,5.244456298828125,0.38824469982683657,-0.2883829343661666,0.5433414092427119
1761507018851427300,5.25442724609375,0.3028051352113485,-0.286891088373214,0.5480736253963783
1761507018861399300,5.2643994140625,0.26382629299759863,-0.298854059498012,0.5670932370344176
1761507018871371300,5.274371337890625,0.2544680975437164,-0.34294746824651956,0.5478320717254653
1761507018881342500,5.284342529296875,0.24276012409329412,-0.37270474699810147,0.4663910752268508
1761507018891315000,5.29431494140625,0.2642413035392761,-0.4326959821023047,0.3936288040179759
1761507018901287200,5.304287109375,0.2499023970633745,-0.47824426583424207,0.34216713152378797
1761507018911257900,5.3142578125,0.17645020736157893,-0.4769339138880372,0.30397487311046567
1761507018921230000,5.32422998046875,0.05521335317790508,-0.45681277074888343,0.27595665657855567
1761507018931201000,5.334200927734375,-0.06705342857539653,-0.43650063508227466,0.26601379310451445
1761507018941173000,5.344173095703125,-0.1586655443459749,-0.44316798401698465,0.2595816776977852
1761507018951145000,5.35414501953125,-0.22552432713210582,-0.4633443644747138,0.22489516238309443
1761507018961116200,5.3641162109375,-0.27557810558974744,-0.49931627995744343,0.1762791981762275
1761507018971088000,5.374087890625,-0.3050789253622293,-0.5405889321967959,0.11404602936413138
1761507018981060000,5.38406005859375,-0.35387715080082416,-0.5861667342841624,0.06667538904324173
1761507018991031000,5.394031005859375,-0.4235749564051628,-0.5961009029950947,0.05510386492144316
1761507019001003000,5.4040029296875,-0.5034674082875251,-0.5636143454100936,0.08819836180433631
1761507019010974000,5.413973876953125,-0.5669084915846586,-0.5357498946677893,0.12568996113501488
1761507019020946000,5.42394580078125,-0.6154156251221895,-0.5152021236144005,0.1373125213243067
1761507019030918100,5.433918212890625,-0.6206190389841795,-0.5038882640480995,0.12089070762712507
1761507019040889000,5.44388916015625,-0.580686257046461,-0.5100924524504691,0.09369250224120915
1761507019050861000,5.453861083984375,-0.4843284080535173,-0.5358361116465181,0.07854863605797291
1761507019060833000,5.4638330078125,-0.3407698319464922,-0.5688507116936147,0.0819281224284321
1761507019070804200,5.47380419921875,-0.23017595233023166,-0.6067239307530224,0.1136120218610391
1761507019080776000,5.48377587890625,-0.1900719054788351,-0.6416501365751027,0.09870229322724043
1761507019090747100,5.4937470703125,-0.09500409629642963,-0.7633705364920198,0.12203279033433645
1761507019100718800,5.50371875,0.19410393747389315,-0.8835320165291428,0.1400370509173721
1761507019110691000,5.513691162109375,0.47028000895678995,-0.8469371468424797,0.11112148368693887
1761507019120662000,5.523662109375,0.28591712877452374,-0.6824244839034974,0.11152414620369672
1761507019130634000,5.533634033203125,-0.3054559419810772,-0.43135085110366345,0.09790464004352688
1761507019140606000,5.54360595703125,-0.927972923541069,-0.16235110099092126,0.030475619621388613
1761507019150577200,5.5535771484375,-1.2953197967678307,0.02366889874860644,-0.08589275174308568
1761507019160548900,5.563548828125,-1.2908353448301553,0.10219028147347271,-0.2175561612645164
1761507019170520000,5.57352001953125,-0.9536620760709047,0.0756862323641777,-0.28998715469241143
1761507019180492000,5.583491943359375,-0.4216916268765926,-0.017552753955870866,-0.2446569341579452
1761507019190464000,5.593464111328125,0.07812251960039138,-0.052554947623610494,-0.0927301965476945
1761507019200435000,5.60343505859375,0.3952671458095312,-0.06284691679626703,-0.021077092157118022
1761507019210407000,5.613406982421875,0.5851882446408272,-0.14186945397630332,0.05113021205011755
1761507019220379100,5.623379150390625,0.7213169630080462,-0.16806290276646613,0.20082360111773012
1761507019230350000,5.63335009765625,0.8056219706356524,-0.14661401815488934,0.37499811863228677
1761507019240322000,5.643322021484375,0.8664946647495031,-0.11123963017389178,0.5475901892609893
1761507019250293000,5.65329296875,0.8665934489488601,-0.033889556250721216,0.626892858556658
1761507019260265200,5.66326513671875,0.8515040163666009,-0.001536854178458452,0.5935260475384071
1761507019270237000,5.67323681640625,0.7986679137140512,0.012196341489255427,0.47628231811150906
1761507019280208100,5.6832080078125,0.6157850429564714,0.037519291055202485,0.3171127697661519
1761507019290179800,5.693179931640625,0.30116964296400545,0.09418328143283725,0.12418679003044962
1761507019300152000,5.703152099609375,-0.020484569624066352,0.1798686375029385,-0.04411249704146757
1761507019310123000,5.713123046875,-0.2675081963807344,0.2667093010880053,-0.15206947054918854
1761507019320095000,5.723094970703125,-0.4918956284373998,0.33505905308425427,-0.20727080449573695
1761507019330066000,5.73306591796875,-0.7271972532182931,0.4002519484847784,-0.2635707838665694
1761507019340038100,5.7430380859375,-0.9666460608065128,0.48332975240498777,-0.326228680896759
1761507019350009900,5.753009765625,-1.162286706328392,0.5381815057288855,-0.3575555105200037
1761507019359981000,5.76298095703125,-1.296717973127961,0.5866841822870076,-0.3610814196238294
1761507019369953000,5.772953125,-1.2933505425214766,0.6239223183132707,-0.33889994642138477
1761507019379925000,5.782925048828125,-1.0893915659874678,0.6210530464872718,-0.2685249722078442
1761507019389896000,5.79289599609375,-0.7807692689299583,0.6003109949707984,-0.17341869417857378
1761507019399868000,5.802867919921875,-0.43017303949594493,0.5607346252553165,-0.09566124503090977
1761507019409838800,5.8128388671875,-0.0874286926060915,0.5063169524997473,-0.04456833278387785
1761507019419811000,5.82281103515625,0.21833178527951239,0.44756256571412084,-0.02635284060295671
1761507019429783000,5.832782958984375,0.4746101471155882,0.39435339196547864,-0.03769917766675353
1761507019439754000,5.84275390625,0.7062976730525493,0.32772637210860844,-0.066118193551898
1761507019449726200,5.852726318359375,0.900633665716648,0.259067992554605,-0.08346530540045351
1761507019459697000,5.86269677734375,1.032670730856061,0.21581921793669462,-0.07838033028636127
1761507019469669000,5.872669189453125,1.0186837065577505,0.22181582800298927,-0.07594356812611222
1761507019479641000,5.88264111328125,0.9399526996701956,0.2629248141132295,-0.09061550594866276
1761507019489612000,5.892612060546875,0.8395411913722753,0.29241029018610715,-0.09074369890559464
1761507019499584000,5.902583984375,0.7717845829635858,0.2955975419200957,-0.08637578601967542
1761507019509556000,5.912555908203125,0.7505068171352147,0.30142887842208144,-0.1084969804022461
1761507019519527000,5.92252685546875,0.7265753219276666,0.2970633766889572,-0.12442319260220974
1761507019529499100,5.9324990234375,0.6186100372493266,0.3023872020602226,-0.15844506999570876
1761507019539470000,5.942469970703125,0.45628947752714155,0.3370253847211599,-0.1727477361144498
1761507019549442000,5.952442138671875,0.25517595355212686,0.38324630701765416,-0.13168869009315967
1761507019559414000,5.9624140625,0.07090484330654144,0.4272096596457064,-0.06824680307842791
1761507019569385000,5.972385009765625,-0.017545009040832518,0.4453879981540143,0.01021693117506802
1761507019579357000,5.98235693359375,-0.0718909317344427,0.42551220807805656,0.0816006805723533
1761507019589329000,5.992328857421875,-0.16874153268039224,0.40270138746351003,0.09919910030085592
1761507019599299800,6.0022998046875,-0.30086335349380966,0.38564913037568327,0.07390749572124332
1761507019609272000,6.01227197265625,-0.44809331158995624,0.36031887428611514,0.03368533891551197
1761507019619243000,6.022242919921875,-0.5833224507689476,0.3441853394784033,-0.021121260092407463
1761507019629215000,6.032215087890625,-0.6320446883618831,0.29524712104722856,-0.05977631371188909
1761507019639187200,6.042187255859375,-0.5428332039922475,0.23172946538254618,-0.06273790346384048
1761507019649158000,6.052157958984375,-0.34145956777632236,0.16749387070685623,-0.027707652745395897
1761507019659130000,6.062130126953125,-0.1647749671369791,0.11126169587522744,-0.006474566308967769
1761507019669102000,6.07210205078125,-0.06191606568694114,0.044245676700770856,-0.02611844732519239
1761507019679073000,6.082072998046875,-0.025064883151650428,-0.03484612632319331,-0.06607303923591971
1761507019689045000,6.092044921875,-0.042216508960723875,-0.09184387869983911,-0.13982132580745965
1761507019699016200,6.10201611328125,-0.04162906446158886,-0.1381549634978175,-0.1769812454983592
1761507019708988000,6.11198779296875,0.01738601908683777,-0.1834919425666332,-0.18964790791310368
1761507019718960000,6.121960205078125,0.138741531214118,-0.2585502522908151,-0.19394476485680787
1761507019728931000,6.13193115234375,0.2845674677312374,-0.33549364510923624,-0.19468765564598142
1761507019738903000,6.141903076171875,0.3736263918876648,-0.40745537705756724,-0.21718385735340415
1761507019748875300,6.151875244140625,0.3798147251337766,-0.44994500387124714,-0.2528452455822378
1761507019758846000,6.161845947265625,0.3095961105257273,-0.4868301617413759,-0.30746662421636284
1761507019768818200,6.171818115234375,0.21757132230103016,-0.5033737386547029,-0.33937757387049494
1761507019778790000,6.181789794921875,0.14997954906523228,-0.5282035709414631,-0.35042543944437055
1761507019788761000,6.191760986328125,0.10960077692568301,-0.5391903174452484,-0.3416051137268543
1761507019798733000,6.201733154296875,0.093684830391407,-0.5422077655702829,-0.31089499122984704
1761507019808704300,6.211704345703125,0.09391922366917133,-0.5441743164028972,-0.2741190658878535
1761507019818676000,6.221676025390625,0.11099953780770301,-0.5639611860863865,-0.25314916043225677
1761507019828648200,6.231648193359375,0.13580080158710478,-0.5986869739655405,-0.23430388244781641
1761507019838619000,6.241618896484375,0.17443477588593959,-0.6177868842981755,-0.224635086674802
1761507019848591000,6.251591064453125,0.25252806939184663,-0.6453511830501258,-0.1649296097094193
1761507019858562000,6.26156201171875,0.3668061904788017,-0.6698778676718473,-0.07695354888625443
1761507019868534000,6.271533935546875,0.4921668465942144,-0.7079338228870182,0.02614153593983501
1761507019878506000,6.281506103515625,0.5683236190795898,-0.7441399124518037,0.13457399973850698
1761507019888477200,6.291477294921875,0.5375491261094808,-0.7534806453142314,0.21763733674194663
1761507019898448600,6.30144873046875,0.4321884709715843,-0.7618736489977687,0.23696915613431482
1761507019908420600,6.311420654296875,0.2857037782847881,-0.7621440634369849,0.2251961546236649
1761507019918391800,6.321391845703125,0.15195932470560072,-0.73739087658301,0.2026494283054024
1761507019928363500,6.331363525390625,0.05781622915267944,-0.7224890755273401,0.19923885267693547
1761507019938334700,6.341334716796875,0.03466273258030415,-0.7332664901293814,0.1630151178576052
1761507019948306700,6.351306640625,-0.008560323074460028,-0.7670804238606244,0.11749277228452265
1761507019958278700,6.361278564453125,-0.10041501542925835,-0.7622642557505518,0.026485709735006094
1761507019968249600,6.37124951171875,-0.25032675995528697,-0.7558473744455725,-0.047539128755591804
1761507019978221600,6.3812216796875,-0.406560108718276,-0.7356452750246971,-0.11117076618876308
1761507019988193800,6.39119384765625,-0.4700087907999754,-0.7211740474060178,-0.08589205762334168
1761507019998164700,6.401164794921875,-0.6192986040353775,-0.7125530071202665,-0.13779661504682153
1761507020008136700,6.41113671875,-0.8399152853816747,-0.6908878494095056,-0.17528660694230347
1761507020018107600,6.421107666015625,-0.9947171400368213,-0.6448586502928286,-0.14976451807506383
1761507020028079900,6.431079833984375,-1.0478595321595667,-0.6204987736053764,-0.09271843304466455
1761507020038051600,6.441051513671875,-1.034721818166971,-0.6470936428032815,-0.04104848809465766
1761507020048022800,6.451022705078125,-0.9005196839481592,-0.6636331280633807,0.053057015394233166
1761507020057994500,6.460994384765625,-0.6777046157747507,-0.772979272640869,0.1310631786059588
1761507020067966700,6.470966796875,-0.3012146511495113,-0.817590640848875,0.1602383466206491
1761507020077937700,6.480937744140625,-0.18003975628614424,-0.7939156776856631,0.1251864685922861
1761507020087909600,6.49090966796875,-0.3349994318515062,-0.6930792950391769,0.061658876055479046
1761507020097880600,6.500880615234375,-0.6747387517064809,-0.5382936608664691,0.026657595703192052
1761507020107852800,6.510852783203125,-1.0253121847867965,-0.3247703718472272,-0.03448646269794553
1761507020117824500,6.520824462890625,-1.2702940765827893,-0.12837540082670748,-0.0616079495858401
1761507020127795700,6.530795654296875,-1.3185457740545272,-0.016048048481345174,-0.05211673886943608
1761507020137767700,6.540767578125,-1.0954179866701363,0.0012453238859772681,-0.037216910575143994
1761507020147739600,6.55073974609375,-0.6514063914358615,-0.062155573531240224,0.003969963076896965
1761507020157710600,6.560710693359375,-0.11472528033256531,-0.17476488462314008,-0.012909567792527377
1761507020167682600,6.5706826171875,0.33682021753787994,-0.3030520957097411,-0.03360127736125141
1761507020177653500,6.580653564453125,0.6362415555298327,-0.3789645380452275,-0.04402808842733502
1761507020187625700,6.590625732421875,0.7986474554479122,-0.401221524169296,-0.028297471864707765
1761507020197597700,6.60059765625,0.8514134154736995,-0.37657033638507126,-0.007573175200633704
1761507020207568600,6.610568603515625,0.746289491701126,-0.29007044906169177,0.004740910916775465
1761507020217540900,6.620540771484375,0.5874848311454057,-0.17260449171885847,0.0034691374152898786
1761507020227512600,6.6305126953125,0.49279228501617905,-0.06816007464304566,-0.004411204038374126
1761507020237483800,6.64048388671875,0.4995335759699344,-0.013516191916167736,-0.04146744415909052
1761507020247455500,6.65045556640625,0.5280009610414504,-0.0037545302279293536,-0.10041665939707309
1761507020257426700,6.6604267578125,0.5433212797701359,-0.00905029854848981,-0.153688121259585
1761507020267398700,6.670398681640625,0.5343202271908521,-0.025263328333199022,-0.2537704706683755
1761507020277370600,6.68037060546875,0.49304596751630303,-0.07364230544641613,-0.3082861604383215
1761507020287341600,6.690341552734375,0.4072404921978712,-0.1356266140639782,-0.3863135856337845
1761507020297313800,6.700313720703125,0.2921428714215755,-0.18005466159433126,-0.45768242972288276
1761507020307285500,6.710285400390625,0.14774258379340172,-0.16770049919486044,-0.47588546428102996
1761507020317256700,6.720256591796875,-0.011643676042556762,-0.09451163660436868,-0.43262295339871193
1761507020327228700,6.730228759765625,-0.1299438922524452,0.02373538811355829,-0.32238844514675435
1761507020337199600,6.74019970703125,-0.2286094336658716,0.15935907956808804,-0.18300244201663882
1761507020347171600,6.750171630859375,-0.2701590031504631,0.26054624841362234,-0.036716998228989536
1761507020357143600,6.7601435546875,-0.22269348762035368,0.3276753725737333,0.08297366769229993
1761507020367114500,6.770114501953125,-0.11003040051460265,0.3706516138605773,0.18667871937658637
1761507020377086700,6.780086669921875,0.01955225721001625,0.3627105917282402,0.2437452444068156
1761507020387058700,6.79005859375,0.1440606804102659,0.3331361221976578,0.2664613359426148
1761507020397029600,6.800029541015625,0.2366968785315752,0.31276173494979737,0.2696679864968173
1761507020407001900,6.810001953125,0.29533377641737457,0.2950920766159892,0.24628712917566298
1761507020416972500,6.81997265625,0.3928092312633991,0.2729837051823735,0.2475715977619402
1761507020426944800,6.82994482421875,0.5023866273134947,0.28741671968251464,0.2770942823063582
1761507020436916500,6.83991650390625,0.48135786781013007,0.33692294725999233,0.27798818067247044
1761507020446887700,6.8498876953125,0.3912976576566696,0.42713162597343324,0.2826224711433053
1761507020456859600,6.859859619140625,0.358187415215373,0.49918242444470523,0.276865807312727
1761507020466831600,6.86983154296875,0.36290976756215093,0.5349488804832101,0.3176270028986037
1761507020476802600,6.879802490234375,0.4069236813336611,0.5527693454645574,0.3471718444759026
1761507020486774800,6.88977490234375,0.5070435132086276,0.5565840814471245,0.38207477902024983
1761507020496745500,6.899745361328125,0.6204559573769569,0.5343012302294373,0.4510037922091782
1761507020506717700,6.9097177734375,0.7059159802585839,0.5177547307066619,0.49343920461758967
1761507020516689700,6.919689697265625,0.76670391869843,0.47760728310495615,0.5296174563273787
1761507020526660600,6.92966064453125,0.7686994764298201,0.44781975534558294,0.5620031838864088
1761507020536632600,6.939632568359375,0.7270709964901209,0.436608187109977,0.553245402011089
1761507020546604500,6.9496044921875,0.6465086825221776,0.40919849439784883,0.508111398168467
1761507020556575500,6.959575439453125,0.5640601164162159,0.3976901351727545,0.4424620277047157
1761507020566547700,6.969547607421875,0.43736324326097964,0.3589265431448817,0.3810558843012899
1761507020576518700,6.9795185546875,0.2883417255729437,0.35811727258861065,0.3137178300982341
1761507020586490600,6.98949072265625,0.1444102245002985,0.34810119774788617,0.2676900192210451
1761507020596462800,6.999462890625,0.002874678653478622,0.3421396589949727,0.20190511274412273
1761507020606433500,7.00943359375,-0.11767302422225474,0.3265707723326981,0.122997835974209
1761507020616405800,7.01940576171875,-0.3235416337698698,0.35825390458032486,0.13598496251497416
1761507020626377500,7.02937744140625,-0.6127426065206527,0.4718476966649294,0.1986281003674492
1761507020636348700,7.0393486328125,-0.8650766146451234,0.5486094493061304,0.29101145623885094
1761507020646320600,7.049320556640625,-0.9655249478220939,0.5852732925757765,0.3803574537083506
1761507020656291800,7.059291748046875,-0.8643728502899408,0.5269872539542615,0.5012879453565925
1761507020666263600,7.069263671875,-0.6176105048179626,0.4035257094584405,0.5954937674148008
1761507020676235800,7.07923583984375,-0.3502718197852373,0.26320962240397927,0.6958988825045526
1761507020686206500,7.08920654296875,-0.14704408013522624,0.1495969794884324,0.7212946050457656
1761507020696178700,7.0991787109375,0.029124972197413442,0.04240282531306147,0.7119714809052645
1761507020706149600,7.109149658203125,0.18721242439448832,-0.051850306485593314,0.6910863676562905
1761507020716121600,7.11912158203125,0.3457382680088281,-0.13135222468040883,0.7462936564195901
1761507020726093600,7.129093505859375,0.4923959791749716,-0.1451845698736608,0.8210023489885032
1761507020736064800,7.139064697265625,0.6129600486636162,-0.19386399123817682,0.8527243519417941
1761507020746036700,7.14903662109375,0.6786655697613954,-0.26587190041579306,0.8420598961949348
1761507020756008700,7.1590087890625,0.6659697543174028,-0.30518443156331776,0.7932533413194119
1761507020765979600,7.168979736328125,0.548266919478774,-0.32564963889978826,0.6736144238516688
1761507020775951600,7.17895166015625,0.3891115457892418,-0.33521175942793485,0.5363892520172521
1761507020785922800,7.1889228515625,0.2834171286523342,-0.3201141435392201,0.45964755578339095
1761507020795894500,7.19889453125,0.2372457445859909,-0.3532932134330272,0.41852775601819153
1761507020805866800,7.20886669921875,0.17063713716864584,-0.3595119418174028,0.37400742709450424
1761507020815837700,7.218837646484375,0.1122726264834404,-0.3447792137183249,0.3644959042424336
1761507020825809700,7.2288095703125,0.014402619361877441,-0.35021731311902404,0.37843832221403717
1761507020835781600,7.23878173828125,-0.110607908141613,-0.33331403604783116,0.325664799936302
1761507020845752800,7.2487529296875,-0.2667132466107607,-0.325067308967188,0.26176870288066567
1761507020855724500,7.258724609375,-0.41056642175018787,-0.31627383472397924,0.17941165098305792
1761507020865695700,7.26869580078125,-0.5009416892021894,-0.2721612098183483,0.14910101266503334
1761507020875667500,7.27866748046875,-0.6677402711212634,-0.2494054073266685,0.14018749223873017
1761507020885639700,7.2886396484375,-0.8088204744160175,-0.1817144845653325,0.12159801564626395
1761507020895610400,7.2986103515625,-0.9113274936884641,-0.1337195383336395,0.08843881949670612
1761507020905582300,7.308582275390625,-0.9589081600308418,-0.1239449440985918,0.04223773441184312
1761507020915554300,7.31855419921875,-0.9643319386452436,-0.11199315195493399,-0.00013418430630117654
1761507020925525500,7.328525390625,-0.9291776231557131,-0.11369659487195312,-0.037546252127364274
1761507020935497200,7.338497314453125,-0.745925919085741,-0.11742511387579142,-0.06903945129346102
1761507020945468400,7.348468505859375,-0.4639864617705345,-0.1679459983885288,-0.03860076614897698
1761507020955440400,7.3584404296875,-0.1299748719125986,-0.2781028748270124,0.05143208107352257
1761507020965412400,7.368412353515625,0.2039350111365318,-0.4532787514038384,0.1533323300918564
1761507020975383300,7.37838330078125,0.6508557718157768,-0.649392275134474,0.17567688490152358
1761507020985355300,7.388355224609375,1.0556161376357078,-0.7524984293438494,0.1390486609345302
1761507020995327500,7.398327392578125,1.1000152513325214,-0.7341318747870623,0.12795618903394787
1761507021005298400,7.40829833984375,0.8500088093727827,-0.6358681921727954,0.09601499037202448
1761507021015270400,7.4182705078125,0.5131166956424713,-0.439944638056308,0.04425082779992372
1761507021025242400,7.428242431640625,0.17497370506823062,-0.17669322233721613,-0.07278079324625432
1761507021035213600,7.438213623046875,0.04997136087119579,-0.03990238679945469,-0.23614092514924703
1761507021045185300,7.448185302734375,0.18891572118103503,-0.04175269084125757,-0.3963294047461822
1761507021055156500,7.458156494140625,0.30530104368031025,-0.07241393269523978,-0.4375811237953603
1761507021065128400,7.46812841796875,0.39022739807665346,-0.08520948218666016,-0.3422505720235407
1761507021075100400,7.478100341796875,0.358030763348937,-0.03573737607449293,-0.08335008152294904
1761507021085071400,7.4880712890625,0.13438684313595295,0.050858372838795185,0.15914258727319539
1761507021095043300,7.498043212890625,-0.24990882680416104,0.15355316976830363,0.3660010481083765
1761507021105014300,7.50801416015625,-0.6295873583376407,0.24837409151755271,0.47159777702447025
1761507021114986500,7.517986572265625,-0.9454939671844244,0.3417304936721921,0.5053764567792415
1761507021124958500,7.52795849609375,-1.1853694757521152,0.39937005108371376,0.446971723681502
1761507021134929400,7.537929443359375,-1.3901707483291625,0.48545419721305366,0.4048947693219408
1761507021144901600,7.547901611328125,-1.5707868431985377,0.5709805633291601,0.3894864800488576
1761507021154873300,7.557873291015625,-1.6039280652999877,0.6485935990374535,0.3311290932241827
1761507021164844500,7.567844482421875,-1.5345143373340366,0.6911765301577747,0.24721498461030422
1761507021174816300,7.577816162109375,-1.4149609061926602,0.6862813785273582,0.12807692933678627
1761507021184787500,7.587787353515625,-1.2411568294256925,0.6513421670932322,-0.036806612741202116
1761507021194759400,7.597759521484375,-1.036978657183051,0.560227771711722,-0.19072551054935902
1761507021204731400,7.6077314453125,-0.8018547270566224,0.4932975311245769,-0.29470567111428825
1761507021214702300,7.617702392578125,-0.5215390715509652,0.43118243573419746,-0.33416108133122324
1761507021224674600,7.627674560546875,-0.19748422756195066,0.39354558271393175,-0.3000045812400058
1761507021234646300,7.637646240234375,0.09018822044730186,0.3620819384358823,-0.27577337243352085
1761507021244617500,7.647617431640625,0.2942407204836607,0.3349716670617461,-0.26422314682807774
1761507021254589400,7.65758935546875,0.45786534854173655,0.3300340645290911,-0.24032664986867455
1761507021264560400,7.667560302734375,0.5659720875173807,0.33788974646553394,-0.24387217698842287
1761507021274532400,7.677532470703125,0.6061901161372661,0.3640763271234929,-0.24307551018539814
1761507021284504300,7.68750439453125,0.642695846235752,0.40502340067028997,-0.2653550004022196
1761507021294475300,7.697475341796875,0.6811094557821751,0.4327950585626065,-0.2883081155642867
1761507021304447500,7.707447509765625,0.7167179447799921,0.46537280156239863,-0.3044310924453661
1761507021314419500,7.71741943359375,0.7626397379994392,0.4855554656304419,-0.3235239519827068
1761507021324390400,7.727390380859375,0.8357505669176578,0.4662690197497606,-0.3308766528330743
1761507021334362600,7.737362548828125,0.9282985022336244,0.4008391007229686,-0.3540781532656401
1761507021344333300,7.747333251953125,1.0449152954012155,0.33278380162864923,-0.36398751632887866
1761507021354305500,7.757305419921875,1.1057885740369557,0.2930952037103474,-0.361691952737607
1761507021364277200,7.76727734375,1.1481862847834825,0.2907153228364885,-0.3176636816471815
1761507021374248400,7.77724853515625,1.1767220589160918,0.27623174719288945,-0.27290621949937194
1761507021384220400,7.787220458984375,1.1369371610164642,0.2775039590857923,-0.22975118757952004
1761507021394192400,7.7971923828125,1.0121177721709012,0.2920946483656764,-0.22042272967677562
1761507021404163300,7.807163330078125,0.8286655770927667,0.29159561280235646,-0.2596514915309846
1761507021414135600,7.817135498046875,0.5989309387892484,0.2936065142333507,-0.2829970400767401
1761507021424106200,7.827106201171875,0.36373277438282964,0.2924659658960998,-0.30091720257289706
1761507021434078500,7.837078369140625,0.14683189868927002,0.2995408727183938,-0.2762694488547742
1761507021444050400,7.847050537109375,-0.08723696942627429,0.3030063568718731,-0.21267945860624313
1761507021454021400,7.857021484375,-0.3488765660345554,0.32792277146354315,-0.15841997208707034
1761507021463993300,7.866993408203125,-0.5839549034535885,0.3482816688813269,-0.13806407034397125
1761507021473965300,7.87696533203125,-0.7541232540667057,0.3383221465334296,-0.11119235696606337
1761507021483936300,7.886936279296875,-0.857276170027256,0.3107110860303044,-0.10153842996861785
1761507021493908500,7.896908447265625,-0.9116998341321945,0.24988632271140812,-0.12946673972737044
1761507021503879400,7.90687939453125,-0.8528291274905204,0.1449234347194433,-0.18683380034044383
1761507021513851400,7.916851318359375,-0.634321985644102,0.0033684535197913644,-0.2371324204046279
1761507021523823600,7.92682373046875,-0.3323766821324825,-0.16081366229057312,-0.28320257258620113
1761507021533794300,7.936794189453125,0.00028700024783611294,-0.3275875481598079,-0.2967092294890433
1761507021543766500,7.9467666015625,0.2964081276506185,-0.46978038887158036,-0.2746288785735145
1761507021553738200,7.95673828125,0.49216860015988345,-0.5717632381394505,-0.24073179660346358
1761507021563709400,7.96670947265625,0.5894640222638845,-0.6513942626066506,-0.2323893175307661
1761507021573681400,7.976681396484375,0.6304629721283912,-0.7240253451839089,-0.2422557547677308
1761507021583652600,7.986652587890625,0.6365729794412851,-0.7969863903678953,-0.2635860545009375
1761507021593624300,7.996624267578125,0.6210428173542022,-0.8453698975257575,-0.29761607866827394
1761507021603595500,8.006595458984375,0.5780775358527899,-0.8911453410770743,-0.31172994421664624
1761507021613567200,8.016567138671874,0.5198433735489845,-0.9094123807821423,-0.31941706465315073
1761507021623538400,8.026538330078125,0.4731798220515251,-0.9161815826561301,-0.3011125424819067
1761507021633510400,8.036510498046875,0.43205461545884605,-0.9134458010166883,-0.2762678779521957
1761507021643482400,8.046482421875,0.4771814589083194,-0.9394378820158541,-0.2801258685545996
1761507021653453300,8.056453369140625,0.506690461987257,-0.9779314979959278,-0.24856997941583395
1761507021663425500,8.066425537109374,0.46035015109479427,-0.9705269938930868,-0.22391466344576327
1761507021673397200,8.076397216796876,0.3457102109581232,-0.9411715008754282,-0.17331749882642178
1761507021683368400,8.086368408203125,0.20107143839895725,-0.9072307258941232,-0.1052227445045486
1761507021693340400,8.09634033203125,0.09576514379680157,-0.8695837898712605,-0.06000164690036326
1761507021703311400,8.106311279296875,0.09130816438794136,-0.8807317182861268,-0.0026324308628216386
1761507021713283300,8.116283447265625,0.105305710080266,-0.8826843136586249,0.05648593039698899
1761507021723255300,8.12625537109375,0.052854807353019714,-0.8886180876217782,0.05838781849555671
1761507021733226200,8.136226318359375,-0.02733750425875187,-0.8673168678525834,0.04120272880829871
1761507021743198500,8.146198486328124,-0.16405717425644398,-0.8493154933463781,0.012332754285261035
1761507021753170400,8.15617041015625,-0.29146073437631126,-0.8100983853973448,-0.028611761978268622
1761507021763141400,8.166141357421875,-0.41672143724858757,-0.7548685925412922,-0.047778636599890886
1761507021773113600,8.176113525390624,-0.44961189945936203,-0.7705790065661072,-0.04853398501183837
1761507021783084300,8.186084228515625,-0.38101767118275165,-0.7670282552819698,-0.0846163385991007
1761507021793056500,8.196056396484375,-0.22635084108412265,-0.8045335178118198,-0.1087979726428166
1761507021803028200,8.2060283203125,-0.10389759684801102,-0.8662319952253251,-0.12070011695846915
1761507021812999400,8.21599951171875,-0.01846387745141983,-0.8758177888900041,-0.17514738113470374
1761507021822971400,8.225971435546874,-0.018897592693567274,-0.9090951315265149,-0.19418752410411833
1761507021832943400,8.235943359375,-0.0969920552432537,-0.89434267581366,-0.16376213683262467
1761507021842914300,8.245914306640625,-0.057796939930319785,-0.9829803058180957,-0.08256057511307299
1761507021852886500,8.255886474609374,0.3885036430239677,-1.1127394891534,0.09556331934807821
1761507021862857200,8.265857177734375,0.8143126420915127,-1.229578035312891,0.24012966599185018
1761507021872829400,8.275829345703125,0.8140385013252496,-1.2086124772388487,0.12344450202947482
1761507021882801400,8.285801513671874,0.2901969980508089,-1.1059402574673294,-0.2086948459494859
1761507021892772900,8.29577294921875,-0.7272469375789165,-0.8384633330076933,-0.5980804229071364
1761507021902745000,8.3057451171875,-1.98360192065835,-0.38025340881198644,-0.788299810565263
1761507021912717000,8.315717041015626,-3.2949113137185573,0.12374021530672907,-0.7993065038785337
1761507021922688000,8.32568798828125,-4.1284231617987155,0.4858393971383571,-0.8340596181560307
1761507021932660200,8.33566015625,-4.0618829434424635,0.7281713589474559,-0.8947764641210436
1761507021942631000,8.345630859375,-3.2301538871258497,0.6502746839921921,-0.7763597088593989
1761507021952603100,8.35560302734375,-2.024638864445686,0.38009449192322786,-0.568389523922652
1761507021962574800,8.365574951171874,-0.8055641029685735,0.24020371760874984,-0.3929232860971242
1761507021972546000,8.375546142578125,0.07247194649279118,0.1253564183317125,-0.22956556534692643
1761507021982518000,8.38551806640625,0.568493130427599,0.0733835083797574,-0.16234189477115868
1761507021992490000,8.395489990234376,0.8265525304615498,0.08017974439114332,-0.13443141293004154
1761507022002461000,8.4054609375,0.9200304401040077,0.1001122330904007,-0.10393515237942337
1761507022012433200,8.41543310546875,0.9138573044270276,0.16222805913314223,-0.036243681628815826
1761507022022404900,8.42540478515625,0.8321458204239607,0.30726255301162597,0.06146083273272961
1761507022032377000,8.435377197265625,0.7407178290486335,0.49002895778268574,0.1940825658923015
1761507022042349000,8.44534912109375,0.6416174033492803,0.6413616750225425,0.3328182153549045
1761507022052320000,8.455320068359375,0.5171206705868244,0.7755540184997022,0.4024454764736816
1761507022062292200,8.465292236328125,0.40884149765372274,0.855494108916074,0.39698297328408805
1761507022072263000,8.475262939453126,0.25186463704705236,0.8891089398786425,0.36101350548677147
1761507022082235100,8.485235107421875,0.052423430198431015,0.9298997999504208,0.33497820640038695
1761507022092206800,8.495206787109375,-0.14850246224999428,1.0070881074406206,0.34149153381716457
1761507022102178000,8.505177978515626,-0.29940380233526226,1.0894032564252614,0.4118486070478335
1761507022112150000,8.51514990234375,-0.41164603368043895,1.1765031554684042,0.4639100720660761
1761507022122122000,8.5251220703125,-0.47467502904534337,1.2344063322521746,0.4896048871517181
1761507022132093000,8.535093017578125,-0.4907902975440025,1.2604958822764456,0.5368527778757736
1761507022142065200,8.545065185546875,-0.4460708658516407,1.2553263706840574,0.5617796042636036
1761507022152035800,8.555035888671876,-0.32628830212950705,1.2057685590498148,0.5776178459191694
1761507022162008000,8.565008056640625,-0.14943711275160312,1.1346339986406266,0.5179707846101373
1761507022171980000,8.57497998046875,0.021155016231536865,1.0524703869558871,0.4692426652656868
1761507022181951000,8.584950927734376,0.11986088965535163,0.9867577054649591,0.4491946969605982
1761507022191923200,8.594923095703125,0.2045288853764534,0.9369859588190913,0.42753253492452203
1761507022201895000,8.60489501953125,0.30300387265384193,0.8962788315080106,0.46156193803735074
1761507022211866000,8.6148662109375,0.37005613218545913,0.8404873861812054,0.48755467662364244
1761507022221838000,8.624838134765625,0.473567944586277,0.7802892303280532,0.509606203303486
1761507022231810000,8.63481005859375,0.5631581991404294,0.7060657639928162,0.5090535013241693
1761507022241781000,8.644781005859375,0.6668862846404313,0.6286641060128808,0.46610593814253803
1761507022251753200,8.654753173828125,0.6742308021843433,0.5675276463963091,0.43238443193510173
1761507022261724000,8.664723876953126,0.6490326480418444,0.5493041535720229,0.3837633166290819
1761507022271696100,8.674696044921875,0.5784966380476951,0.5292097523093223,0.3565394288126379
1761507022281667800,8.684667724609374,0.5045487737834453,0.5169334774516523,0.32019225027672943
1761507022291639000,8.69463916015625,0.46232466603815553,0.5088049699231982,0.2912312730019912
1761507022301611000,8.704611083984375,0.4269616762340069,0.49418154741749165,0.2192110705983825
1761507022311583000,8.7145830078125,0.3824187701523304,0.47139323089569807,0.13711559224640948
1761507022321554000,8.724553955078125,0.31093641921877857,0.4490361453980207,0.06579555573510006
1761507022331526100,8.734526123046875,0.24389760369062422,0.41338308660611506,0.0073985127534717315
1761507022341496800,8.744496826171876,0.15833587400019167,0.3802195065423846,-0.028833478437550363
1761507022351469000,8.754468994140625,0.051961657905578613,0.3579929155565798,-0.02434566549900919
1761507022361441000,8.76444091796875,-0.02573357619345188,0.36008842653110623,0.025921499980986116
1761507022371412000,8.774411865234375,-0.09376666345596313,0.37081805646866556,0.09629205374773592
1761507022381384200,8.78438427734375,-0.144278707075119,0.3972954367667436,0.17316526740677654
1761507022391356000,8.79435595703125,-0.17681904067397117,0.42242900124043226,0.24289624462835488
1761507022401327000,8.8043271484375,-0.20713000778555868,0.4162335076011717,0.2901938562456518
1761507022411299000,8.814299072265625,-0.2671089679300785,0.384455098285526,0.3016320545776747
1761507022421270000,8.82427001953125,-0.28832828156948087,0.37400823081210255,0.3208906808696687
1761507022431242000,8.834241943359375,-0.23621055631935595,0.35380759269595147,0.3570217689694837
1761507022441214200,8.844214111328125,-0.10699673190712929,0.31191286303550003,0.3935544966727495
1761507022451185000,8.854184814453125,0.03826689455211162,0.24806100698038935,0.438626979586482
1761507022461157000,8.8641572265625,0.1721077942430973,0.18381649834588168,0.46172195090465246
1761507022471128800,8.87412890625,0.26800445546507834,0.11599705383405089,0.4556788713481277
1761507022481100000,8.88410009765625,0.2847895860493183,0.06938610930666327,0.4266953899806365
1761507022491072000,8.894072021484375,0.2757669061601162,0.040743075407296415,0.38474239079430694
1761507022501043200,8.904043212890626,0.23340835838019847,-0.007183920154720544,0.3619279899831861
1761507022511015000,8.914014892578125,0.22551731286942958,-0.03072437021806836,0.3317650165075436
1761507022520987100,8.923987060546875,0.28898236156404017,-0.08261354740932583,0.3321409736804664
1761507022530957800,8.933957763671875,0.3546744386583566,-0.17459712684080003,0.30381677820561453
1761507022540930000,8.943929931640625,0.434753353023529,-0.24930180082172154,0.2401595131408423
1761507022550902000,8.953902099609374,0.5171376217216253,-0.30562180006727574,0.2191744831813499
1761507022560873000,8.963873046875,0.5032949743300676,-0.35932533320412036,0.2321914934037253
1761507022570845200,8.97384521484375,0.4327706547737121,-0.3622964579693973,0.2393434475176036
1761507022580816100,8.983816162109376,0.3141962977975607,-0.3539510928198695,0.25408012113943695
1761507022590788000,8.9937880859375,0.21981530183553694,-0.34450010451599955,0.2921290620919317
1761507022600760000,9.003760009765625,0.16123568709492683,-0.33710780230760573,0.3252259701276198
1761507022610731000,9.01373095703125,0.1270896718651056,-0.33840953255593775,0.33275943437237293
1761507022620703000,9.023702880859375,0.09852174902856349,-0.33956133293956514,0.35177367571555074
1761507022630675200,9.03367529296875,0.021988544446229934,-0.3348166226305067,0.37129919104911385
1761507022640646000,9.04364599609375,-0.055205754393339156,-0.31902123373597857,0.358232131139934
1761507022650618000,9.0536181640625,-0.12128946115374564,-0.3000967530354857,0.3242776198942214
1761507022660589000,9.063589111328126,-0.2156166811019182,-0.28499241514503953,0.2705518749255687
1761507022670561000,9.07356103515625,-0.3270475960642099,-0.2655639304451644,0.22077548863720148
1761507022680533000,9.083532958984375,-0.4069605062127113,-0.24004852704703805,0.1772515686060302
1761507022690504200,9.093504150390626,-0.45202071416676043,-0.23851196512952447,0.1339606079473626
1761507022700476000,9.103475830078125,-0.48184302097856996,-0.24751170253455637,0.0881472070058342
1761507022710448000,9.1134482421875,-0.505066075655818,-0.24553163463324307,0.052096627663169054
1761507022720418800,9.123418701171875,-0.5091314253985881,-0.2356524840451777,0.01874088602820411
1761507022730391000,9.13339111328125,-0.49738545802533624,-0.20240765543878078,0.010124211390316485
1761507022740362000,9.143362060546876,-0.46492111227214333,-0.1749101383127272,0.012777538910694419
1761507022750334000,9.153333984375,-0.44244273848235605,-0.15337255250439047,0.01263908028807491
1761507022760306200,9.16330615234375,-0.3873696705579757,-0.15455240993872285,0.00805407231906429
1761507022770277000,9.173277099609376,-0.31421617154181003,-0.19476298590451477,0.014422456573508678
1761507022780249000,9.1832490234375,-0.22390344793200492,-0.27604572310149667,0.07500084391590207
1761507022790221000,9.193220947265624,0.02381517535150051,-0.37931042887344957,0.16498636313164605
1761507022800192000,9.20319189453125,0.3644704410076141,-0.4365408209621906,0.20122054627975447
1761507022810164000,9.2131640625,0.3899684548795223,-0.3755046068497002,0.14355397299714387
1761507022820135200,9.22313525390625,0.040356560307741166,-0.26486878778785466,0.03158434804826975
1761507022830107000,9.23310693359375,-0.44007600935101504,-0.06307239611521363,-0.13426266876701265
1761507022840079000,9.2430791015625,-0.8700701851487159,0.1811195143468678,-0.2195023268962279
1761507022850050000,9.253050048828126,-1.154586214953661,0.38798736406490203,-0.19546753571098668
1761507022860022000,9.26302197265625,-1.1810603803813458,0.5101607684463262,-0.11835355383232235
1761507022869994000,9.272993896484374,-0.9118681764364241,0.514808886513114,-0.03729390306780114
1761507022879965200,9.282965087890625,-0.49638709463775155,0.4358488931752741,0.07371806496321223
1761507022889937000,9.29293701171875,-0.0983867244720459,0.33988384289219975,0.17961396862212567
1761507022899907300,9.3029072265625,0.24331658893227576,0.2481746964879334,0.2662991311182268
1761507022909879600,9.312879638671875,0.4318155460059643,0.1870725775323808,0.3431531103538349
1761507022919851500,9.3228515625,0.5371896451473236,0.14334946340098975,0.41981867261156436
1761507022929822500,9.332822509765625,0.5977011047333478,0.15508388646692037,0.5188691216893494
1761507022939794400,9.34279443359375,0.5569166744023561,0.17811682539954782,0.557937980274111
1761507022949766400,9.352766357421874,0.5242389781594277,0.20762553621754049,0.5386208835268392
1761507022959737600,9.362737548828125,0.49909343098700043,0.2056064514800906,0.44798700167126954
1761507022969709300,9.372709228515625,0.4485083221316337,0.17665128289163112,0.2992015942940488
1761507022979681500,9.382681640625,0.38537469734847546,0.16594532609060406,0.1643707702502608
1761507022989652500,9.392652587890625,0.3249415636956692,0.17030965877994894,0.06884823043714278
1761507022999624400,9.40262451171875,0.25938568020164965,0.17571794756427406,0.015006208994926419
1761507023009595400,9.412595458984375,0.1441267313838005,0.21241715440824627,-0.013913041180069557
1761507023019567600,9.422567626953125,0.062079731816053384,0.2550627024360001,-0.07974310653954744
1761507023029539300,9.432539306640624,-0.09472937100827693,0.14364230886772275,-0.5409422756791115
1761507023039510500,9.442510498046875,-0.1953478000551462,-0.25149463469088074,-0.7883196112442761
1761507023049482200,9.452482177734375,-0.09101239631175995,-0.04854746554791927,-0.8399116321198642
1761507023059454500,9.462454345703126,-0.06587737053334712,-0.060630409790575504,-0.8138296078149229
1761507023069425400,9.47242529296875,-0.2202051779359579,0.015885697526484728,-0.6412771385442465
1761507023079397400,9.4823974609375,-0.17504560126066207,0.34128684155791994,-0.45518568100370466
1761507023089368300,9.492368408203125,-0.4208206892609596,0.31402883227616546,-0.3435474799662828
1761507023099340500,9.502340576171875,-0.6455576654076576,0.4555385130293667,-0.2731311325627379
1761507023109312500,9.5123125,-0.6843915461927652,0.6110258657306432,-0.0807815553423483
1761507023119283500,9.522283447265625,-0.6454466062486172,0.6893449308164418,0.17761289446540177
1761507023129255400,9.53225537109375,-0.49366088454425333,0.7304853349782526,0.3314443331858143
1761507023139227400,9.542227294921876,-0.3788064248740673,0.7251802143074572,0.41808070637043565
1761507023149198600,9.552198486328125,-0.2562514738291502,0.6968927158474921,0.46549631834421307
1761507023159170300,9.56217041015625,-0.11733049439489841,0.6740050306044518,0.46677843057662244
1761507023169141500,9.5721416015625,0.021310499054193497,0.6212016611777246,0.4369310989214107
1761507023179113500,9.582113525390625,0.17029752995073794,0.5682116831377149,0.38206601119190453
1761507023189085400,9.59208544921875,0.2805985641002655,0.5305266801267862,0.29909420666312797
1761507023199056400,9.602056396484375,0.33336335508227344,0.5135841670237481,0.23040062793157992
1761507023209028600,9.612028564453125,0.36043139474987984,0.5144276321105659,0.269541382708773
1761507023219000300,9.622000244140626,0.2704506795734167,0.5022032335706055,0.2322401548510417
1761507023228971500,9.631971435546875,0.23500001148581504,0.5345822391279041,0.14916520047504453
1761507023238943200,9.641943115234374,0.22696400454640386,0.4819643092706799,0.029870812995499
1761507023248914400,9.65191455078125,0.18154373110830782,0.399728509132564,0.021177040833677163
1761507023258886400,9.661886474609375,0.21424773083627222,0.4558592694163322,0.0073977273021824655
1761507023268858400,9.6718583984375,0.29655133551359175,0.3551233514696359,-0.11748919208794832
1761507023278829300,9.681829345703125,0.3123340110570192,0.2600187174081802,-0.21666688427459446
1761507023288801500,9.691801513671875,0.28305647864639755,0.21781506792902947,-0.3231713026201352
1761507023298773500,9.7017734375,0.16936930918991563,0.11714695452153683,-0.5712227015219629
1761507023308744400,9.711744384765625,0.04822247137725353,-0.055474634462594985,-0.9027339989967643
1761507023318716400,9.72171630859375,0.13774901304543016,-0.03675546707585454,-0.7978669725947082
1761507023328687400,9.731687255859375,0.2103758578389883,-0.0009612462475895881,-0.6592176497086882
1761507023338659600,9.74165966796875,0.2551046418815851,-0.006648644234240055,-0.5173576211478561
1761507023348631300,9.75163134765625,0.2292681898355484,0.015554127484560011,-0.49823542591817677
1761507023358602500,9.7616025390625,0.07788754180073737,-0.006688391722738742,-0.5457348437178879
1761507023368574500,9.771574462890625,-0.13217208969593047,0.06751373956352472,-0.4529320933906361
1761507023378546400,9.78154638671875,-0.2965998508304357,0.24002879943326114,-0.23612311549792064
1761507023388517400,9.791517333984375,-0.3310708602309227,0.33792481777891514,-0.05756034556231461
1761507023398489600,9.801489501953125,-0.2675473593473434,0.3106143476575613,-0.003966213916963898
1761507023408460300,9.811460205078125,-0.16761749708652496,0.2535559511348605,-0.04685712870764546
1761507023418432500,9.8214326171875,-0.06746960816085339,0.20556027425080536,-0.09025358643424697
1761507023428404200,9.831404296875,0.027666590082645416,0.1511976926833391,-0.12005040261177345
1761507023438375400,9.84137548828125,0.10648819786310196,0.10736381165385246,-0.16635248211938886
1761507023448347400,9.851347412109375,0.18122282859086988,0.07084156881198286,-0.20258418104946613
1761507023458319400,9.8613193359375,0.23815818325579166,0.03910743702948093,-0.2124399690282531
1761507023468290300,9.871290283203125,0.2760503992766142,0.0015944295845925808,-0.19151541881803422
1761507023478262500,9.881262451171875,0.2670142753839493,-0.004337883073836565,-0.1865239854726009
1761507023488233200,9.891233154296875,0.2138742213487625,0.017361761428415775,-0.15077656292812897
1761507023498205400,9.901205322265625,0.1268301441460848,0.04561243500933051,-0.12048698566444217
1761507023508177400,9.911177490234374,0.03331540962457657,0.10724150044843554,-0.06986637623743154
1761507023518148400,9.9211484375,0.013277414724230765,0.15880027664154767,-0.02254503896796377
1761507023528120600,9.93112060546875,0.0593254646718502,0.1993861156605184,0.018308082959864986
1761507023538092300,9.94109228515625,0.08068214095532894,0.2596998607173562,0.04868578717322088
1761507023548063500,9.9510634765625,0.004316694155335426,0.34678061666861176,0.039288647948438296
1761507023558035500,9.961035400390625,-0.02312193239033222,0.38636999199613925,0.016719422104000112
1761507023568006400,9.97100634765625,-0.22699615325033665,0.2709951617136597,-0.18539521890468894
1761507023577978400,9.980978271484375,-0.35636546048521994,0.2016664816826582,-0.33811606603469696
