time,seconds_elapsed,z,y,x
1761507013676153000,0.079153076171875,-0.024917148053646088,0.04866291210055351,-0.12067143619060516
1761507013686125000,0.089125,-0.03659484535455704,0.0651412233710289,-0.1277296245098114
1761507013696096300,0.09909619140625,-0.04414132237434387,0.0685480535030365,-0.12124264985322952
1761507013706068000,0.10906787109375,-0.047834329307079315,0.08065211772918701,-0.09746887534856796
1761507013716040200,0.119040283203125,-0.04461977630853653,0.07995909452438354,-0.07306674867868423
1761507013726011100,0.12901123046875,-0.04166846349835396,0.0686502456665039,-0.048354484140872955
1761507013735983000,0.138983154296875,-0.043495357036590576,0.055628515779972076,-0.038352180272340775
1761507013745955000,0.148955078125,-0.048468541353940964,0.03752061724662781,-0.04651397094130516
1761507013755926000,0.158926025390625,-0.05617546662688255,0.027072133496403694,-0.06581591069698334
1761507013765898000,0.16889794921875,-0.06585606187582016,0.024735210463404655,-0.0957580953836441
1761507013775869200,0.178869140625,-0.07350292801856995,0.032090913504362106,-0.11796639114618301
1761507013785841000,0.1888408203125,-0.0744832381606102,0.03784174472093582,-0.12541072070598602
1761507013795813000,0.198813232421875,-0.07160977274179459,0.05320946127176285,-0.12292870134115219
1761507013805784000,0.2087841796875,-0.07487188279628754,0.07985944300889969,-0.1228908821940422
1761507013815756000,0.218756103515625,-0.07613463699817657,0.09373825788497925,-0.12670277059078217
1761507013825728300,0.228728271484375,-0.07536338269710541,0.0863671600818634,-0.12825912237167358
1761507013835699200,0.23869921875,-0.07777617126703262,0.07426760345697403,-0.14103302359580994
1761507013845671200,0.248671142578125,-0.08558429777622223,0.061830103397369385,-0.1596650332212448
1761507013855642000,0.25864208984375,-0.09849636256694794,0.04657045751810074,-0.16441158950328827
1761507013865614000,0.268614013671875,-0.11021320521831512,0.027481984347105026,-0.1642315536737442
1761507013875586000,0.2785859375,-0.11394576728343964,0.00006192200817167759,-0.1468794047832489
1761507013885557500,0.2885576171875,-0.11255507171154022,-0.024303605780005455,-0.13321979343891144
1761507013895529200,0.298529296875,-0.11207796633243561,-0.05523797124624252,-0.11473662406206131
1761507013905501400,0.30850146484375,-0.11736727505922318,-0.07115488499403,-0.10260273516178131
1761507013915472400,0.318472412109375,-0.11714325100183487,-0.08004719018936157,-0.10128096491098404
1761507013925444400,0.3284443359375,-0.1284680813550949,-0.07440102100372314,-0.10455825179815292
1761507013935415300,0.338415283203125,-0.14007587730884552,-0.06290297210216522,-0.10423943400382996
1761507013945387300,0.34838720703125,-0.15299886465072632,-0.04948943108320236,-0.10207774490118027
1761507013955359200,0.358359130859375,-0.15641777217388153,-0.03258129209280014,-0.09853223711252213
1761507013965330400,0.368330322265625,-0.14803947508335114,-0.015957307070493698,-0.0982307642698288
1761507013975302100,0.37830224609375,-0.13409161567687988,-0.03056245855987072,-0.09800154715776443
1761507013985274400,0.3882744140625,-0.14496183395385742,-0.05117958411574364,-0.10175234079360962
1761507013995245300,0.398245361328125,-0.16382379829883575,-0.05717334523797035,-0.09258368611335754
1761507014005217300,0.40821728515625,-0.18269522488117218,-0.052812688052654266,-0.08803873509168625
1761507014015188200,0.418188232421875,-0.19070233404636383,-0.03409961238503456,-0.09105093032121658
1761507014025160200,0.42816015625,-0.19038036465644836,-0.004268747754395008,-0.09131777286529541
1761507014035132400,0.43813232421875,-0.1793912649154663,0.023055994883179665,-0.09245467185974121
1761507014045103400,0.448103271484375,-0.16762514412403107,0.032808490097522736,-0.09612397849559784
1761507014055075300,0.458075439453125,-0.15339697897434235,0.031130889430642128,-0.09281321614980698
1761507014065047300,0.46804736328125,-0.14660832285881042,0.011910856701433659,-0.07761774957180023
1761507014075018500,0.4780185546875,-0.15140797197818756,-0.014071204699575901,-0.049017876386642456
1761507014084990200,0.487990234375,-0.15186522901058197,-0.03607024624943733,-0.009410809725522995
1761507014094962400,0.49796240234375,-0.15254326164722443,-0.05596074461936951,0.02477188967168331
1761507014104933400,0.507933349609375,-0.1518833190202713,-0.07109788805246353,0.02415217086672783
1761507014114905300,0.5179052734375,-0.1453772485256195,-0.0814424604177475,-0.0037755980156362057
1761507014124876300,0.527876220703125,-0.12927179038524628,-0.08860290050506592,-0.07005155831575394
1761507014134848300,0.53784814453125,-0.11491566151380539,-0.09039318561553955,-0.15071532130241394
1761507014144820200,0.5478203125,-0.10395222902297974,-0.08269958198070526,-0.22665615379810333
1761507014154791400,0.55779150390625,-0.10637204349040985,-0.08543502539396286,-0.308734267950058
1761507014164763100,0.56776318359375,-0.11141660809516907,-0.08068128675222397,-0.3693086504936218
1761507014174735400,0.5777353515625,-0.1134989857673645,-0.08950594067573547,-0.38897985219955444
1761507014184706300,0.587706298828125,-0.11442975699901581,-0.10166486352682114,-0.37261953949928284
1761507014194678300,0.59767822265625,-0.10759590566158295,-0.10430730879306793,-0.3285676836967468
1761507014204649200,0.607649169921875,-0.0987938940525055,-0.09866753220558167,-0.2648286521434784
1761507014214621200,0.61762109375,-0.08194353431463242,-0.08046860992908478,-0.20138493180274963
1761507014224593400,0.627593505859375,-0.055387020111083984,-0.0480068102478981,-0.1451549530029297
1761507014234564400,0.637564453125,-0.021104101091623306,-0.014249911531805992,-0.11199110001325607
1761507014244536300,0.647536376953125,0.008379755541682243,0.01409997045993805,-0.08745646476745605
1761507014254508300,0.65750830078125,0.027209751307964325,0.023383386433124542,-0.07018852233886719
1761507014264479500,0.6674794921875,0.027094170451164246,0.011385313235223293,-0.051755983382463455
1761507014274451200,0.677451171875,0.018334034830331802,-0.018391607329249382,-0.031459130346775055
1761507014284423400,0.68742333984375,0.006658203434199095,-0.05646735429763794,-0.006503712385892868
1761507014294394400,0.697394287109375,0.0012991013936698437,-0.09515108913183212,0.009679300710558891
1761507014304366300,0.707366455078125,-0.0034956536255776882,-0.12087109684944153,0.01129503920674324
1761507014314337300,0.717337158203125,-0.01222832128405571,-0.1303957998752594,0.0061210086569190025
1761507014324309200,0.727309326171875,-0.022981099784374237,-0.1212955042719841,-0.016937172040343285
1761507014334281200,0.73728125,-0.04564766585826874,-0.09386127442121506,-0.044389378279447556
1761507014344252400,0.74725244140625,-0.07259006798267365,-0.06671646982431412,-0.07237546890974045
1761507014354224000,0.75722412109375,-0.10481619834899902,-0.04448141157627106,-0.10675772279500961
1761507014364196400,0.7671962890625,-0.12737742066383362,-0.020461300387978554,-0.13074959814548492
1761507014374167300,0.777167236328125,-0.13793791830539703,-0.002230896847322583,-0.1489800065755844
1761507014384139300,0.78713916015625,-0.13683751225471497,0.020512498915195465,-0.15425118803977966
1761507014394110200,0.797110107421875,-0.12870077788829803,0.03195393085479736,-0.1404106765985489
1761507014404082200,0.807082275390625,-0.11131752282381058,0.038824085146188736,-0.11304882168769836
1761507014414054400,0.817054443359375,-0.09813831746578217,0.04106225073337555,-0.07263410091400146
1761507014424025300,0.827025390625,-0.08648965507745743,0.038029707968235016,-0.027871157974004745
1761507014433997300,0.836997314453125,-0.0725056603550911,0.030435968190431595,0.00829297211021185
1761507014443969300,0.84696923828125,-0.059383999556303024,0.025929367169737816,0.033640939742326736
1761507014453940500,0.8569404296875,-0.048178914934396744,0.023071791976690292,0.05032465234398842
1761507014463912200,0.866912109375,-0.03745303303003311,0.03597906604409218,0.05303388833999634
1761507014473884400,0.876884521484375,-0.025063294917345047,0.04391017183661461,0.053098298609256744
1761507014483855400,0.88685546875,-0.016556626185774803,0.04887350648641586,0.03176824003458023
1761507014493827300,0.896827392578125,-0.012752240523695946,0.053777895867824554,0.011377179995179176
1761507014503798300,0.90679833984375,-0.006073832046240568,0.06314875930547714,-0.010192828252911568
1761507014513770200,0.916770263671875,-0.002675313036888838,0.06627141684293747,-0.023606711998581886
1761507014523742200,0.9267421875,0.008103564381599426,0.07010609656572342,-0.0189437847584486
1761507014533713400,0.93671337890625,0.02097316086292267,0.06944967806339264,-0.008849795907735825
1761507014543685000,0.94668505859375,0.04168935865163803,0.06763766705989838,0.0024068537168204784
1761507014553657300,0.9566572265625,0.06434307992458344,0.0600576288998127,0.016224665567278862
1761507014563628500,0.966628662109375,0.08632667362689972,0.04477747529745102,0.025743069127202034
1761507014573600300,0.976600341796875,0.10625249892473221,0.02394462749361992,0.03892175853252411
1761507014583572500,0.986572509765625,0.12065433710813522,0.006202115211635828,0.04677755385637283
1761507014593543200,0.996543212890625,0.1310630887746811,-0.018042773008346558,0.05288128927350044
1761507014603515400,1.006515380859375,0.14169974625110626,-0.05078021436929703,0.05600278079509735
1761507014613486300,1.016486328125,0.1437474936246872,-0.07996643334627151,0.04814634099602699
1761507014623458300,1.026458251953125,0.1388283669948578,-0.09065423160791397,0.03694269061088562
1761507014633430300,1.03643017578125,0.13270628452301025,-0.09149732440710068,0.04579100385308266
1761507014643401500,1.0464013671875,0.12950515747070312,-0.06187685206532478,0.06641532480716705
1761507014653373200,1.056373291015625,0.13106632232666016,-0.014192215166985989,0.09148183465003967
1761507014663345400,1.066345458984375,0.1400904357433319,0.04625062271952629,0.11753953248262405
1761507014673316400,1.07631640625,0.15445829927921295,0.10831239074468613,0.13445094227790833
1761507014683288300,1.086288330078125,0.1671418696641922,0.153386652469635,0.13028976321220398
1761507014693259300,1.09625927734375,0.17636851966381073,0.13287201523780823,0.10042552649974823
1761507014703231200,1.106231201171875,0.18556414544582367,0.062447912991046906,0.06234817951917648
1761507014713203500,1.116203369140625,0.18255871534347534,-0.022637255489826202,0.034152302891016006
1761507014723174400,1.12617431640625,0.1644178032875061,-0.11320337653160095,0.027538077905774117
1761507014733146400,1.136146484375,0.13894332945346832,-0.1815841943025589,0.04675773158669472
1761507014743118300,1.146118408203125,0.10880248248577118,-0.20112355053424835,0.09606774896383286
1761507014753089500,1.156089599609375,0.08647601306438446,-0.17568886280059814,0.1445242017507553
1761507014763061200,1.166061279296875,0.07487501204013824,-0.1364479809999466,0.17256009578704834
1761507014773032400,1.176032470703125,0.06460535526275635,-0.1161298155784607,0.18589690327644348
1761507014783004200,1.186004150390625,0.05305975303053856,-0.1518353521823883,0.21441322565078735
1761507014792976400,1.195976318359375,0.036448851227760315,-0.21458974480628967,0.25216513872146606
1761507014802947300,1.205947265625,0.015222126618027687,-0.2688162326812744,0.23533767461776733
1761507014812919300,1.215919189453125,-0.00603383406996727,-0.3255332112312317,0.1745017021894455
1761507014822891300,1.225891357421875,-0.02269137278199196,-0.36754459142684937,0.07765078544616699
1761507014832862500,1.235862548828125,-0.0359913669526577,-0.35288068652153015,-0.004617652390152216
1761507014842834200,1.245834228515625,-0.05169602856040001,-0.2798275351524353,-0.0644112080335617
1761507014852806400,1.255806396484375,-0.07096004486083984,-0.15100523829460144,-0.09799222648143768
1761507014862777300,1.26577734375,-0.09047968685626984,0.011247573420405388,-0.11420288681983948
1761507014872749300,1.275749267578125,-0.09364552050828934,0.18322443962097168,-0.10659762471914291
1761507014882720300,1.28572021484375,-0.09191819280385971,0.3241403102874756,-0.09651143103837967
1761507014892692000,1.29569189453125,-0.07562604546546936,0.4008742570877075,-0.08707722276449203
1761507014902664200,1.305664306640625,-0.05312606319785118,0.40022391080856323,-0.06200116500258446
1761507014912635100,1.31563525390625,-0.034044813364744186,0.34519320726394653,-0.011703753843903542
1761507014922607000,1.325607177734375,-0.018550807610154152,0.27019912004470825,0.049433633685112
1761507014932579000,1.3355791015625,0.0008037816733121872,0.17459352314472198,0.10925766825675964
1761507014942550300,1.34555029296875,0.01725093089044094,0.0885675698518753,0.14426492154598236
1761507014952522000,1.35552197265625,0.04202539846301079,0.009984759613871574,0.15266822278499603
1761507014962493200,1.3654931640625,0.06627267599105835,-0.052597396075725555,0.13131499290466309
1761507014972465200,1.375465087890625,0.07871489226818085,-0.09936778247356415,0.09393391758203506
1761507014982437000,1.38543701171875,0.08716216683387756,-0.12869957089424133,0.04046403616666794
1761507014992408000,1.395407958984375,0.09028364717960358,-0.14684389531612396,-0.013177660293877125
1761507015002380000,1.405380126953125,0.09126236289739609,-0.1583535373210907,-0.051659006625413895
1761507015012352300,1.415352294921875,0.08777185529470444,-0.16867676377296448,-0.07959815114736557
1761507015022323200,1.4253232421875,0.07598736882209778,-0.17385421693325043,-0.08992642164230347
1761507015032295200,1.435295166015625,0.06112796068191528,-0.18311016261577606,-0.08661273121833801
1761507015042266000,1.44526611328125,0.047185514122247696,-0.17829890549182892,-0.06191164255142212
1761507015052238300,1.45523828125,0.04740282520651817,-0.1664155274629593,-0.04321404919028282
1761507015062210000,1.4652099609375,0.057999275624752045,-0.14679574966430664,-0.03250787407159805
1761507015072181200,1.47518115234375,0.07023550570011139,-0.11563239246606827,-0.027047593146562576
1761507015082153000,1.485153076171875,0.08082503080368042,-0.07702667266130447,-0.03285275027155876
1761507015092125200,1.495125244140625,0.08105526864528656,-0.03428448736667633,-0.040633898228406906
1761507015102096100,1.50509619140625,0.07271718233823776,0.012874234467744827,-0.04620176926255226
1761507015112068000,1.515068115234375,0.059885695576667786,0.05675891041755676,-0.042852550745010376
1761507015122039000,1.5250390625,0.0580262765288353,0.09089265018701553,-0.031158611178398132
1761507015132011300,1.53501123046875,0.06321202218532562,0.10740046948194504,-0.01718861423432827
1761507015141983000,1.54498291015625,0.07481088489294052,0.09516190737485886,-0.02006669156253338
1761507015151954200,1.5549541015625,0.08682955056428909,0.058386798948049545,-0.03399380296468735
1761507015161926100,1.564926025390625,0.09274522960186005,0.026664556935429573,-0.045599859207868576
1761507015171898000,1.574898193359375,0.09321998059749603,-0.004383162595331669,-0.04908491298556328
1761507015181869300,1.584869384765625,0.0964868813753128,-0.024986974895000458,-0.05239468812942505
1761507015191841000,1.594841064453125,0.09465315192937851,-0.035940442234277725,-0.05620349943637848
1761507015201813200,1.604813232421875,0.09393676370382309,-0.04203375428915024,-0.05549243837594986
1761507015211784200,1.6147841796875,0.09080798178911209,-0.04738590866327286,-0.046674784272909164
1761507015221756200,1.624756103515625,0.09126604348421097,-0.046995487064123154,-0.029368232935667038
1761507015231727000,1.63472705078125,0.09241771697998047,-0.04830272123217583,-0.013311998918652534
1761507015241699300,1.64469921875,0.09091009944677353,-0.05100875720381737,0.0055306656286120415
1761507015251671000,1.654671142578125,0.08578339964151382,-0.05375262349843979,0.020137686282396317
1761507015261642200,1.664642333984375,0.07386122643947601,-0.05367618799209595,0.03170273080468178
1761507015271614000,1.674614013671875,0.06435960531234741,-0.04881032928824425,0.02688640169799328
1761507015281586200,1.684586181640625,0.05126670375466347,-0.03692224249243736,0.022216282784938812
1761507015291557000,1.69455712890625,0.04362086206674576,-0.013864969834685326,0.020341074094176292
1761507015301529000,1.704529052734375,0.03934222832322121,0.0013997363857924938,0.02117144875228405
1761507015311500000,1.7145,0.035671647638082504,0.011160856112837791,0.02066989615559578
1761507015321472300,1.72447216796875,0.022364629432559013,0.010015164501965046,0.032075416296720505
1761507015331444200,1.7344443359375,0.0050796158611774445,-0.002203133888542652,0.03273938223719597
1761507015341415200,1.744415283203125,-0.011319064535200596,-0.02375369891524315,0.030564911663532257
1761507015351387100,1.75438720703125,-0.03192615136504173,-0.05294376239180565,0.019538208842277527
1761507015361359000,1.764359130859375,-0.04215482249855995,-0.06587713956832886,0.016208723187446594
1761507015371330300,1.774330322265625,-0.044482726603746414,-0.061683785170316696,0.024470383301377296
1761507015381302000,1.784302001953125,-0.04307657480239868,-0.05128813162446022,0.040117520838975906
1761507015391274200,1.794274169921875,-0.04565148800611496,-0.03884212300181389,0.07262280583381653
1761507015401245200,1.8042451171875,-0.053669996559619904,-0.034617818892002106,0.09527751803398132
1761507015411217200,1.814217041015625,-0.06675883382558823,-0.0404960960149765,0.1034795269370079
1761507015421188000,1.82418798828125,-0.08689525723457336,-0.044667407870292664,0.10040144622325897
1761507015431160300,1.834160400390625,-0.11299324780702591,-0.02580871619284153,0.09649017453193665
1761507015441132000,1.844132080078125,-0.13894201815128326,0.00846510287374258,0.09328319132328033
1761507015451103200,1.854103271484375,-0.1598057895898819,0.04871154949069023,0.09379592537879944
1761507015461075000,1.864074951171875,-0.17850570380687714,0.07682707160711288,0.10109378397464752
1761507015471046100,1.874046142578125,-0.19270455837249756,0.09155391901731491,0.11997845768928528
1761507015481018000,1.88401806640625,-0.20277637243270874,0.09488473832607269,0.13694171607494354
1761507015490990000,1.893989990234375,-0.20485374331474304,0.08215801417827606,0.16743315756320953
1761507015500961000,1.9039609375,-0.20532485842704773,0.06236033886671066,0.21379347145557404
1761507015510933200,1.913933349609375,-0.21308429539203644,0.056901026517152786,0.2808559536933899
1761507015520905200,1.9239052734375,-0.22059786319732666,0.0748017281293869,0.35748547315597534
1761507015530876200,1.933876220703125,-0.22956597805023193,0.050731439143419266,0.3732356131076813
1761507015540848000,1.94384814453125,-0.24053740501403809,0.012939851731061935,0.30381977558135986
1761507015550820000,1.953820068359375,-0.26310425996780396,-0.04065249115228653,0.17555275559425354
1761507015560791300,1.963791259765625,-0.28796514868736267,-0.09343580901622772,0.017717590555548668
1761507015570763000,1.973762939453125,-0.3203926086425781,-0.12162242084741592,-0.12444297224283218
1761507015580734200,1.983734130859375,-0.3578489124774933,-0.11129201948642731,-0.2217753827571869
1761507015590706200,1.9937060546875,-0.39284342527389526,-0.08347946405410767,-0.2681177258491516
1761507015600678100,2.00367822265625,-0.4077480733394623,-0.027741894125938416,-0.26519063115119934
1761507015610649000,2.013649169921875,-0.3953585922718048,0.05559086054563522,-0.22366733849048615
1761507015620621300,2.023621337890625,-0.3568282425403595,0.15244336426258087,-0.14741730690002441
1761507015630593000,2.033593017578125,-0.30857959389686584,0.2353755384683609,-0.07429717481136322
1761507015640564200,2.043564208984375,-0.2659445106983185,0.27887481451034546,-0.02139747142791748
1761507015650536000,2.053535888671875,-0.23401474952697754,0.27652961015701294,0.03011137805879116
1761507015660507100,2.063507080078125,-0.20308665931224823,0.23678569495677948,0.06482727825641632
1761507015670479000,2.07347900390625,-0.17280371487140656,0.1731337308883667,0.09450965374708176
1761507015680451000,2.083451171875,-0.13964790105819702,0.11090444773435593,0.1166013777256012
1761507015690422000,2.093422119140625,-0.09583873301744461,0.05140160769224167,0.12367396801710129
1761507015700394200,2.103394287109375,-0.05903171747922897,-0.025593310594558716,0.13324962556362152
1761507015710366200,2.1133662109375,-0.03134796395897865,-0.111585833132267,0.14853352308273315
1761507015720337200,2.123337158203125,-0.022512394934892654,-0.19121673703193665,0.15906712412834167
1761507015730309000,2.13330908203125,-0.029280459508299828,-0.2622489631175995,0.17791129648685455
1761507015740280000,2.143280029296875,-0.04168573394417763,-0.29719388484954834,0.19192378222942352
1761507015750252300,2.153252197265625,-0.0645565614104271,-0.2836261987686157,0.20031586289405823
1761507015760224000,2.16322412109375,-0.08360189199447632,-0.23329219222068787,0.1965339034795761
1761507015770195200,2.1731953125,-0.11167822778224945,-0.16431306302547455,0.17723985016345978
1761507015780167200,2.183167236328125,-0.14728496968746185,-0.0890638455748558,0.14322461187839508
1761507015790139100,2.19313916015625,-0.1875792294740677,-0.01427632849663496,0.10789830982685089
1761507015800110000,2.203110107421875,-0.2363385260105133,0.06095530837774277,0.05790412053465843
1761507015810082300,2.213082275390625,-0.2741948664188385,0.12373603135347366,-0.002130907727405429
1761507015820053000,2.223052978515625,-0.2974059283733368,0.16003145277500153,-0.051640138030052185
1761507015830025200,2.233025146484375,-0.3142898380756378,0.1742999404668808,-0.07642780989408493
1761507015839997000,2.242996826171875,-0.3197104334831238,0.15897077322006226,-0.083193838596344
1761507015849968000,2.252968017578125,-0.3237721920013428,0.11615023761987686,-0.07375061511993408
1761507015859940000,2.262940185546875,-0.3311438262462616,0.046120285987854004,-0.05514470487833023
1761507015869912000,2.272912109375,-0.33673912286758423,-0.02928541973233223,-0.033311691135168076
1761507015879883000,2.282883056640625,-0.3461422026157379,-0.08060666173696518,-0.010699323378503323
1761507015889855500,2.29285546875,-0.3484081029891968,-0.09108886122703552,-0.0031083242502063513
1761507015899827200,2.3028271484375,-0.3497801721096039,-0.056081343442201614,-0.015105332247912884
1761507015909798400,2.31279833984375,-0.3390561640262604,0.009886222891509533,-0.03604390099644661
1761507015919770400,2.322770263671875,-0.3234577476978302,0.07414936274290085,-0.0627887025475502
1761507015929741300,2.3327412109375,-0.31671980023384094,0.11853829026222229,-0.08545300364494324
1761507015939713300,2.34271337890625,-0.31229281425476074,0.13079868257045746,-0.0909457728266716
1761507015949685200,2.352685302734375,-0.3090254068374634,0.10854819416999817,-0.08309921622276306
1761507015959656200,2.36265625,-0.30260133743286133,0.0648859366774559,-0.06286025792360306
1761507015969628400,2.37262841796875,-0.29639682173728943,0.01729193702340126,-0.036895543336868286
1761507015979600100,2.38260009765625,-0.28238460421562195,-0.01179750356823206,-0.02314697578549385
1761507015989571300,2.3925712890625,-0.26162782311439514,-0.016246197745203972,-0.01591356284916401
1761507015999543300,2.402543212890625,-0.23858323693275452,-0.011497515253722668,-0.026890315115451813
1761507016009514200,2.41251416015625,-0.22562111914157867,0.005107603967189789,-0.04266566410660744
1761507016019486200,2.422486328125,-0.22630634903907776,0.01595199666917324,-0.06717686355113983
1761507016029458200,2.432458251953125,-0.2335222363471985,0.021723704412579536,-0.10033124685287476
1761507016039429000,2.44242919921875,-0.24027574062347412,0.006747684441506863,-0.14086055755615234
1761507016049401300,2.4524013671875,-0.24337048828601837,-0.03120534121990204,-0.1818528026342392
1761507016059373300,2.462373291015625,-0.2410532683134079,-0.07917127013206482,-0.22488389909267426
1761507016069344300,2.47234423828125,-0.2444504201412201,-0.12880001962184906,-0.2604678273200989
1761507016079316500,2.48231640625,-0.23967057466506958,-0.160896435379982,-0.2924230992794037
1761507016089287200,2.492287109375,-0.24111708998680115,-0.1583489179611206,-0.3100605010986328
1761507016099259400,2.50225927734375,-0.2395532727241516,-0.13540925085544586,-0.3164787292480469
1761507016109231400,2.5122314453125,-0.23897714912891388,-0.11098837107419968,-0.3266448974609375
1761507016119202300,2.522202392578125,-0.22570395469665527,-0.0864739790558815,-0.34106990694999695
1761507016129174300,2.53217431640625,-0.20404331386089325,-0.06452617794275284,-0.3431462049484253
1761507016139146200,2.542146240234375,-0.18014836311340332,-0.04165974259376526,-0.33473140001296997
1761507016149117200,2.5521171875,-0.16038158535957336,-0.0295809768140316,-0.3066531717777252
1761507016159089400,2.56208935546875,-0.14131920039653778,-0.02655988745391369,-0.26820245385169983
1761507016169060400,2.572060302734375,-0.11779298633337021,-0.03318508341908455,-0.22467049956321716
1761507016179032300,2.5820322265625,-0.09217523783445358,-0.050900962203741074,-0.18699103593826294
1761507016189004300,2.59200439453125,-0.06753898411989212,-0.06992126256227493,-0.16547365486621857
1761507016198975200,2.601975341796875,-0.046737030148506165,-0.07586730271577835,-0.15241403877735138
1761507016208947200,2.611947265625,-0.025832608342170715,-0.0680902823805809,-0.13716991245746613
1761507016218919200,2.621919189453125,-0.0059632956981658936,-0.04504168778657913,-0.11353489011526108
1761507016228890000,2.63189013671875,0.009115701541304588,-0.02441476285457611,-0.08403483033180237
1761507016238862300,2.6418623046875,0.023834994062781334,-0.014913401566445827,-0.06264032423496246
1761507016248833300,2.651833251953125,0.03562476485967636,-0.017845170572400093,-0.04454349726438522
1761507016258805200,2.66180517578125,0.04673813283443451,-0.03845164552330971,-0.039856068789958954
1761507016268777500,2.671777587890625,0.052559591829776764,-0.06951811909675598,-0.05100839585065842
1761507016278748200,2.681748046875,0.05145464837551117,-0.10689079016447067,-0.06006927043199539
1761507016288720400,2.691720458984375,0.049182161688804626,-0.14218640327453613,-0.06703880429267883
1761507016298692400,2.7016923828125,0.04975048080086708,-0.16489118337631226,-0.06525421887636185
1761507016308663300,2.711663330078125,0.05560746043920517,-0.16488008201122284,-0.05209336802363396
1761507016318635300,2.72163525390625,0.053778402507305145,-0.14191937446594238,-0.02366066165268421
1761507016328607200,2.731607177734375,0.05016041919589043,-0.09455288201570511,0.007631063461303711
1761507016338578200,2.741578125,0.04493636265397072,-0.036344975233078,0.04271634668111801
1761507016348550400,2.75155029296875,0.0428730845451355,0.021739153191447258,0.0749574527144432
1761507016358521300,2.761521240234375,0.04442810267210007,0.06680862605571747,0.10802245885133743
1761507016368493300,2.771493408203125,0.049370042979717255,0.09509667009115219,0.13713982701301575
1761507016378465300,2.78146533203125,0.05122733488678932,0.10574159026145935,0.16247661411762238
1761507016388436200,2.791436279296875,0.05062578245997429,0.09376119077205658,0.17311079800128937
1761507016398408200,2.801408203125,0.05177999660372734,0.0785771831870079,0.16977278888225555
1761507016408379400,2.81137939453125,0.05074148625135422,0.06949777901172638,0.1745785027742386
1761507016418351000,2.82135107421875,0.06111583113670349,0.07023973762989044,0.18362286686897278
1761507016428323300,2.8313232421875,0.06896105408668518,0.08066492527723312,0.19621318578720093
1761507016438294300,2.841294189453125,0.075541190803051,0.05956309661269188,0.16102324426174164
1761507016448266200,2.851266357421875,0.07184495776891708,0.004378427751362324,0.07597208023071289
1761507016458238500,2.861238525390625,0.05400790274143219,-0.0231139175593853,-0.02519182860851288
1761507016468209200,2.871209228515625,0.02708481252193451,-0.010432157665491104,-0.1304132491350174
1761507016478181400,2.881181396484375,0.008546280674636364,-0.024224668741226196,-0.20645421743392944
1761507016488153300,2.8911533203125,0.0010751294903457165,-0.05981520190834999,-0.2167423814535141
1761507016498124300,2.901124267578125,0.010033470578491688,-0.1030431017279625,-0.16080881655216217
1761507016508096300,2.91109619140625,0.027200423181056976,-0.15015149116516113,-0.049791786819696426
1761507016518067500,2.9210673828125,0.061013247817754745,-0.16789159178733826,0.11082559078931808
1761507016528039200,2.9310390625,0.09045477211475372,-0.15897299349308014,0.25887420773506165
1761507016538011400,2.941011474609375,0.12171575427055359,-0.12467122822999954,0.3570004999637604
1761507016547982300,2.950982421875,0.13800351321697235,-0.0819413885474205,0.39566659927368164
1761507016557954300,2.960954345703125,0.1434539407491684,-0.04805053025484085,0.3926772177219391
1761507016567926300,2.97092626953125,0.1273689568042755,-0.018144236877560616,0.34323158860206604
1761507016577897200,2.980897216796875,0.09971044212579727,-0.005756010301411152,0.26687610149383545
1761507016587869200,2.990869140625,0.06481083482503891,-0.00551489507779479,0.18186445534229279
1761507016597840400,3.00084033203125,0.030802002176642418,-0.010927503928542137,0.0947766900062561
1761507016607812000,3.01081201171875,-0.002049074973911047,-0.017118070274591446,0.030832748860120773
1761507016617784300,3.020784423828125,-0.0344616062939167,-0.012057531625032425,-0.005042425822466612
1761507016627755300,3.03075537109375,-0.06059548258781433,-0.0017685103230178356,-0.024169402197003365
1761507016637727200,3.040727294921875,-0.0765153244137764,0.020053165033459663,-0.04461715370416641
1761507016647699500,3.050699462890625,-0.08702526241540909,0.05154818296432495,-0.05358374863862991
1761507016657670100,3.060670166015625,-0.08620208501815796,0.07572435587644577,-0.04723476991057396
1761507016667642400,3.070642333984375,-0.07252553105354309,0.10545827448368073,-0.038627587258815765
1761507016677614300,3.0806142578125,-0.05024765804409981,0.1355336308479309,-0.027381595224142075
1761507016687585300,3.090585205078125,-0.025104673579335213,0.15651768445968628,-0.012440839782357216
1761507016697557200,3.10055712890625,-0.004428157117217779,0.1598016321659088,0.0034587641712278128
1761507016707528400,3.110528564453125,0.011311082169413567,0.1571793258190155,0.012884603813290596
1761507016717500200,3.120500244140625,0.03226163983345032,0.1472417414188385,0.025260578840970993
1761507016727472400,3.130472412109375,0.06240640580654144,0.13303716480731964,0.05552870035171509
1761507016737443300,3.140443359375,0.10064247250556946,0.12567353248596191,0.09191067516803741
1761507016747415300,3.150415283203125,0.14920058846473694,0.10984211415052414,0.13999903202056885
1761507016757386200,3.16038623046875,0.199555903673172,0.07889538258314133,0.17564916610717773
1761507016767358200,3.170358154296875,0.24563781917095184,0.03272799775004387,0.18370957672595978
1761507016777330200,3.180330078125,0.28495511412620544,-0.02473422884941101,0.17386600375175476
1761507016787301400,3.19030126953125,0.3137257695198059,-0.08826938271522522,0.16484510898590088
1761507016797273000,3.200273193359375,0.3278365433216095,-0.16304054856300354,0.156300887465477
1761507016807245300,3.210245361328125,0.32614293694496155,-0.22915063798427582,0.15223906934261322
1761507016817216300,3.22021630859375,0.3326602280139923,-0.2772537171840668,0.16213591396808624
1761507016827188200,3.230188232421875,0.33747169375419617,-0.3154955804347992,0.15767788887023926
1761507016837160400,3.240160400390625,0.3477994501590729,-0.33583226799964905,0.13844187557697296
1761507016847131100,3.250131103515625,0.3493819236755371,-0.33217495679855347,0.10092490166425705
1761507016857103400,3.260103271484375,0.34145447611808777,-0.30578863620758057,0.05070248246192932
1761507016867074300,3.27007421875,0.3236088752746582,-0.2511671185493469,0.0014919054228812456
1761507016877046300,3.28004638671875,0.30221810936927795,-0.16643385589122772,-0.05347760394215584
1761507016887017200,3.290017333984375,0.27287977933883667,-0.0746191218495369,-0.09165078401565552
1761507016896988400,3.299988525390625,0.2506956458091736,0.008823304437100887,-0.10716608911752701
1761507016906960100,3.309960205078125,0.22985957562923431,0.05080542340874672,-0.10186251997947693
1761507016916932400,3.319932373046875,0.213743194937706,0.051142312586307526,-0.08549579977989197
1761507016926903300,3.3299033203125,0.21087190508842468,0.02072826400399208,-0.052084505558013916
1761507016936875300,3.339875244140625,0.2038792371749878,-0.018068132922053337,-0.015483616851270199
1761507016946846200,3.34984619140625,0.19269755482673645,-0.049350738525390625,-0.0006624021916650236
1761507016956818400,3.359818359375,0.17212171852588654,-0.06182072311639786,-0.004541296046227217
1761507016966790100,3.3697900390625,0.14679962396621704,-0.037515491247177124,-0.0349014475941658
1761507016976761300,3.37976123046875,0.11730058491230011,0.01809930056333542,-0.08281490951776505
1761507016986733300,3.3897333984375,0.09236706048250198,0.09576517343521118,-0.13682709634304047
1761507016996705300,3.399705322265625,0.07198775559663773,0.1686076819896698,-0.17847786843776703
1761507017006676200,3.40967626953125,0.06363248825073242,0.20972177386283875,-0.20227329432964325
1761507017016648200,3.419648193359375,0.060631103813648224,0.21580283343791962,-0.19748519361019135
1761507017026619100,3.429619140625,0.055562958121299744,0.1945212483406067,-0.17481672763824463
1761507017036591400,3.43959130859375,0.045947350561618805,0.16443125903606415,-0.14858485758304596
1761507017046563300,3.449563232421875,0.04305418208241463,0.13732336461544037,-0.1335442215204239
1761507017056534300,3.4595341796875,0.04053350165486336,0.1154971718788147,-0.13132287561893463
1761507017066506500,3.469506591796875,0.03952331468462944,0.10637664794921875,-0.13673844933509827
1761507017076478200,3.479478271484375,0.040572866797447205,0.10357633233070374,-0.14339953660964966
1761507017086449400,3.489449462890625,0.0347307026386261,0.09757297486066818,-0.1494525969028473
1761507017096421000,3.499421142578125,0.031286437064409256,0.0927228257060051,-0.15814462304115295
1761507017106392300,3.509392333984375,0.01796897128224373,0.09490961581468582,-0.17453831434249878
1761507017116364300,3.5193642578125,0.00874138344079256,0.10098694264888763,-0.19001741707324982
1761507017126336300,3.529336181640625,-0.002529019955545664,0.10807004570960999,-0.21259070932865143
1761507017136307200,3.53930712890625,-0.015920991078019142,0.11935199797153473,-0.24167056381702423
1761507017146279400,3.549279541015625,-0.025378582999110222,0.13403576612472534,-0.25928211212158203
1761507017156251100,3.559251220703125,-0.03991331532597542,0.13980549573898315,-0.2682018280029297
1761507017166222300,3.569222412109375,-0.05321526154875755,0.1443842202425003,-0.25963735580444336
1761507017176194300,3.5791943359375,-0.060555730015039444,0.14034420251846313,-0.24245516955852509
1761507017186165200,3.589165283203125,-0.062344152480363846,0.12468177825212479,-0.20727930963039398
1761507017196137200,3.59913720703125,-0.06270607560873032,0.09569300711154938,-0.1576656848192215
1761507017206109200,3.609109130859375,-0.053493648767471313,0.05777069926261902,-0.10794533789157867
1761507017216080100,3.619080078125,-0.04986269772052765,0.010922769084572792,-0.061077430844306946
1761507017226052400,3.62905224609375,-0.048791490495204926,-0.03579657897353172,-0.020860882475972176
1761507017236024300,3.6390244140625,-0.05946490541100502,-0.06872310489416122,0.006440514698624611
1761507017245995300,3.648995361328125,-0.07888491451740265,-0.08223336935043335,0.011377065442502499
1761507017255967500,3.658967529296875,-0.0976889580488205,-0.0710667297244072,-0.013067557476460934
1761507017265938200,3.668938232421875,-0.11544334143400192,-0.028256913647055626,-0.04766841605305672
1761507017275910400,3.678910400390625,-0.13283778727054596,0.020788926631212234,-0.07084724307060242
1761507017285882000,3.688882080078125,-0.1384160965681076,0.07798437029123306,-0.06436944007873535
1761507017295853300,3.698853271484375,-0.1438305675983429,0.11949319392442703,-0.02884846180677414
1761507017305825300,3.7088251953125,-0.1481482982635498,0.13120438158512115,0.022909345105290413
1761507017315797200,3.71879736328125,-0.14690352976322174,0.10045339167118073,0.07324442267417908
1761507017325768200,3.728768310546875,-0.1464090496301651,0.04817603528499603,0.11289466917514801
1761507017335740400,3.738740478515625,-0.15101152658462524,-0.011764531955122948,0.13403192162513733
1761507017345712000,3.748712158203125,-0.15812614560127258,-0.05047406628727913,0.13447631895542145
1761507017355683300,3.758683349609375,-0.166931614279747,-0.04363507032394409,0.13644252717494965
1761507017365655300,3.7686552734375,-0.17906947433948517,-0.013424912467598915,0.13356631994247437
1761507017375626200,3.778626220703125,-0.1926681101322174,-0.005680173635482788,0.10141424089670181
1761507017385598200,3.78859814453125,-0.20786966383457184,-0.03698008507490158,0.041975799947977066
1761507017395570200,3.798570068359375,-0.21690283715724945,-0.08986353874206543,-0.030011044815182686
1761507017405541000,3.808541015625,-0.22632838785648346,-0.1340118944644928,-0.10425309091806412
1761507017415513300,3.818513427734375,-0.2407856285572052,-0.145637646317482,-0.18179501593112946
1761507017425485300,3.8284853515625,-0.24922315776348114,-0.12257877737283707,-0.24854212999343872
1761507017435456300,3.838456298828125,-0.25604191422462463,-0.08364363014698029,-0.29899412393569946
1761507017445428500,3.848428466796875,-0.25332510471343994,-0.041662998497486115,-0.32540178298950195
1761507017455399200,3.858399169921875,-0.25012075901031494,-0.03152461349964142,-0.31524956226348877
1761507017465371400,3.868371337890625,-0.23386037349700928,-0.011753507889807224,-0.24267689883708954
1761507017475343000,3.878343017578125,-0.20710039138793945,0.029311904683709145,-0.10943228751420975
1761507017485314300,3.888314208984375,-0.15665245056152344,0.07494144141674042,0.052893463522195816
1761507017495286300,3.898286376953125,-0.09747515618801117,0.09085569530725479,0.18934664130210876
1761507017505257500,3.908257568359375,-0.046197500079870224,0.07385998964309692,0.27655029296875
1761507017515229200,3.918229248046875,-0.012246987782418728,0.0398908369243145,0.32318171858787537
1761507017525201400,3.928201416015625,-0.001963216345757246,0.021062437444925308,0.33233290910720825
1761507017535172400,3.93817236328125,-0.009652560576796532,-0.009105052798986435,0.3052091598510742
1761507017545144300,3.948144287109375,-0.0333896242082119,-0.05153192952275276,0.26468488574028015
1761507017555116300,3.9581162109375,-0.059731483459472656,-0.10053728520870209,0.21095800399780273
1761507017565087200,3.968087158203125,-0.08915621787309647,-0.14344507455825806,0.16704195737838745
1761507017575059200,3.97805908203125,-0.12471634149551392,-0.1757950335741043,0.12611661851406097
1761507017585031200,3.98803125,-0.16468578577041626,-0.1963006556034088,0.09495547413825989
1761507017595002000,3.998002197265625,-0.20703111588954926,-0.1971811056137085,0.06761012971401215
1761507017604974300,4.007974365234375,-0.24894145131111145,-0.17875006794929504,0.046503741294145584
1761507017614945300,4.0179453125,-0.2930394113063812,-0.13688011467456818,0.03547772020101547
1761507017624917200,4.027917236328125,-0.33998575806617737,-0.07000669836997986,0.029798302799463272
1761507017634889500,4.037889404296875,-0.3822098970413208,0.013976623304188251,0.03520558774471283
1761507017644860200,4.047860107421875,-0.4111593961715698,0.1020963117480278,0.0450725220143795
1761507017654832400,4.057832275390625,-0.4216359853744507,0.1653735488653183,0.048525042831897736
1761507017664804000,4.06780419921875,-0.4235117733478546,0.1932714879512787,0.052296992391347885
1761507017674775300,4.077775390625,-0.41950133442878723,0.19092072546482086,0.05345573276281357
1761507017684747300,4.087747314453125,-0.41727349162101746,0.1580582708120346,0.055465541779994965
1761507017694718500,4.097718505859375,-0.4195007085800171,0.11333846300840378,0.057936955243349075
1761507017704690200,4.107690185546875,-0.4240887463092804,0.048006441444158554,0.04936530813574791
1761507017714662400,4.117662353515625,-0.42577505111694336,-0.018607739359140396,0.0263177789747715
1761507017724633300,4.12763330078125,-0.4255039393901825,-0.06974176317453384,-0.013827243819832802
1761507017734605300,4.137605224609375,-0.4195277988910675,-0.096000537276268,-0.059091392904520035
1761507017744577300,4.147577392578125,-0.4239445626735687,-0.09352321922779083,-0.11665962636470795
1761507017754548200,4.15754833984375,-0.43521052598953247,-0.07360729575157166,-0.1749141365289688
1761507017764520200,4.167520263671875,-0.451638787984848,-0.03472019359469414,-0.22008579969406128
1761507017774491400,4.177491455078125,-0.461314857006073,0.012553314678370953,-0.24903914332389832
1761507017784463000,4.187463134765625,-0.45291629433631897,0.05286889523267746,-0.24823331832885742
1761507017794435300,4.197435302734375,-0.43413037061691284,0.07273474335670471,-0.22497247159481049
1761507017804406300,4.20740625,-0.39588847756385803,0.06849110126495361,-0.18822365999221802
1761507017814378200,4.217378173828125,-0.3527977168560028,0.04904310405254364,-0.1409325748682022
1761507017824350500,4.2273505859375,-0.30045005679130554,0.02091245912015438,-0.0879596397280693
1761507017834321200,4.237321044921875,-0.2560490369796753,0.00754365511238575,-0.022233091294765472
1761507017844293400,4.24729345703125,-0.21822930872440338,-0.004877975210547447,0.033094875514507294
1761507017854264300,4.257264404296875,-0.1894461214542389,-0.009505750611424446,0.07841122150421143
1761507017864236300,4.267236328125,-0.16833968460559845,-0.019439656287431717,0.09373121708631516
1761507017874208300,4.277208251953125,-0.15777385234832764,-0.040675170719623566,0.07863002270460129
1761507017884179500,4.287179443359375,-0.1451701670885086,-0.06443116068840027,0.049522776156663895
1761507017894151200,4.297151123046875,-0.137426495552063,-0.07767106592655182,0.03065134771168232
1761507017904123400,4.307123291015625,-0.12566840648651123,-0.07546531409025192,0.018650006502866745
1761507017914094300,4.31709423828125,-0.11174432933330536,-0.07258643209934235,0.01981540583074093
1761507017924066300,4.32706640625,-0.10327790677547455,-0.05957844853401184,0.015156889334321022
1761507017934037200,4.337037353515625,-0.09530706703662872,-0.04321784898638725,0.013950478285551071
1761507017944009200,4.34700927734375,-0.08356238901615143,-0.03109508939087391,0.010719073936343193
1761507017953981400,4.3569814453125,-0.07672898471355438,-0.02699968032538891,0.009557669050991535
1761507017963952400,4.366952392578125,-0.07343835383653641,-0.026488563045859337,0.0036779427900910378
1761507017973924400,4.37692431640625,-0.07448230683803558,-0.02921111136674881,-0.002488606609404087
1761507017983896300,4.386896240234375,-0.07740455120801926,-0.026788806542754173,-0.008373507298529148
1761507017993867500,4.396867431640625,-0.0737600177526474,-0.013730263337492943,-0.01485564187169075
1761507018003839200,4.406839111328125,-0.06480167806148529,-0.009295934811234474,-0.015971392393112183
1761507018013811500,4.4168115234375,-0.04892098531126976,0.014087950810790062,-0.005342716351151466
1761507018023783200,4.426783203125,-0.03399741277098656,0.042964544147253036,0.017146117985248566
1761507018033754400,4.43675439453125,-0.010845756158232689,0.0715908631682396,0.056259434670209885
1761507018043726000,4.44672607421875,0.00699591264128685,0.10391849279403687,0.10180911421775818
1761507018053697300,4.456697265625,0.026459358632564545,0.1262592226266861,0.14734090864658356
1761507018063669200,4.466669189453125,0.0529995858669281,0.13087254762649536,0.17973800003528595
1761507018073641200,4.47664111328125,0.07676003873348236,0.11722945421934128,0.19841368496418
1761507018083612200,4.486612060546875,0.10587465018033981,0.10416658967733383,0.20934614539146423
1761507018093584400,4.49658447265625,0.13194699585437775,0.08681130409240723,0.22432509064674377
1761507018103556400,4.506556396484375,0.15801800787448883,0.06865260750055313,0.23637746274471283
1761507018113527300,4.51652734375,0.17694881558418274,0.05900716409087181,0.2549996078014374
1761507018123499500,4.52649951171875,0.18809382617473602,0.04350857809185982,0.26708611845970154
1761507018133470200,4.53647021484375,0.19073303043842316,-0.005093580111861229,0.2870270609855652
1761507018143442400,4.5464423828125,0.1991966962814331,-0.035793282091617584,0.31396836042404175
1761507018153414100,4.5564140625,0.21126188337802887,-0.04382617026567459,0.33024346828460693
1761507018163385300,4.56638525390625,0.22467578947544098,-0.0370420441031456,0.3316941559314728
1761507018173357300,4.576357421875,0.24433764815330505,0.006025001406669617,0.3312797546386719
1761507018183329300,4.586329345703125,0.2552652060985565,0.08750559389591217,0.33422309160232544
1761507018193300200,4.59630029296875,0.26185357570648193,0.13134442269802094,0.290393590927124
1761507018203272400,4.6062724609375,0.2665587365627289,0.10421895235776901,0.18264099955558777
1761507018213243100,4.6162431640625,0.2601149380207062,0.040706817060709,0.07653826475143433
1761507018223215400,4.62621533203125,0.2473125010728836,-0.00758048752322793,0.024181468412280083
1761507018233187000,4.63618701171875,0.23943114280700684,-0.03019445203244686,0.015444966964423656
1761507018243158300,4.646158203125,0.23116156458854675,-0.016546407714486122,0.0663873553276062
1761507018253130200,4.656130126953125,0.22454947233200073,0.030598733574151993,0.16704152524471283
1761507018263102200,4.666102294921875,0.22416596114635468,0.062217436730861664,0.2904813885688782
1761507018273073400,4.676073486328125,0.22523868083953857,0.0907481461763382,0.4080407917499542
1761507018283045400,4.68604541015625,0.22796350717544556,0.10684046149253845,0.48387905955314636
1761507018293016300,4.696016357421875,0.2213873565196991,0.1084601953625679,0.5026034712791443
1761507018302988300,4.70598828125,0.2247098982334137,0.08904027193784714,0.4639718532562256
1761507018312960500,4.71596044921875,0.2150474190711975,0.04981616884469986,0.3963041305541992
1761507018322931200,4.72593115234375,0.1821921467781067,-0.0057880813255906105,0.31895390152931213
1761507018332903400,4.7359033203125,0.13912031054496765,-0.054577723145484924,0.25404760241508484
1761507018342875100,4.745875244140625,0.08879383653402328,-0.09689876437187195,0.2004200965166092
1761507018352846300,4.755846435546875,0.0411703921854496,-0.11178796738386154,0.14324337244033813
1761507018362818300,4.765818359375,0.017068270593881607,-0.09772083908319473,0.09062668681144714
1761507018372789500,4.77578955078125,0.015204856172204018,-0.060236312448978424,0.05306705832481384
1761507018382761200,4.78576123046875,0.03274677321314812,-0.00532239954918623,0.02934275008738041
1761507018392733400,4.7957333984375,0.05364513024687767,0.07211700081825256,0.01658620685338974
1761507018402704100,4.8057041015625,0.0719415545463562,0.16257497668266296,0.005569159984588623
1761507018412676400,4.81567626953125,0.09561705589294434,0.24573883414268494,-0.016581948846578598
1761507018422648300,4.8256484375,0.11884544789791107,0.2857043147087097,-0.039481021463871
1761507018432619300,4.835619384765625,0.14014782011508942,0.26915064454078674,-0.0596826933324337
1761507018442591500,4.845591552734375,0.16796311736106873,0.21192564070224762,-0.06250514835119247
1761507018452562400,4.8555625,0.19168680906295776,0.13210484385490417,-0.04568622633814812
1761507018462534400,4.865534423828125,0.21414993703365326,0.049550119787454605,-0.013996049761772156
1761507018472506400,4.87550634765625,0.2442905306816101,-0.013831780292093754,0.034932877868413925
1761507018482477300,4.885477294921875,0.27748361229896545,-0.048578426241874695,0.08051690459251404
1761507018492449300,4.89544921875,0.311216801404953,-0.05083918571472168,0.11857720464468002
1761507018502421500,4.90542138671875,0.34325528144836426,-0.0398871935904026,0.15267673134803772
1761507018512392200,4.91539208984375,0.3636913299560547,-0.029848672449588776,0.17528590559959412
1761507018522364400,4.925364501953125,0.3717881739139557,-0.021308021619915962,0.18918190896511078
1761507018532335400,4.93533544921875,0.3798929750919342,-0.01894286833703518,0.1979873925447464
1761507018542307300,4.945307373046875,0.3783964514732361,-0.026694437488913536,0.20502403378486633
1761507018552279300,4.955279296875,0.3741157054901123,-0.05473672226071358,0.1932392716407776
1761507018562250500,4.96525048828125,0.36450690031051636,-0.09700502455234528,0.17696590721607208
1761507018572222200,4.97522216796875,0.35537785291671753,-0.14949539303779602,0.15505395829677582
1761507018582194400,4.9851943359375,0.3388148546218872,-0.1875239461660385,0.12972885370254517
1761507018592165000,4.9951650390625,0.3218960762023926,-0.2152375876903534,0.10266128927469254
1761507018602137300,5.005137451171875,0.30357977747917175,-0.22927166521549225,0.06817639619112015
1761507018612108300,5.0151083984375,0.29363366961479187,-0.23813866078853607,0.026383673772215843
1761507018622080300,5.025080322265625,0.28473401069641113,-0.23373116552829742,-0.007382659241557121
1761507018632052500,5.035052490234375,0.2823542058467865,-0.2222082018852234,-0.029020842164754868
1761507018642023400,5.0450234375,0.2805771231651306,-0.20358605682849884,-0.041308362036943436
1761507018651995400,5.054995361328125,0.2702975869178772,-0.17573951184749603,-0.05553576722741127
1761507018661967400,5.06496728515625,0.24752284586429596,-0.15432961285114288,-0.07137743383646011
1761507018671938300,5.074938232421875,0.21781635284423828,-0.15060065686702728,-0.09546652436256409
1761507018681910300,5.08491015625,0.18582198023796082,-0.15169282257556915,-0.12938450276851654
1761507018691881500,5.094881591796875,0.1523718684911728,-0.15272478759288788,-0.1650141477584839
1761507018701853200,5.104853271484375,0.12344932556152344,-0.13872525095939636,-0.20072971284389496
1761507018711825400,5.114825439453125,0.10264444351196289,-0.10596676915884018,-0.2312340885400772
1761507018721796400,5.12479638671875,0.08734308928251266,-0.04977593943476677,-0.25280696153640747
1761507018731768300,5.134768310546875,0.08681312203407288,0.01911897212266922,-0.2500327229499817
1761507018741740300,5.144740234375,0.08964632451534271,0.08718142658472061,-0.2267949879169464
1761507018751711500,5.15471142578125,0.08965111523866653,0.12961889803409576,-0.19450469315052032
1761507018761683200,5.16468310546875,0.09816855192184448,0.13754688203334808,-0.16062088310718536
1761507018771654400,5.174654296875,0.10775140672922134,0.12261692434549332,-0.15033335983753204
1761507018781626000,5.184626220703125,0.10994216799736023,0.10299598425626755,-0.16913191974163055
1761507018791598300,5.194598388671875,0.11373130977153778,0.09428052604198456,-0.21050065755844116
1761507018801569300,5.2045693359375,0.11876847594976425,0.07577868551015854,-0.23869414627552032
1761507018811541200,5.214541259765625,0.11944891512393951,0.06718119978904724,-0.2539854943752289
1761507018821513500,5.224513427734375,0.11302132159471512,0.060889482498168945,-0.2730785310268402
1761507018831484400,5.234484375,0.10522066056728363,0.04713878408074379,-0.26065167784690857
1761507018841456400,5.244456298828125,0.10306888818740845,0.022342637181282043,-0.233658567070961
1761507018851427300,5.25442724609375,0.105137899518013,0.00242272624745965,-0.203343003988266
1761507018861399300,5.2643994140625,0.111209936439991,-0.017348971217870712,-0.17878858745098114
1761507018871371300,5.274371337890625,0.11680524051189423,-0.039145078510046005,-0.1543988138437271
1761507018881342500,5.284342529296875,0.1119123101234436,-0.05953009054064751,-0.13533757627010345
1761507018891315000,5.29431494140625,0.09300306439399719,-0.0850176066160202,-0.12470011413097382
1761507018901287200,5.304287109375,0.06641832739114761,-0.11496128886938095,-0.12702757120132446
1761507018911257900,5.3142578125,0.04588402807712555,-0.12239204347133636,-0.12081655114889145
1761507018921230000,5.32422998046875,0.027767058461904526,-0.11486625671386719,-0.11745981872081757
1761507018931201000,5.334200927734375,0.014105040580034256,-0.08806420862674713,-0.11948888003826141
1761507018941173000,5.344173095703125,0.0055833784863352776,-0.05450672656297684,-0.1199987605214119
1761507018951145000,5.35414501953125,-0.005948641337454319,-0.019364718347787857,-0.12318017333745956
1761507018961116200,5.3641162109375,-0.02377716824412346,0.014755005948245525,-0.12659233808517456
1761507018971088000,5.374087890625,-0.04925429821014404,0.03991388529539108,-0.13363267481327057
1761507018981060000,5.38406005859375,-0.0838128924369812,0.05534570291638374,-0.13845284283161163
1761507018991031000,5.394031005859375,-0.11340087652206421,0.06330668926239014,-0.1329060047864914
1761507019001003000,5.4040029296875,-0.13623450696468353,0.05363832786679268,-0.11338453739881516
1761507019010974000,5.413973876953125,-0.14954552054405212,0.02699366956949234,-0.07826969027519226
1761507019020946000,5.42394580078125,-0.16086524724960327,0.002587555442005396,-0.031585127115249634
1761507019030918100,5.433918212890625,-0.16906830668449402,-0.014470256865024567,0.019549429416656494
1761507019040889000,5.44388916015625,-0.18178358674049377,-0.01938532665371895,0.07147624343633652
1761507019050861000,5.453861083984375,-0.1960514634847641,-0.01681484468281269,0.11169636249542236
1761507019060833000,5.4638330078125,-0.20857630670070648,-0.00931464321911335,0.13501450419425964
1761507019070804200,5.47380419921875,-0.2211775779724121,0.006063779350370169,0.15338285267353058
1761507019080776000,5.48377587890625,-0.24312877655029297,0.031787462532520294,0.17204785346984863
1761507019090747100,5.4937470703125,-0.2751983106136322,0.057187628000974655,0.1485651582479477
1761507019100718800,5.50371875,-0.31588253378868103,0.06014981493353844,0.0434759147465229
1761507019110691000,5.513691162109375,-0.351009339094162,0.004753933288156986,-0.10339128971099854
1761507019120662000,5.523662109375,-0.373524934053421,-0.048177774995565414,-0.2038780301809311
1761507019130634000,5.533634033203125,-0.37921637296676636,-0.06321345269680023,-0.22338169813156128
1761507019140606000,5.54360595703125,-0.37309667468070984,-0.04458250850439072,-0.1659863144159317
1761507019150577200,5.5535771484375,-0.3654171824455261,0.006674819625914097,-0.07024352997541428
1761507019160548900,5.563548828125,-0.36824333667755127,0.07082024961709976,0.018700720742344856
1761507019170520000,5.57352001953125,-0.3756661117076874,0.13401013612747192,0.0638761892914772
1761507019180492000,5.583491943359375,-0.37298116087913513,0.20301514863967896,0.06071486324071884
1761507019190464000,5.593464111328125,-0.36255836486816406,0.2701568901538849,0.031193722039461136
1761507019200435000,5.60343505859375,-0.3487173020839691,0.31735759973526,0.00242161494679749
1761507019210407000,5.613406982421875,-0.3455473482608795,0.3415830433368683,-0.009086170233786106
1761507019220379100,5.623379150390625,-0.33831942081451416,0.3242775499820709,-0.004886479116976261
1761507019230350000,5.63335009765625,-0.3097359538078308,0.24947389960289001,0.01476631872355938
1761507019240322000,5.643322021484375,-0.2721092700958252,0.13644032180309296,0.033471714705228806
1761507019250293000,5.65329296875,-0.2278536558151245,0.009649891406297684,0.042668674141168594
1761507019260265200,5.66326513671875,-0.18625226616859436,-0.10837502777576447,0.02962062880396843
1761507019270237000,5.67323681640625,-0.1613818109035492,-0.20792344212532043,-0.00792408362030983
1761507019280208100,5.6832080078125,-0.15034282207489014,-0.2909865379333496,-0.04701787978410721
1761507019290179800,5.693179931640625,-0.15147653222084045,-0.33815324306488037,-0.0652858316898346
1761507019300152000,5.703152099609375,-0.15367673337459564,-0.35487574338912964,-0.07595004141330719
1761507019310123000,5.713123046875,-0.15852847695350647,-0.3630164861679077,-0.07753781229257584
1761507019320095000,5.723094970703125,-0.1638396978378296,-0.357805460691452,-0.08124589174985886
1761507019330066000,5.73306591796875,-0.17102384567260742,-0.33649271726608276,-0.06522484868764877
1761507019340038100,5.7430380859375,-0.17440932989120483,-0.298403799533844,-0.036573681980371475
1761507019350009900,5.753009765625,-0.1863938271999359,-0.23782861232757568,0.009831899777054787
1761507019359981000,5.76298095703125,-0.19382983446121216,-0.1673397570848465,0.07211820781230927
1761507019369953000,5.772953125,-0.1996871829032898,-0.09682989120483398,0.13150803744792938
1761507019379925000,5.782925048828125,-0.20116733014583588,-0.03803033009171486,0.17555341124534607
1761507019389896000,5.79289599609375,-0.19958381354808807,0.0008728604298084974,0.20485936105251312
1761507019399868000,5.802867919921875,-0.19854317605495453,0.021782025694847107,0.22490467131137848
1761507019409838800,5.8128388671875,-0.20014239847660065,0.02185659296810627,0.23717892169952393
1761507019419811000,5.82281103515625,-0.20523352921009064,0.008613714016973972,0.23831939697265625
1761507019429783000,5.832782958984375,-0.22081302106380463,-0.008835051208734512,0.23478963971138
1761507019439754000,5.84275390625,-0.24378453195095062,-0.03590310364961624,0.2173643857240677
1761507019449726200,5.852726318359375,-0.266718327999115,-0.0706469714641571,0.18131530284881592
1761507019459697000,5.86269677734375,-0.29303374886512756,-0.09147997945547104,0.13757841289043427
1761507019469669000,5.872669189453125,-0.3092649281024933,-0.10038692504167557,0.09957163780927658
1761507019479641000,5.88264111328125,-0.3239653408527374,-0.0959663838148117,0.06710139662027359
1761507019489612000,5.892612060546875,-0.3342914581298828,-0.08331290632486343,0.040453266352415085
1761507019499584000,5.902583984375,-0.3423359990119934,-0.07401495426893234,0.007681244518607855
1761507019509556000,5.912555908203125,-0.3534155488014221,-0.069931261241436,-0.03265419229865074
1761507019519527000,5.92252685546875,-0.3644816279411316,-0.06400313228368759,-0.0770404189825058
1761507019529499100,5.9324990234375,-0.3773825168609619,-0.05208522826433182,-0.11749622970819473
1761507019539470000,5.942469970703125,-0.38386601209640503,-0.03469105437397957,-0.14529967308044434
1761507019549442000,5.952442138671875,-0.386223167181015,-0.016659321263432503,-0.16608430445194244
1761507019559414000,5.9624140625,-0.3733896017074585,-0.005094429943710566,-0.173010915517807
1761507019569385000,5.972385009765625,-0.35362309217453003,-0.008311528712511063,-0.19034171104431152
1761507019579357000,5.98235693359375,-0.3282542824745178,-0.019472410902380943,-0.20548535883426666
1761507019589329000,5.992328857421875,-0.29693683981895447,-0.026448827236890793,-0.22057296335697174
1761507019599299800,6.0022998046875,-0.26448458433151245,-0.02437416836619377,-0.22002005577087402
1761507019609272000,6.01227197265625,-0.23228374123573303,-0.00914301909506321,-0.2000010758638382
1761507019619243000,6.022242919921875,-0.2068699151277542,0.019322335720062256,-0.16332755982875824
1761507019629215000,6.032215087890625,-0.18145856261253357,0.03714793920516968,-0.1230698823928833
1761507019639187200,6.042187255859375,-0.15579871833324432,0.03378606587648392,-0.09025665372610092
1761507019649158000,6.052157958984375,-0.12701208889484406,0.012873593717813492,-0.07876165211200714
1761507019659130000,6.062130126953125,-0.09619660675525665,-0.010888567194342613,-0.0793125107884407
1761507019669102000,6.07210205078125,-0.06600382179021835,-0.034782715141773224,-0.0872758999466896
1761507019679073000,6.082072998046875,-0.04990854859352112,-0.042847249656915665,-0.08728750050067902
1761507019689045000,6.092044921875,-0.03820422291755676,-0.0505421906709671,-0.07023607939481735
1761507019699016200,6.10201611328125,-0.030644141137599945,-0.0519493967294693,-0.05765751004219055
1761507019708988000,6.11198779296875,-0.02476947382092476,-0.06031891331076622,-0.042195193469524384
1761507019718960000,6.121960205078125,-0.01711186394095421,-0.07832816243171692,-0.03485621139407158
1761507019728931000,6.13193115234375,-0.010186048224568367,-0.10291793197393417,-0.04715815186500549
1761507019738903000,6.141903076171875,-0.013006291352212429,-0.12537486851215363,-0.06977435946464539
1761507019748875300,6.151875244140625,-0.016131509095430374,-0.1313890963792801,-0.09114116430282593
1761507019758846000,6.161845947265625,-0.02318587154150009,-0.12903720140457153,-0.10844928026199341
1761507019768818200,6.171818115234375,-0.030545515939593315,-0.11338980495929718,-0.12218053638935089
1761507019778790000,6.181789794921875,-0.03774086385965347,-0.094378761947155,-0.12871864438056946
1761507019788761000,6.191760986328125,-0.041603509336709976,-0.07354538887739182,-0.13101081550121307
1761507019798733000,6.201733154296875,-0.03929092735052109,-0.05907154455780983,-0.12460485100746155
1761507019808704300,6.211704345703125,-0.03180185332894325,-0.04861916974186897,-0.12065006047487259
1761507019818676000,6.221676025390625,-0.023774102330207825,-0.034596435725688934,-0.11008008569478989
1761507019828648200,6.231648193359375,-0.022196978330612183,-0.013251197524368763,-0.09329897165298462
1761507019838619000,6.241618896484375,-0.021556401625275612,0.015624633990228176,-0.07369305193424225
1761507019848591000,6.251591064453125,-0.014129646122455597,0.04268501326441765,-0.057916220277547836
1761507019858562000,6.26156201171875,-0.0069687142968177795,0.055085327476263046,-0.05101745203137398
1761507019868534000,6.271533935546875,0.00906724389642477,0.048460982739925385,-0.058715853840112686
1761507019878506000,6.281506103515625,0.02667379193007946,0.03518363833427429,-0.06425412744283676
1761507019888477200,6.291477294921875,0.05170644074678421,0.010362710803747177,-0.06164129450917244
1761507019898448600,6.30144873046875,0.07041691988706589,-0.02063147909939289,-0.05086778104305267
1761507019908420600,6.311420654296875,0.08362486958503723,-0.03126281499862671,-0.031034423038363457
1761507019918391800,6.321391845703125,0.10268707573413849,-0.031101005151867867,-0.007936104200780392
1761507019928363500,6.331363525390625,0.12272416800260544,-0.026214903220534325,0.009390953928232193
1761507019938334700,6.341334716796875,0.1418927013874054,-0.027699241414666176,0.010545777156949043
1761507019948306700,6.351306640625,0.15158474445343018,-0.037442948669195175,0.006990191526710987
1761507019958278700,6.361278564453125,0.15165673196315765,-0.04790336266160011,-0.001407134928740561
1761507019968249600,6.37124951171875,0.15001116693019867,-0.0556371808052063,-0.0013464149087667465
1761507019978221600,6.3812216796875,0.14720232784748077,-0.06320268660783768,-0.004869244061410427
1761507019988193800,6.39119384765625,0.15140585601329803,-0.07437864691019058,-0.013906680978834629
1761507019998164700,6.401164794921875,0.14681506156921387,-0.05502278730273247,-0.010059516876935959
1761507020008136700,6.41113671875,0.14494551718235016,-0.012038301676511765,0.015826942399144173
1761507020018107600,6.421107666015625,0.14590662717819214,0.009325888007879257,0.05736734718084335
1761507020028079900,6.431079833984375,0.14524269104003906,0.00448559271171689,0.1162509024143219
1761507020038051600,6.441051513671875,0.14667639136314392,0.03519104793667793,0.16025233268737793
1761507020048022800,6.451022705078125,0.14909881353378296,0.062110014259815216,0.19371680915355682
1761507020057994500,6.460994384765625,0.1468849927186966,0.07351301610469818,0.16660861670970917
1761507020067966700,6.470966796875,0.13882678747177124,0.05156617611646652,0.08039382845163345
1761507020077937700,6.480937744140625,0.12871584296226501,0.026021741330623627,-0.005041931755840778
1761507020087909600,6.49090966796875,0.11535317450761795,0.018837597221136093,-0.05726359039545059
1761507020097880600,6.500880615234375,0.1004808321595192,0.0364033579826355,-0.05658513680100441
1761507020107852800,6.510852783203125,0.10046645253896713,0.07268813252449036,0.002085365355014801
1761507020117824500,6.520824462890625,0.11382510513067245,0.12217340618371964,0.1007629856467247
1761507020127795700,6.530795654296875,0.1339101344347,0.17735251784324646,0.2141217589378357
1761507020137767700,6.540767578125,0.15633921325206757,0.2134399116039276,0.3010783791542053
1761507020147739600,6.55073974609375,0.17026302218437195,0.22918985784053802,0.34222742915153503
1761507020157710600,6.560710693359375,0.16809141635894775,0.21996520459651947,0.34442874789237976
1761507020167682600,6.5706826171875,0.14921467006206512,0.20498092472553253,0.3086302876472473
1761507020177653500,6.580653564453125,0.12359879910945892,0.19157575070858002,0.258147269487381
1761507020187625700,6.590625732421875,0.10390232503414154,0.16952450573444366,0.2060593217611313
1761507020197597700,6.60059765625,0.08734884858131409,0.15365415811538696,0.15866440534591675
1761507020207568600,6.610568603515625,0.08403108268976212,0.15237903594970703,0.12918241322040558
1761507020217540900,6.620540771484375,0.09164027869701385,0.16138871014118195,0.12613366544246674
1761507020227512600,6.6305126953125,0.10576142370700836,0.1628742218017578,0.12297195941209793
1761507020237483800,6.64048388671875,0.11716818064451218,0.155256450176239,0.11582186818122864
1761507020247455500,6.65045556640625,0.13053672015666962,0.13527075946331024,0.10154492408037186
1761507020257426700,6.6604267578125,0.14184275269508362,0.11193696409463882,0.08159960061311722
1761507020267398700,6.670398681640625,0.1566576510667801,0.08909209817647934,0.05337674915790558
1761507020277370600,6.68037060546875,0.1660183221101761,0.07249931991100311,0.023791275918483734
1761507020287341600,6.690341552734375,0.16594535112380981,0.06230634078383446,-0.0044297087006270885
1761507020297313800,6.700313720703125,0.15890046954154968,0.05910499766469002,-0.028130628168582916
1761507020307285500,6.710285400390625,0.1491258591413498,0.06772352010011673,-0.0457085557281971
1761507020317256700,6.720256591796875,0.1586693674325943,0.08012694120407104,-0.04464610293507576
1761507020327228700,6.730228759765625,0.1736600399017334,0.10351428389549255,-0.02828071266412735
1761507020337199600,6.74019970703125,0.20198963582515717,0.12440139800310135,0.006176596507430077
1761507020347171600,6.750171630859375,0.23404239118099213,0.14043283462524414,0.045762624591588974
1761507020357143600,6.7601435546875,0.267906129360199,0.1253603994846344,0.0905706062912941
1761507020367114500,6.770114501953125,0.29800090193748474,0.09396280348300934,0.1303340047597885
1761507020377086700,6.780086669921875,0.31797659397125244,0.059551674872636795,0.153766930103302
1761507020387058700,6.79005859375,0.33007586002349854,0.029819078743457794,0.17523041367530823
1761507020397029600,6.800029541015625,0.33406949043273926,0.019452713429927826,0.18709227442741394
1761507020407001900,6.810001953125,0.3295575678348541,0.020063111558556557,0.18925423920154572
1761507020416972500,6.81997265625,0.3262798488140106,0.0246735829859972,0.1768006533384323
1761507020426944800,6.82994482421875,0.32240575551986694,0.03302472457289696,0.14955703914165497
1761507020436916500,6.83991650390625,0.32238009572029114,0.047206535935401917,0.13698847591876984
1761507020446887700,6.8498876953125,0.32373565435409546,0.0647951140999794,0.13983139395713806
1761507020456859600,6.859859619140625,0.32085120677948,0.07714612036943436,0.1471918523311615
1761507020466831600,6.86983154296875,0.3200075328350067,0.0809941217303276,0.16083070635795593
1761507020476802600,6.879802490234375,0.30993327498435974,0.07762724906206131,0.17464964091777802
1761507020486774800,6.88977490234375,0.3104592263698578,0.0630299299955368,0.17348584532737732
1761507020496745500,6.899745361328125,0.30609044432640076,0.03666047006845474,0.16758477687835693
1761507020506717700,6.9097177734375,0.30207839608192444,-0.00011245778296142817,0.15275709331035614
1761507020516689700,6.919689697265625,0.29461929202079773,-0.05171201005578041,0.12628938257694244
1761507020526660600,6.92966064453125,0.28227314352989197,-0.11561402678489685,0.09468618035316467
1761507020536632600,6.939632568359375,0.2717891335487366,-0.167312353849411,0.05416284129023552
1761507020546604500,6.9496044921875,0.25365087389945984,-0.201178178191185,0.002951851114630699
1761507020556575500,6.959575439453125,0.2287915199995041,-0.23000143468379974,-0.05844147130846977
1761507020566547700,6.969547607421875,0.19906051456928253,-0.22857290506362915,-0.1250026524066925
1761507020576518700,6.9795185546875,0.17163707315921783,-0.2098412811756134,-0.19132575392723083
1761507020586490600,6.98949072265625,0.13967087864875793,-0.18739695847034454,-0.256733775138855
1761507020596462800,6.999462890625,0.10573383420705795,-0.1670723557472229,-0.3201777935028076
1761507020606433500,7.00943359375,0.060311220586299896,-0.14425359666347504,-0.3833591639995575
1761507020616405800,7.01940576171875,0.03157939016819,-0.09643074870109558,-0.43144312500953674
1761507020626377500,7.02937744140625,0.02710900641977787,-0.015340419486165047,-0.4465741515159607
1761507020636348700,7.0393486328125,0.039898864924907684,0.0837753638625145,-0.4277445673942566
1761507020646320600,7.049320556640625,0.06604071706533432,0.17362375557422638,-0.38766878843307495
1761507020656291800,7.059291748046875,0.09232670068740845,0.2211689054965973,-0.34447628259658813
1761507020666263600,7.069263671875,0.11574653536081314,0.22006848454475403,-0.30467772483825684
1761507020676235800,7.07923583984375,0.13521133363246918,0.19002088904380798,-0.2708524763584137
1761507020686206500,7.08920654296875,0.1468898206949234,0.1597101241350174,-0.23999841511249542
1761507020696178700,7.0991787109375,0.15535685420036316,0.14886167645454407,-0.20706456899642944
1761507020706149600,7.109149658203125,0.1594591736793518,0.1398380845785141,-0.18498936295509338
1761507020716121600,7.11912158203125,0.17519207298755646,0.13363441824913025,-0.17128515243530273
1761507020726093600,7.129093505859375,0.20026519894599915,0.11636169254779816,-0.16285759210586548
1761507020736064800,7.139064697265625,0.22572675347328186,0.07615067064762115,-0.15781641006469727
1761507020746036700,7.14903662109375,0.24298110604286194,0.010155145078897476,-0.15867234766483307
1761507020756008700,7.1590087890625,0.2520584166049957,-0.05596906691789627,-0.14845730364322662
1761507020765979600,7.168979736328125,0.25164908170700073,-0.10589615255594254,-0.12905564904212952
1761507020775951600,7.17895166015625,0.239902526140213,-0.12655498087406158,-0.0996825322508812
1761507020785922800,7.1889228515625,0.22121751308441162,-0.14597554504871368,-0.07419208437204361
1761507020795894500,7.19889453125,0.2003374546766281,-0.1511281281709671,-0.05101718381047249
1761507020805866800,7.20886669921875,0.18210437893867493,-0.15436066687107086,-0.03888515383005142
1761507020815837700,7.218837646484375,0.16748949885368347,-0.15835227072238922,-0.030023714527487755
1761507020825809700,7.2288095703125,0.1454441249370575,-0.17155969142913818,-0.02403160184621811
1761507020835781600,7.23878173828125,0.11971846222877502,-0.18191644549369812,-0.0068880729377269745
1761507020845752800,7.2487529296875,0.0828789547085762,-0.19083191454410553,0.012114646844565868
1761507020855724500,7.258724609375,0.04667017236351967,-0.17932194471359253,0.018000271171331406
1761507020865695700,7.26869580078125,0.009686590172350407,-0.17534957826137543,0.03006918542087078
1761507020875667500,7.27866748046875,-0.02015913836658001,-0.16016343235969543,0.04579252377152443
1761507020885639700,7.2886396484375,-0.04839077964425087,-0.1363140344619751,0.073035329580307
1761507020895610400,7.2986103515625,-0.07446166127920151,-0.10244469344615936,0.10499361157417297
1761507020905582300,7.308582275390625,-0.10474313050508499,-0.06697085499763489,0.13469263911247253
1761507020915554300,7.31855419921875,-0.12929053604602814,-0.01641329936683178,0.1812293976545334
1761507020925525500,7.328525390625,-0.15972594916820526,0.03456119820475578,0.23383934795856476
1761507020935497200,7.338497314453125,-0.18399357795715332,0.07501069456338882,0.2779321074485779
1761507020945468400,7.348468505859375,-0.20540964603424072,0.10248465836048126,0.31494632363319397
1761507020955440400,7.3584404296875,-0.21996071934700012,0.12682360410690308,0.3360709249973297
1761507020965412400,7.368412353515625,-0.2513287663459778,0.12566086649894714,0.3158758878707886
1761507020975383300,7.37838330078125,-0.2970590889453888,0.07644420862197876,0.21719136834144592
1761507020985355300,7.388355224609375,-0.3542875051498413,0.0022165796253830194,0.06971189379692078
1761507020995327500,7.398327392578125,-0.4048992395401001,-0.09208936244249344,-0.0460200272500515
1761507021005298400,7.40829833984375,-0.44335129857063293,-0.16444344818592072,-0.12585841119289398
1761507021015270400,7.4182705078125,-0.4639955759048462,-0.1961023062467575,-0.14788195490837097
1761507021025242400,7.428242431640625,-0.48329392075538635,-0.1790897697210312,-0.11451120674610138
1761507021035213600,7.438213623046875,-0.5008869767189026,-0.12984058260917664,-0.09090959280729294
1761507021045185300,7.448185302734375,-0.5363823771476746,-0.04763198643922806,-0.13113076984882355
1761507021055156500,7.458156494140625,-0.5719610452651978,0.053490158170461655,-0.20313803851604462
1761507021065128400,7.46812841796875,-0.5833084583282471,0.13330616056919098,-0.29082584381103516
1761507021075100400,7.478100341796875,-0.5739781260490417,0.18032661080360413,-0.37950292229652405
1761507021085071400,7.4880712890625,-0.5497087240219116,0.1851048469543457,-0.4109346270561218
1761507021095043300,7.498043212890625,-0.49665918946266174,0.16234341263771057,-0.3795933127403259
1761507021105014300,7.50801416015625,-0.4418230652809143,0.10336131602525711,-0.31297755241394043
1761507021114986500,7.517986572265625,-0.38838985562324524,0.05201716348528862,-0.23831573128700256
1761507021124958500,7.52795849609375,-0.34560057520866394,0.0019156450871378183,-0.1613682210445404
1761507021134929400,7.537929443359375,-0.3023979663848877,-0.05338149145245552,-0.06810003519058228
1761507021144901600,7.547901611328125,-0.2545846402645111,-0.11157715320587158,0.03248516470193863
1761507021154873300,7.557873291015625,-0.21078963577747345,-0.16767513751983643,0.12458553910255432
1761507021164844500,7.567844482421875,-0.1696629673242569,-0.20792216062545776,0.19897614419460297
1761507021174816300,7.577816162109375,-0.1449076384305954,-0.21425394713878632,0.2543906569480896
1761507021184787500,7.587787353515625,-0.1286325305700302,-0.181868314743042,0.28614646196365356
1761507021194759400,7.597759521484375,-0.1284647136926651,-0.11975277960300446,0.3074643909931183
1761507021204731400,7.6077314453125,-0.14098769426345825,-0.042920053005218506,0.311297208070755
1761507021214702300,7.617702392578125,-0.15561053156852722,0.021494785323739052,0.30034562945365906
1761507021224674600,7.627674560546875,-0.17110028862953186,0.0636821836233139,0.28322842717170715
1761507021234646300,7.637646240234375,-0.18917015194892883,0.08023400604724884,0.2656613886356354
1761507021244617500,7.647617431640625,-0.21139715611934662,0.07839881628751755,0.2521469295024872
1761507021254589400,7.65758935546875,-0.23388221859931946,0.06217360869050026,0.23429402709007263
1761507021264560400,7.667560302734375,-0.2514881193637848,0.036999545991420746,0.22427894175052643
1761507021274532400,7.677532470703125,-0.26853716373443604,0.018559763208031654,0.22171752154827118
1761507021284504300,7.68750439453125,-0.2819099724292755,0.003287866245955229,0.22080032527446747
1761507021294475300,7.697475341796875,-0.2887650430202484,0.002901120577007532,0.2187507152557373
1761507021304447500,7.707447509765625,-0.29431718587875366,0.02297336421906948,0.21262571215629578
1761507021314419500,7.71741943359375,-0.29554483294487,0.04691040515899658,0.20931951701641083
1761507021324390400,7.727390380859375,-0.2916949689388275,0.068173348903656,0.20171140134334564
1761507021334362600,7.737362548828125,-0.29909321665763855,0.06703446060419083,0.18723079562187195
1761507021344333300,7.747333251953125,-0.312097430229187,0.05086001753807068,0.15740659832954407
1761507021354305500,7.757305419921875,-0.32189396023750305,0.027277937158942223,0.12246880680322647
1761507021364277200,7.76727734375,-0.3285579979419708,-0.0014514463255181909,0.07010813057422638
1761507021374248400,7.77724853515625,-0.33314815163612366,-0.041958823800086975,0.0018379217945039272
1761507021384220400,7.787220458984375,-0.3286482095718384,-0.07575194537639618,-0.07285256683826447
1761507021394192400,7.7971923828125,-0.32060936093330383,-0.09266839176416397,-0.14289115369319916
1761507021404163300,7.807163330078125,-0.313837468624115,-0.09539254009723663,-0.20515026152133942
1761507021414135600,7.817135498046875,-0.3065720200538635,-0.09106990694999695,-0.2570533752441406
1761507021424106200,7.827106201171875,-0.2935611605644226,-0.07998796552419662,-0.3015369474887848
1761507021434078500,7.837078369140625,-0.2714572548866272,-0.07148171961307526,-0.3343062400817871
1761507021444050400,7.847050537109375,-0.2411624938249588,-0.06368184834718704,-0.351493775844574
1761507021454021400,7.857021484375,-0.20637938380241394,-0.06092622131109238,-0.3439631164073944
1761507021463993300,7.866993408203125,-0.16179567575454712,-0.06929467618465424,-0.31579965353012085
1761507021473965300,7.87696533203125,-0.11228122562170029,-0.07681579887866974,-0.26886725425720215
1761507021483936300,7.886936279296875,-0.058425989001989365,-0.07665334641933441,-0.21119065582752228
1761507021493908500,7.896908447265625,-0.01194361038506031,-0.06178103759884834,-0.14813533425331116
1761507021503879400,7.90687939453125,0.03224142640829086,-0.03969277814030647,-0.09364651888608932
1761507021513851400,7.916851318359375,0.054608091711997986,-0.015197724103927612,-0.05564058572053909
1761507021523823600,7.92682373046875,0.06989489495754242,0.0023977807722985744,-0.043313078582286835
1761507021533794300,7.936794189453125,0.08052881062030792,0.013139380142092705,-0.05169731751084328
1761507021543766500,7.9467666015625,0.08598775416612625,0.013994787819683552,-0.07926609367132187
1761507021553738200,7.95673828125,0.09388913959264755,0.011024827137589455,-0.11213505268096924
1761507021563709400,7.96670947265625,0.09410698711872101,-0.0038617108948528767,-0.13585716485977173
1761507021573681400,7.976681396484375,0.08934584259986877,-0.026835188269615173,-0.14952999353408813
1761507021583652600,7.986652587890625,0.07816136628389359,-0.06122379004955292,-0.1545971781015396
1761507021593624300,7.996624267578125,0.06120336055755615,-0.09575913846492767,-0.16895946860313416
1761507021603595500,8.006595458984375,0.043583884835243225,-0.11153224855661392,-0.1733209192752838
1761507021613567200,8.016567138671874,0.030906392261385918,-0.11392135918140411,-0.17806324362754822
1761507021623538400,8.026538330078125,0.016986047849059105,-0.09603025019168854,-0.18395203351974487
1761507021633510400,8.036510498046875,0.005905951373279095,-0.06565843522548676,-0.19634109735488892
1761507021643482400,8.046482421875,-0.007802403997629881,-0.0254921056330204,-0.2251937836408615
1761507021653453300,8.056453369140625,-0.021099774166941643,0.020209699869155884,-0.25925010442733765
1761507021663425500,8.066425537109374,-0.031277310103178024,0.0600881390273571,-0.28569555282592773
1761507021673397200,8.076397216796876,-0.031227726489305496,0.09272730350494385,-0.28772538900375366
1761507021683368400,8.086368408203125,-0.02522975578904152,0.11437773704528809,-0.26190364360809326
1761507021693340400,8.09634033203125,-0.01630093902349472,0.11755868047475815,-0.22403720021247864
1761507021703311400,8.106311279296875,-0.0057044867426157,0.09239579737186432,-0.19203506410121918
1761507021713283300,8.116283447265625,0.006543641444295645,0.07046180218458176,-0.16897931694984436
1761507021723255300,8.12625537109375,0.019962511956691742,0.05742057040333748,-0.14967060089111328
1761507021733226200,8.136226318359375,0.034727200865745544,0.06139760464429855,-0.13152287900447845
1761507021743198500,8.146198486328124,0.055980559438467026,0.09082074463367462,-0.1096721664071083
1761507021753170400,8.15617041015625,0.07458082586526871,0.13963623344898224,-0.06985368579626083
1761507021763141400,8.166141357421875,0.09546054154634476,0.1742093861103058,-0.014333170838654041
1761507021773113600,8.176113525390624,0.11821488291025162,0.20121555030345917,0.04444915056228638
1761507021783084300,8.186084228515625,0.1354045271873474,0.21196593344211578,0.09285823255777359
1761507021793056500,8.196056396484375,0.1505623608827591,0.19505570828914642,0.1263987272977829
1761507021803028200,8.2060283203125,0.16035667061805725,0.17501914501190186,0.14108632504940033
1761507021812999400,8.21599951171875,0.16043299436569214,0.15529721975326538,0.15180827677249908
1761507021822971400,8.225971435546874,0.1614828109741211,0.13121157884597778,0.17860287427902222
1761507021832943400,8.235943359375,0.16254258155822754,0.13045184314250946,0.2311561405658722
1761507021842914300,8.245914306640625,0.1576514095067978,0.15021197497844696,0.22941896319389343
1761507021852886500,8.255886474609374,0.16348841786384583,0.10092206299304962,0.12936636805534363
1761507021862857200,8.265857177734375,0.16921687126159668,-0.029342196881771088,-0.03850972652435303
1761507021872829400,8.275829345703125,0.15759995579719543,-0.22821347415447235,-0.22708724439144135
1761507021882801400,8.285801513671874,0.1185028925538063,-0.4223392605781555,-0.36710456013679504
1761507021892772900,8.29577294921875,0.07106002420186996,-0.5447487235069275,-0.40225541591644287
1761507021902745000,8.3057451171875,0.038699958473443985,-0.6183217763900757,-0.27378320693969727
1761507021912717000,8.315717041015626,0.03491055220365524,-0.6184952855110168,0.046100687235593796
1761507021922688000,8.32568798828125,0.03707969933748245,-0.529341459274292,0.4335296154022217
1761507021932660200,8.33566015625,0.04148172587156296,-0.369981586933136,0.7581461071968079
1761507021942631000,8.345630859375,0.038388196378946304,-0.25552693009376526,0.9487141966819763
1761507021952603100,8.35560302734375,0.03336728364229202,-0.14777284860610962,0.9841998219490051
1761507021962574800,8.365574951171874,0.03129987046122551,-0.03974279388785362,0.9002170562744141
1761507021972546000,8.375546142578125,0.02039024420082569,0.04257705435156822,0.7700816988945007
1761507021982518000,8.38551806640625,-0.011509898118674755,0.10075753927230835,0.6452886462211609
1761507021992490000,8.395489990234376,-0.05520644411444664,0.12877702713012695,0.5366764068603516
1761507022002461000,8.4054609375,-0.10446399450302124,0.11955317109823227,0.43829286098480225
1761507022012433200,8.41543310546875,-0.15768828988075256,0.09344956278800964,0.36196786165237427
1761507022022404900,8.42540478515625,-0.19028271734714508,0.06831571459770203,0.29498937726020813
1761507022032377000,8.435377197265625,-0.19531786441802979,0.05182408541440964,0.23180009424686432
1761507022042349000,8.44534912109375,-0.1883438378572464,0.03945423290133476,0.1666613072156906
1761507022052320000,8.455320068359375,-0.16692472994327545,0.041828449815511703,0.10707083344459534
1761507022062292200,8.465292236328125,-0.15207387506961823,0.04720697179436684,0.046707622706890106
1761507022072263000,8.475262939453126,-0.1462794691324234,0.05834350362420082,-0.004172219429165125
1761507022082235100,8.485235107421875,-0.138706773519516,0.08885959535837173,-0.04065645858645439
1761507022092206800,8.495206787109375,-0.12335669994354248,0.12882138788700104,-0.059432704001665115
1761507022102178000,8.505177978515626,-0.09053883701562881,0.17421923577785492,-0.05747474730014801
1761507022112150000,8.51514990234375,-0.053317632526159286,0.2100968062877655,-0.04061654955148697
1761507022122122000,8.5251220703125,-0.003770052921026945,0.2505853772163391,-0.018823372200131416
1761507022132093000,8.535093017578125,0.04713185504078865,0.280740886926651,0.015630893409252167
1761507022142065200,8.545065185546875,0.10029414296150208,0.3154861032962799,0.055822521448135376
1761507022152035800,8.555035888671876,0.15053239464759827,0.34847888350486755,0.08190430700778961
1761507022162008000,8.565008056640625,0.19180554151535034,0.38155800104141235,0.08899230509996414
1761507022171980000,8.57497998046875,0.22091436386108398,0.39246922731399536,0.09709013998508453
1761507022181951000,8.584950927734376,0.24789804220199585,0.3848733603954315,0.11764334887266159
1761507022191923200,8.594923095703125,0.2751374840736389,0.3675607442855835,0.1420571208000183
1761507022201895000,8.60489501953125,0.30014511942863464,0.33953922986984253,0.16603142023086548
1761507022211866000,8.6148662109375,0.3268048167228699,0.3056354224681854,0.18919169902801514
1761507022221838000,8.624838134765625,0.3504025638103485,0.26839298009872437,0.20230643451213837
1761507022231810000,8.63481005859375,0.367512047290802,0.21725021302700043,0.2040078043937683
1761507022241781000,8.644781005859375,0.375247985124588,0.15013135969638824,0.19441749155521393
1761507022251753200,8.654753173828125,0.3686807155609131,0.0734616294503212,0.18736186623573303
1761507022261724000,8.664723876953126,0.3598227798938751,-0.013540642336010933,0.18776559829711914
1761507022271696100,8.674696044921875,0.3457314372062683,-0.0882595106959343,0.1836194396018982
1761507022281667800,8.684667724609374,0.33538398146629333,-0.14993059635162354,0.18126919865608215
1761507022291639000,8.69463916015625,0.32295817136764526,-0.20099736750125885,0.16505299508571625
1761507022301611000,8.704611083984375,0.30293548107147217,-0.22379270195960999,0.13463489711284637
1761507022311583000,8.7145830078125,0.279356986284256,-0.21072493493556976,0.09539499878883362
1761507022321554000,8.724553955078125,0.24778443574905396,-0.17125342786312103,0.03903159126639366
1761507022331526100,8.734526123046875,0.21554455161094666,-0.11874072998762131,-0.019519448280334473
1761507022341496800,8.744496826171876,0.17810796201229095,-0.05751572549343109,-0.0782349556684494
1761507022351469000,8.754468994140625,0.1409829705953598,-0.00288736866787076,-0.1285194307565689
1761507022361441000,8.76444091796875,0.11395721137523651,0.03980576992034912,-0.15907840430736542
1761507022371412000,8.774411865234375,0.09348474442958832,0.06906484812498093,-0.1778680384159088
1761507022381384200,8.78438427734375,0.08329255878925323,0.08535167574882507,-0.19019821286201477
1761507022391356000,8.79435595703125,0.08097781985998154,0.092890664935112,-0.19856852293014526
1761507022401327000,8.8043271484375,0.07492364943027496,0.09605610370635986,-0.19229412078857422
1761507022411299000,8.814299072265625,0.07530509680509567,0.10542675852775574,-0.17517127096652985
1761507022421270000,8.82427001953125,0.07709766924381256,0.12870465219020844,-0.15885888040065765
1761507022431242000,8.834241943359375,0.0853746086359024,0.15440058708190918,-0.1429836004972458
1761507022441214200,8.844214111328125,0.09552711248397827,0.17239795625209808,-0.13917101919651031
1761507022451185000,8.854184814453125,0.10689935833215714,0.1696120649576187,-0.13519924879074097
1761507022461157000,8.8641572265625,0.1184484213590622,0.15585657954216003,-0.1400214433670044
1761507022471128800,8.87412890625,0.12727345526218414,0.13028347492218018,-0.14726416766643524
1761507022481100000,8.88410009765625,0.1343127191066742,0.10825993120670319,-0.14169470965862274
1761507022491072000,8.894072021484375,0.1379496306180954,0.09127401560544968,-0.12888428568840027
1761507022501043200,8.904043212890626,0.1398572474718094,0.09240639209747314,-0.11334234476089478
1761507022511015000,8.914014892578125,0.14430047571659088,0.10267005860805511,-0.0979701578617096
1761507022520987100,8.923987060546875,0.14647682011127472,0.09819168597459793,-0.093596450984478
1761507022530957800,8.933957763671875,0.13862048089504242,0.1093732938170433,-0.09925676882266998
1761507022540930000,8.943929931640625,0.12586499750614166,0.13274119794368744,-0.12920480966567993
1761507022550902000,8.953902099609374,0.11585839092731476,0.15115173161029816,-0.16581304371356964
1761507022560873000,8.963873046875,0.10174629837274551,0.1676255166530609,-0.2042296677827835
1761507022570845200,8.97384521484375,0.08849088847637177,0.1748492419719696,-0.2189510315656662
1761507022580816100,8.983816162109376,0.073322594165802,0.15915045142173767,-0.21133892238140106
1761507022590788000,8.9937880859375,0.059934284538030624,0.1205654889345169,-0.18410366773605347
1761507022600760000,9.003760009765625,0.045371852815151215,0.06373176723718643,-0.14727933704853058
1761507022610731000,9.01373095703125,0.030513789504766464,0.006438870448619127,-0.12141624838113785
1761507022620703000,9.023702880859375,0.01730397902429104,-0.0482664555311203,-0.09393774718046188
1761507022630675200,9.03367529296875,0.002274351194500923,-0.08859651535749435,-0.07172421365976334
1761507022640646000,9.04364599609375,-0.005591295193880796,-0.11197827011346817,-0.05037897825241089
1761507022650618000,9.0536181640625,-0.015269237570464611,-0.11833411455154419,-0.03611325845122337
1761507022660589000,9.063589111328126,-0.031141407787799835,-0.11323442310094833,-0.014059889130294323
1761507022670561000,9.07356103515625,-0.04591329023241997,-0.10818146169185638,0.011359678581357002
1761507022680533000,9.083532958984375,-0.063334621489048,-0.09746728837490082,0.03402184695005417
1761507022690504200,9.093504150390626,-0.08424761891365051,-0.08776503056287766,0.05848446488380432
1761507022700476000,9.103475830078125,-0.10582375526428223,-0.0787329152226448,0.07811329513788223
1761507022710448000,9.1134482421875,-0.13341648876667023,-0.06902511417865753,0.10063982754945755
1761507022720418800,9.123418701171875,-0.15712182223796844,-0.05921296402812004,0.12163539230823517
1761507022730391000,9.13339111328125,-0.18087005615234375,-0.048811011016368866,0.14872708916664124
1761507022740362000,9.143362060546876,-0.1957869529724121,-0.04948878660798073,0.1730436086654663
1761507022750334000,9.153333984375,-0.21402332186698914,-0.04449766129255295,0.20123955607414246
1761507022760306200,9.16330615234375,-0.23159432411193848,-0.050189632922410965,0.22848743200302124
1761507022770277000,9.173277099609376,-0.25577569007873535,-0.04941954463720322,0.2578307092189789
1761507022780249000,9.1832490234375,-0.28344404697418213,-0.05202438309788704,0.26582789421081543
1761507022790221000,9.193220947265624,-0.3203505873680115,-0.10638143122196198,0.21995584666728973
1761507022800192000,9.20319189453125,-0.3603084087371826,-0.19406786561012268,0.11180806159973145
1761507022810164000,9.2131640625,-0.4018098711967468,-0.25536030530929565,-0.0023699458688497543
1761507022820135200,9.22313525390625,-0.4379692077636719,-0.2359333485364914,-0.08783957362174988
1761507022830107000,9.23310693359375,-0.4696482717990875,-0.14395664632320404,-0.13677577674388885
1761507022840079000,9.2430791015625,-0.4804428815841675,-0.021510886028409004,-0.13865862786769867
1761507022850050000,9.253050048828126,-0.4660697281360626,0.10417207330465317,-0.08990561217069626
1761507022860022000,9.26302197265625,-0.4365094304084778,0.21906724572181702,-0.02552768960595131
1761507022869994000,9.272993896484374,-0.4035751223564148,0.2905677258968353,0.02124076709151268
1761507022879965200,9.282965087890625,-0.368591845035553,0.31852957606315613,0.05747946724295616
1761507022889937000,9.29293701171875,-0.3369344174861908,0.31838762760162354,0.08398343622684479
1761507022899907300,9.3029072265625,-0.30572962760925293,0.2851359248161316,0.1038849726319313
1761507022909879600,9.312879638671875,-0.2730831503868103,0.22849665582180023,0.12208376079797745
1761507022919851500,9.3228515625,-0.23546412587165833,0.160860076546669,0.13753914833068848
1761507022929822500,9.332822509765625,-0.18489709496498108,0.09452090412378311,0.1514100581407547
1761507022939794400,9.34279443359375,-0.13351833820343018,0.032185085117816925,0.17221227288246155
1761507022949766400,9.352766357421874,-0.08329235017299652,-0.03124912455677986,0.18019583821296692
1761507022959737600,9.362737548828125,-0.05358798801898956,-0.08863864839076996,0.18329308927059174
1761507022969709300,9.372709228515625,-0.0386047326028347,-0.12416212260723114,0.17828942835330963
1761507022979681500,9.382681640625,-0.03950594738125801,-0.14725279808044434,0.15848588943481445
1761507022989652500,9.392652587890625,-0.04188787192106247,-0.15405520796775818,0.1337958723306656
1761507022999624400,9.40262451171875,-0.0488072969019413,-0.14900000393390656,0.10787427425384521
1761507023009595400,9.412595458984375,-0.05109657347202301,-0.12609228491783142,0.08638887107372284
1761507023019567600,9.422567626953125,-0.06856744736433029,-0.11032851040363312,0.06979178637266159
1761507023029539300,9.432539306640624,-0.11676472425460815,-0.21879708766937256,0.11226494610309601
1761507023039510500,9.442510498046875,-0.18644127249717712,-0.29299408197402954,0.15325018763542175
1761507023049482200,9.452482177734375,-0.2403731346130371,-0.30950093269348145,0.14206133782863617
1761507023059454500,9.462454345703126,-0.2683869004249573,-0.27919018268585205,0.11729235202074051
1761507023069425400,9.47242529296875,-0.26659032702445984,-0.1638154238462448,0.048524584621191025
1761507023079397400,9.4823974609375,-0.2524428367614746,-0.07216699421405792,-0.004055534489452839
1761507023089368300,9.492368408203125,-0.2367352545261383,0.008692379109561443,-0.007734691724181175
1761507023099340500,9.502340576171875,-0.2324848473072052,0.11529205739498138,0.000780499423854053
1761507023109312500,9.5123125,-0.2246738225221634,0.18576601147651672,0.01716095395386219
1761507023119283500,9.522283447265625,-0.20658349990844727,0.21512523293495178,0.03527684137225151
1761507023129255400,9.53225537109375,-0.19375836849212646,0.19922499358654022,0.0644262433052063
1761507023139227400,9.542227294921876,-0.1831592619419098,0.14671172201633453,0.10454437136650085
1761507023149198600,9.552198486328125,-0.16876573860645294,0.08040155470371246,0.14673523604869843
1761507023159170300,9.56217041015625,-0.15280327200889587,0.018918752670288086,0.17531415820121765
1761507023169141500,9.5721416015625,-0.13583609461784363,-0.022575998678803444,0.18379740417003632
1761507023179113500,9.582113525390625,-0.12311337143182755,-0.039913974702358246,0.16957293450832367
1761507023189085400,9.59208544921875,-0.11863086372613907,-0.03507416322827339,0.14357629418373108
1761507023199056400,9.602056396484375,-0.1171024814248085,-0.03227943927049637,0.11209667474031448
1761507023209028600,9.612028564453125,-0.10946895182132721,-0.056509580463171005,0.0946476086974144
1761507023219000300,9.622000244140626,-0.09466204792261124,-0.032013293355703354,0.0784398764371872
1761507023228971500,9.631971435546875,-0.08350033313035965,-0.010259745642542839,0.061230067163705826
1761507023238943200,9.641943115234374,-0.07002580165863037,-0.00894094817340374,0.060206882655620575
1761507023248914400,9.65191455078125,-0.0528315044939518,0.003291164990514517,0.05511724203824997
1761507023258886400,9.661886474609375,-0.041498422622680664,0.016310295090079308,0.04529763385653496
1761507023268858400,9.6718583984375,-0.03400181978940964,0.00564471585676074,0.034811969846487045
1761507023278829300,9.681829345703125,-0.038793113082647324,-0.00791450310498476,0.021096423268318176
1761507023288801500,9.691801513671875,-0.0520600862801075,-0.022989967837929726,0.020905131474137306
1761507023298773500,9.7017734375,-0.09298329055309296,-0.02573009394109249,0.03832407295703888
1761507023308744400,9.711744384765625,-0.13691909611225128,-0.02858622744679451,0.04246380180120468
1761507023318716400,9.72171630859375,-0.13779394328594208,-0.018453698605298996,0.02579507790505886
1761507023328687400,9.731687255859375,-0.12910377979278564,-0.011869668960571289,-0.0019307122565805912
1761507023338659600,9.74165966796875,-0.11230004578828812,-0.000060147373005747795,-0.042265884578228
1761507023348631300,9.75163134765625,-0.10879836976528168,0.0028410907834768295,-0.06905104219913483
1761507023358602500,9.7616025390625,-0.11305277049541473,0.0025617252103984356,-0.06997542828321457
1761507023368574500,9.771574462890625,-0.1086726188659668,0.014567253179848194,-0.05629286915063858
1761507023378546400,9.78154638671875,-0.09143956750631332,0.02727612480521202,-0.025506196543574333
1761507023388517400,9.791517333984375,-0.07577652484178543,0.016415715217590332,0.0003201152430847287
1761507023398489600,9.801489501953125,-0.07402416318655014,-0.0027571814134716988,0.02323528379201889
1761507023408460300,9.811460205078125,-0.08577647060155869,-0.026151081547141075,0.03586011379957199
1761507023418432500,9.8214326171875,-0.09409085661172867,-0.0342409648001194,0.035634543746709824
1761507023428404200,9.831404296875,-0.10047764331102371,-0.026951156556606293,0.025279145687818527
1761507023438375400,9.84137548828125,-0.09508021175861359,-0.005686881020665169,0.008410417474806309
1761507023448347400,9.851347412109375,-0.08755182474851608,0.020286567509174347,-0.0035237015690654516
1761507023458319400,9.8613193359375,-0.07308980077505112,0.030801527202129364,-0.01745283231139183
1761507023468290300,9.871290283203125,-0.06258277595043182,0.02681860141456127,-0.029513034969568253
1761507023478262500,9.881262451171875,-0.06575939059257507,0.00854425597935915,-0.04078859090805054
1761507023488233200,9.891233154296875,-0.06698128581047058,-0.019656648859381676,-0.047487128525972366
1761507023498205400,9.901205322265625,-0.06921141594648361,-0.0383877269923687,-0.05044962838292122
1761507023508177400,9.911177490234374,-0.06767331063747406,-0.04333582893013954,-0.04254955053329468
1761507023518148400,9.9211484375,-0.06801100075244904,-0.052622005343437195,-0.03931514173746109
1761507023528120600,9.93112060546875,-0.06211907044053078,-0.052799902856349945,-0.035167306661605835
1761507023538092300,9.94109228515625,-0.04992631822824478,-0.0856768861413002,0.016103604808449745
1761507023548063500,9.9510634765625,-0.03953244164586067,-0.07590506225824356,0.011886147782206535
1761507023558035500,9.961035400390625,-0.03690975904464722,0.009919563308358192,-0.011350199580192566
1761507023568006400,9.97100634765625,-0.03762917220592499,0.11281996220350266,-0.06030275300145149
1761507023577978400,9.980978271484375,-0.04534834250807762,0.18124322593212128,-0.09228837490081787
