time,seconds_elapsed,z,y,x
1761467796064194800,0.06719482421875,0.003031330519914627,-0.036219451369857415,-0.006519903288036585
1761467796074148900,0.07714892578125,0.005874444991350173,-0.03889826039136387,-0.016989658446703106
1761467796084103000,0.08710302734375,-0.005648235020041466,-0.04388373892004602,-0.012116764313867314
1761467796094057000,0.097056884765625,-0.0010100538253784179,-0.04791187105812132,-0.010016440166905522
1761467796104010000,0.107010009765625,0.0051245034068822855,-0.042069483439158645,-0.018202797096129507
1761467796113963800,0.1169638671875,-0.006698036333918571,-0.034081699555646626,-0.01921005617622286
1761467796123917800,0.126917724609375,-0.00475917722582817,-0.03981620635334402,-0.013917511859210207
1761467796133871900,0.136871826171875,-0.01194528933763504,-0.04267639982374385,-0.020256259027216582
1761467796143826000,0.146825927734375,-0.00760521430671215,-0.04054797296030447,-0.008503432654915377
1761467796153778700,0.15677880859375,-0.006857610809803009,-0.0425961193954572,-0.013123950328724458
1761467796163733000,0.16673291015625,-0.00042553193569183347,-0.03158979140836745,-0.009279412862937897
1761467796173687000,0.17668701171875,0.004958499190211295,-0.04206581191103905,-0.006539302108250558
1761467796183640800,0.186640869140625,-0.007613982135057449,-0.04436393278557807,-0.00464791713738814
1761467796193595000,0.196594970703125,0.013483166429400444,-0.04236213710964657,-0.007404686765931546
1761467796203548000,0.2065478515625,-0.001034019222855568,-0.04308372938246466,0.007847991820331662
1761467796213502000,0.216501953125,-0.010164251139760017,-0.04668284071981907,-0.01709875397752039
1761467796223456000,0.2264560546875,-0.004030278429389,-0.039582799456268546,-0.004673069844953716
1761467796233409800,0.236409912109375,-0.005081248787045478,-0.04568320782375522,-0.016114044655952602
1761467796243362800,0.24636279296875,-0.005681552767753601,-0.04743750414517708,-0.022468930108007042
1761467796253316900,0.25631689453125,-0.01256663610637188,-0.04398478814172558,-0.013218944268953054
1761467796263271000,0.26627099609375,-0.010175941577553749,-0.044974465899355706,-0.0044741223399061706
1761467796273224700,0.276224609375,-0.0020996026277542114,-0.053162512462167064,-0.010066106261219829
1761467796283178800,0.2861787109375,-0.01137888762652874,-0.038335731137776746,-0.013712399474857374
1761467796293131800,0.2961318359375,-0.022006664624810216,-0.04153031679484993,-0.003963487670337781
1761467796303085800,0.3060859375,-0.005697334858775139,-0.04815766251273453,-0.016827782415878026
1761467796313040100,0.3160400390625,-0.008394903379678726,-0.03432725354824215,-0.011222016564384102
1761467796322994000,0.325993896484375,-0.01184065991938114,-0.05445254313955083,0.000683689681533724
1761467796332947000,0.335947021484375,-0.008701777371764183,-0.058496914026374,-0.008351913621323183
1761467796342901000,0.34590087890625,-0.011847089660167693,-0.049394684361247346,-0.00857289029508829
1761467796352855000,0.35585498046875,-0.01319791974723339,-0.04547940148049965,-0.022817707013059407
1761467796362808800,0.365808837890625,-0.016043372306227682,-0.03707976712677628,-0.008602034191181883
1761467796372763000,0.375762939453125,0.0004161795854568481,-0.0567636787592899,-0.023427335944538934
1761467796382716000,0.3857158203125,-0.006620294922590256,-0.05746230114847421,-0.022775913697946817
1761467796392670000,0.395669921875,-0.006023498073220252,-0.0489049646155443,-0.008791172688268125
1761467796402624000,0.4056240234375,-0.010365326669812202,-0.04155127738448791,-0.02044941611229442
1761467796412577800,0.415577880859375,-0.005281739795207977,-0.038937140230182556,-0.0158789298589807
1761467796422531800,0.42553173828125,-0.0114198041588068,-0.03170735337343067,-0.016307384404120967
1761467796432484900,0.43548486328125,-0.0042407063096761705,-0.036359700090764085,0.0024761625888757408
1761467796442439000,0.44543896484375,-0.0024468086302280425,-0.047394240392185746,-0.00880345678110607
1761467796452392700,0.455392822265625,0.0029372224956750867,-0.02699231668342836,-0.022387992092594504
1761467796462346800,0.4653466796875,-0.0011064999371767042,-0.040125792892323806,-0.012879126988491042
1761467796472301000,0.475301025390625,-0.008742109382152558,-0.042551275606732816,-0.007042484123725444
1761467796482253800,0.48525390625,-0.019968436795473096,-0.046110484191961586,-0.0014457418289035558
1761467796492208000,0.4952080078125,0.0023258125990629195,-0.045694131076568736,-0.011148768665082753
1761467796502162000,0.505161865234375,-0.012341010656952858,-0.04563741418696008,-0.016582000094419343
1761467796512116000,0.515115966796875,-0.007702829462289809,-0.03418738841982558,-0.006602412206027656
1761467796522069000,0.525069091796875,-0.0038140053302049633,-0.035268224192783235,-0.018991673318343234
1761467796532023000,0.53502294921875,0.006209960556030273,-0.03719994117403403,-0.015609026876417919
1761467796541976800,0.544976806640625,-0.01833352907001972,-0.04480895487302914,-0.01242469775187783
1761467796551931000,0.554930908203125,-0.01175181259214878,-0.04399028630075045,-0.0003554349747020751
1761467796561885000,0.564885009765625,-0.005770400094985962,-0.04168069418412633,-0.008223885061172768
1761467796571838000,0.574837890625,-0.018640987583994864,-0.03183154600868002,0.002873664873326197
1761467796581792000,0.5847919921875,-0.013556231665611266,-0.04042778064673766,-0.007065198279032483
1761467796591745800,0.594745849609375,-0.01475508606135845,-0.03599016352547332,-0.0038669410938397047
1761467796601699800,0.604699951171875,-0.008922142124176025,-0.04585408914494328,-0.005161657079495489
1761467796611654000,0.61465380859375,-0.0032388357907533645,-0.05475693291360512,-0.015249527647951617
1761467796621607000,0.62460693359375,-0.013417699977755547,-0.036200764935696496,-0.005546108086127787
1761467796631560700,0.634560791015625,-0.0004021510601043701,-0.03535602120724506,-0.012496173819201066
1761467796641515000,0.644514892578125,-0.013722820404171943,-0.04448220713669434,-0.007949086707783862
1761467796651469000,0.654468994140625,-0.02255377711355686,-0.04341280607320368,-0.008530311528686434
1761467796661422000,0.664422119140625,-0.007442717221379279,-0.037715918739000334,-0.01677743133497424
1761467796671376000,0.6743759765625,-0.009090484428405762,-0.03193073206683621,-0.015859284443594513
1761467796681330000,0.684329833984375,-0.0005623100578784942,-0.0412409875926096,-0.011226199549157172
1761467796691284000,0.694283935546875,-0.006701543465256691,-0.040863505182880906,-0.012214534733071922
1761467796701238000,0.704238037109375,-0.0022147534400224684,-0.029752063720347357,-0.00461831658356823
1761467796711191000,0.71419091796875,-0.0201730194568634,-0.03111194476354867,-0.015423450309596956
1761467796721144800,0.724144775390625,-0.013291443249583243,-0.04025446990644559,-0.010328127331426367
1761467796731099000,0.734098876953125,-0.006409867042303085,-0.030064819463947786,-0.004685427003027871
1761467796741053000,0.744052978515625,-0.005216857865452766,-0.04214076771023683,-0.0062416800017002965
1761467796751006700,0.7540068359375,-0.01988426564335823,-0.03208144738283008,-0.012040739935589953
1761467796760959700,0.763959716796875,-0.01614624815881252,-0.023600400089658795,-0.010743274870421737
1761467796770913800,0.773913818359375,-0.0046270752787590025,-0.026903907747613264,-0.016680345902359114
1761467796780867800,0.783867919921875,-0.005675707548856735,-0.03332689913297072,-0.01302097401143983
1761467796790822000,0.79382177734375,0.006292962664365768,-0.037618778507458046,-0.014267914465768262
1761467796800776000,0.80377587890625,-0.0020896657556295395,-0.040414583238447085,-0.008124123614281416
1761467796810728700,0.813728759765625,-0.006431494352221488,-0.038423847812646995,0.005779880309384316
1761467796820683000,0.82368310546875,-0.004937456402182579,-0.02755538479313254,-0.011339541996829211
1761467796830637000,0.833636962890625,-0.003892331263422966,-0.03553165176878683,-0.015334420319274067
1761467796840590800,0.8435908203125,0.001342062258720398,-0.024297588573582468,-0.019053404309786855
1761467796850545000,0.853544921875,-0.012875848186016082,-0.026954998614033682,-0.00857066180538386
1761467796860498000,0.863497802734375,-0.019613047486543654,-0.02482607856024988,-0.01584837032393552
1761467796870452000,0.873451904296875,0.0035778584867715833,-0.03170990152354352,-0.00982071666540578
1761467796880406000,0.883406005859375,-0.003606500059366226,-0.04076746092988178,-0.0187583486196585
1761467796890359800,0.89335986328125,0.001779284632205963,-0.03960953219956718,-0.014753012835280969
1761467796900312800,0.903312744140625,0.0005804302364587784,-0.034178867186652494,-0.006891275617387145
1761467796910267000,0.913266845703125,-0.00765139153599739,-0.0475508739923127,-0.01148681411356665
1761467796920221000,0.923220947265625,-0.0078045362710952755,-0.03338905024952255,-0.010015398987289518
1761467796930174700,0.9331748046875,-0.000025718963146209716,-0.033714683741005134,0.0006656973671168089
1761467796940128800,0.943128662109375,-0.0025707272708415984,-0.03937192405140959,-0.021590950830234212
1761467796950081800,0.953081787109375,-0.011999065351486206,-0.03823101952113211,-0.008744319605547935
1761467796960035800,0.963035888671875,-0.008408931905031204,-0.036065895642805844,-0.011283263498637825
1761467796969990000,0.972989990234375,-0.006914893954992294,-0.024408392004296182,-0.010041117950435727
1761467796979944000,0.98294384765625,-0.010209843847155571,-0.03461538630723953,-0.0015860910145100205
1761467796989898000,0.99289794921875,-0.00587502951323986,-0.035673297862336036,0.000689744962984696
1761467796999851000,1.00285107421875,-0.011264905858039855,-0.03883247427931055,-0.010019828567234799
1761467797009805000,1.01280517578125,-0.010668693530559539,-0.043463714276533574,-0.017207127989130093
1761467797019758800,1.0227587890625,-0.013216039925813675,-0.03287875350667164,-0.017072523557720706
1761467797029713000,1.032712890625,-0.0093283848375082,-0.039178018047660586,-0.01880616981675848
1761467797039666000,1.042666015625,-0.011125789648294448,-0.03224859324381687,-0.006022621290385723
1761467797049620000,1.052619873046875,-0.006636661535501479,-0.035393878132756795,-0.007491652663331478
1761467797059574000,1.062573974609375,-0.0015489830076694487,-0.029237967585213482,-0.013045067273080349
1761467797069528000,1.072528076171875,-0.009481529572606087,-0.0307292016568128,-0.006353451546793803
1761467797079482000,1.082482177734375,-0.006641337710618972,-0.022221512951888144,0.0010498469796497373
1761467797089435100,1.09243505859375,-0.006647182929515838,-0.02790014311019331,-0.0054642110894899815
1761467797099389200,1.10238916015625,0.0005342530071735382,-0.03367979509071447,-0.01021240113042295
1761467797109343000,1.112343017578125,-0.01338438223004341,-0.01680829226411879,0.0006050897536799311
1761467797119297000,1.122297119140625,-0.0030628947019577025,-0.03907345256148837,0.0011163089451380072
1761467797129251000,1.1322509765625,-0.011444938600063324,-0.03682676048008725,-0.006354976783599704
1761467797139204000,1.1422041015625,0.006660042411088943,-0.033871262542204926,-0.008808845342276618
1761467797149158000,1.152157958984375,0.00531213493347168,-0.03426840863362886,-0.008307289028307423
1761467797159112000,1.16211181640625,-0.012646131083369254,-0.027675449242535975,-0.017759912166837602
1761467797169066000,1.17206591796875,-0.011599836900830269,-0.02212544129942544,-0.001561468029906973
1761467797179020000,1.18202001953125,-0.008010287976264954,-0.03163000468774699,-0.010638106596050783
1761467797188973000,1.19197314453125,-0.018036591950058935,-0.026485755400778726,-0.0099153726789169
1761467797198926800,1.2019267578125,0.007398293557763099,-0.03302693893886171,-0.006123524381592869
1761467797208881000,1.211880859375,-0.0042751931011676784,-0.033382419579336416,-0.007580043332837521
1761467797218835000,1.2218349609375,0.0020078326910734174,-0.02823851735224016,-0.01365744528407231
1761467797228788000,1.2317880859375,-0.011612111860513686,-0.02326660155802965,-0.011236556546390056
1761467797238741800,1.24174169921875,-0.018947861576080322,-0.02420082280137576,-0.004544073170423508
1761467797248696000,1.251696044921875,0.000353051221370697,-0.0338961686545983,-0.003823074552649632
1761467797258650000,1.261650146484375,-0.004884264910221099,-0.03798499973765574,-0.012624074515188112
1761467797268604200,1.271604248046875,-0.00817687671482563,-0.023920234028017146,-0.008960410041641444
1761467797278557200,1.28155712890625,-0.00803133076429367,-0.025667525219917296,-0.004248624754650518
1761467797288511000,1.291510986328125,-0.006388239732384681,-0.016986653638863935,-0.0013766312486026436
1761467797298465000,1.301465087890625,-0.006840075153112411,-0.03152673610951751,-0.01207966544018127
1761467797308419000,1.311419189453125,-0.014623568636178969,-0.022324224407691506,-0.009887333894520997
1761467797318372900,1.321372802734375,-0.008341711887717247,-0.03250272326851263,-0.012993583681015297
1761467797328326000,1.331325927734375,0.004373977300524711,-0.03157329693129286,-0.01639652399229817
1761467797338280000,1.341280029296875,-0.00924655177295208,-0.021904245429951695,-0.010394662362150846
1761467797348234000,1.35123388671875,-0.017478958067297934,-0.04015272656502202,-0.0036806156083475797
1761467797358188000,1.36118798828125,-0.014037877702713012,-0.03288772226441651,-0.0020790804295334965
1761467797368141800,1.371141845703125,-0.012093173375725746,-0.02686289988378994,-0.009098795599024743
1761467797378094800,1.3810947265625,-0.017330489507317543,-0.024443335453514008,-0.0058227513367310165
1761467797388049000,1.391048828125,-0.014339490997791289,-0.034554431633930655,-0.011313859566301107
1761467797398003200,1.401003173828125,-0.007009586501121521,-0.035922221988951786,0.0012888068346772342
1761467797407957000,1.41095703125,-0.012400631889700888,-0.02347650884850882,-0.00012334325187839568
1761467797417911000,1.4209111328125,-0.0020785598397254942,-0.023022700666403398,-0.016104674039408563
1761467797427864000,1.430864013671875,-0.0025298107385635375,-0.03176719380188733,-0.020347133914753793
1761467797437818000,1.440818115234375,-0.005973229190707206,-0.02346680943840183,-0.020624361687246708
1761467797447772000,1.45077197265625,0.006294716230034828,-0.029181360293459146,-0.013091207969747483
1761467797457726000,1.460725830078125,-0.003132452806830406,-0.03033548963149078,-0.018527188478596506
1761467797467680000,1.470679931640625,-0.01390811384320259,-0.019364324289327488,-0.013516675973357631
1761467797477633000,1.480633056640625,-0.007026537635922431,-0.009399166785087436,-0.01886352602718398
1761467797487587000,1.490587158203125,-0.010768062251806258,-0.027198022722825406,-0.012104233625857158
1761467797497540900,1.500540771484375,-0.010470540609955788,-0.02699490136615932,-0.001263261401467025
1761467797507495000,1.510494873046875,0.005537760382890701,-0.032564947450300676,0.00509712220961228
1761467797517449000,1.520448974609375,-0.005237316131591796,-0.019809428575169295,0.004662192257912829
1761467797527402000,1.530402099609375,-0.011522095489501952,-0.027566088850237428,0.0070576451602391895
1761467797537355800,1.540355712890625,-0.01317044721841812,-0.01771651141652837,-0.00010936039229854941
1761467797547309800,1.550309814453125,-0.012723287972807883,-0.03677739577987231,-0.007257423782348633
1761467797557264100,1.56026416015625,-0.009432429733872413,-0.03505898362258449,0.0008398209581617265
1761467797567218200,1.57021826171875,-0.00464636450111866,-0.025672904647933318,-0.007502986908098683
1761467797577171200,1.580171142578125,0.007175006195902824,-0.018600345046352593,-0.01577605400639586
1761467797587125000,1.590125,-0.0205085350215435,-0.029700278734182937,-0.009431507285265251
1761467797597079000,1.6000791015625,-0.002851297777891159,-0.02963433735850267,-0.010235489745065569
1761467797607033000,1.610033203125,-0.013927403065562248,-0.024319480744982136,-0.014783407973544672
1761467797616986000,1.619986083984375,0.00492693500816822,-0.027827233137609434,0.004001938250893727
1761467797626940000,1.62993994140625,0.012108370944857597,-0.03627634178940207,-0.009897261633491142
1761467797636894000,1.63989404296875,-0.004952069449424743,-0.029099956487165762,-0.018459520936710758
1761467797646848000,1.649847900390625,-0.012734978410601614,-0.021214783594757317,-0.006772215814981609
1761467797656802000,1.659802001953125,-0.001364274090528488,-0.03173173889601603,-0.009458550555817782
1761467797666755000,1.669755126953125,-0.0007674772411584853,-0.02432214762610383,-0.014379174554208292
1761467797676708900,1.679708984375,0.0047679450541734695,-0.01496388824013993,0.007920947458688168
1761467797686663000,1.689662841796875,-0.008849076887965202,-0.016754233122477306,-0.012745344540989025
1761467797696617000,1.699616943359375,-0.010047931283712386,-0.02778432557764463,0.0018422485995106398
1761467797706571000,1.709571044921875,-0.014836919125914573,-0.019082959197834135,0.006660681731905788
1761467797716523800,1.719523681640625,-0.027108371677994725,-0.030299696798902005,-0.01541504780743271
1761467797726478000,1.72947802734375,-0.011547229930758476,-0.03443770991908386,-0.016593544401740653
1761467797736432000,1.73943212890625,-0.01080196452140808,-0.0348953357597813,-0.005161912807822227
1761467797746386200,1.74938623046875,-0.004068272352218628,-0.014926908097462728,-0.000284671293431893
1761467797756340000,1.759340087890625,-0.011099486163258551,-0.016141864244639873,-0.009814305190928279
1761467797766293000,1.76929296875,-0.006311082842946052,-0.02143101102816872,-0.007062841925164684
1761467797776247000,1.7792470703125,-0.006162029761075973,-0.028921933039138092,-0.014663964578649028
1761467797786201000,1.789201171875,-0.010501520270109177,-0.034048601003643125,-0.009547772342385723
1761467797796155000,1.79915478515625,-0.015441899281740187,-0.02585334838191047,-0.002760249360417947
1761467797806109000,1.80910888671875,-0.007663666495680808,-0.02946860713646747,-0.006291309563396498
1761467797816062000,1.81906201171875,-0.01634557012319565,-0.03228005696116015,-0.004037137428438291
1761467797826016000,1.82901611328125,-0.019787235009670258,-0.02372672074991278,-0.00855245942841284
1761467797835970000,1.838969970703125,-0.015897241833806038,-0.031321559793082994,-0.010483801950328052
1761467797845923800,1.848923828125,-0.006619710400700569,-0.029809876588499172,-0.013338195867603644
1761467797855878000,1.8588779296875,-0.015448913544416427,-0.032459148988267406,0.0001288596772123128
1761467797865831000,1.868830810546875,-0.006621463966369629,-0.028342744911694896,-0.00497844599969685
1761467797875785000,1.878784912109375,-0.013656184908747673,-0.03362631133780815,-0.0036153866187203674
1761467797885739000,1.888739013671875,0.0029530045866966244,-0.028634393935184924,-0.003331190249323845
1761467797895693000,1.898693115234375,-0.005876198557019234,-0.018419563385657964,0.0007094269109889865
1761467797905647000,1.908647216796875,-0.021290040788054465,-0.029764512209966777,0.003287606835924089
1761467797915600100,1.91860009765625,-0.0105178868830204,-0.024820826996397226,0.00386221925294958
1761467797925554000,1.928553955078125,-0.00992225907742977,-0.015308664823509751,-0.01684044096805155
1761467797935508000,1.938508056640625,-0.007827917146682739,-0.028416878726985305,-0.019247346846153958
1761467797945462000,1.9484619140625,0.006986205625534057,-0.012380986474314704,0.004083625184977427
1761467797955416000,1.958416015625,-0.009625906479358673,-0.021392953173257408,-0.0084713478830643
1761467797965369000,1.968369140625,0.007581248909235,-0.014124423475004732,-0.0009887370427139103
1761467797975323000,1.978322998046875,-0.00020166005194187164,-0.022261781030194834,0.005593938416382297
1761467797985277000,1.98827685546875,-0.005887304472923278,-0.027891868472192435,-0.0033139468535780905
1761467797995231000,1.99823095703125,-0.00618482611477375,-0.023422221378004177,-0.0017448435064870863
1761467798005184800,2.008184814453125,-0.0028927988320589064,-0.033766048602061345,0.00034255722681991756
1761467798015138800,2.018138916015625,0.011322773525118826,-0.024921821419149635,-0.013412548878602683
1761467798025091800,2.028091796875,0.005935235267877578,-0.017559521623374895,0.0005121599063742906
1761467798035046000,2.0380458984375,-0.010077157378196715,-0.029167350034415722,-0.010864398765750228
1761467798045000000,2.048,-0.023094459861516953,-0.024206046965764835,-0.008866639944119379
1761467798054953700,2.05795361328125,-0.0141167881578207,-0.018398648461792618,-0.01149510701787658
1761467798064907800,2.06790771484375,-0.008581365862488746,-0.017263461286248637,-0.014650173515314235
1761467798074860800,2.07786083984375,0.0006949965268373489,-0.036502688758028666,-0.011064624912431462
1761467798084814800,2.08781494140625,0.0006944120049476623,-0.024965350033622234,-0.017621745805162934
1761467798094768600,2.0977685546875,0.0072772975265979764,-0.03124451250149868,-0.0001695478806272149
1761467798104722700,2.10772265625,-0.01068038396835327,-0.014907938535511494,-0.010005005457438527
1761467798114676700,2.1176767578125,0.0020376433074474334,-0.02450260049323551,-0.006635455959104001
1761467798124629800,2.127629638671875,-0.013376783445477484,-0.02670382773140445,-0.006857702141348272
1761467798134583800,2.137583740234375,-0.009637596917152404,-0.021334163057571277,-0.010457626329455525
1761467798144537600,2.14753759765625,-0.009338321709632873,-0.01311127351024188,-0.014331097628781571
1761467798154491600,2.15749169921875,-0.0005114566534757614,-0.014975231618061661,-0.01342653173818253
1761467798164446000,2.167446044921875,-0.01772270369529724,-0.03076483922577463,-0.012835525308782235
1761467798174398700,2.177398681640625,-0.0069505497902631755,-0.01881552216699347,-0.014063459668541327
1761467798184352800,2.187352783203125,0.00008241758644580841,-0.029037567908596247,-0.00697903609923087
1761467798194306800,2.197306884765625,-0.0023117840737104413,-0.03182170960125513,-0.009586341653950512
1761467798204260900,2.2072607421875,-0.017125906845927238,-0.020762354518985376,-0.012692116516409441
1761467798214215000,2.21721484375,-0.010993103179335594,-0.0207767118379008,0.003604947423096746
1761467798224168000,2.22716796875,-0.005307458758354187,-0.013147842660965397,-0.003979105364577845
1761467798234121700,2.237121826171875,-0.011890928801894187,-0.012684517731843516,-0.011200288789765908
1761467798244075800,2.24707568359375,-0.005160159242153167,-0.0275144408613909,-0.0038324360360391437
1761467798254029800,2.25702978515625,0.010850479838252066,-0.025223151586437596,-0.0024638602297287434
1761467798263983600,2.266983642578125,0.013841478347778319,-0.028697220905171704,0.0012558087473735213
1761467798273936600,2.2769365234375,-0.005612579184770584,-0.01908504155706614,-0.008861132651939987
1761467798283890700,2.286890625,-0.011150339567661285,-0.021182214765716342,-0.003546093375328928
1761467798293844700,2.2968447265625,-0.008456862699985504,-0.02335342132495716,0.000563287305412814
1761467798303798800,2.306798828125,-0.016238018095493315,-0.017420578943565485,-0.006403948758170008
1761467798313752800,2.3167529296875,0.0015665186643600464,-0.034460414941236375,-0.00959020497831516
1761467798323705600,2.32670556640625,0.0017138181805610656,-0.030173211741866542,-0.014921373405819758
1761467798333660000,2.336659912109375,-0.0098076927870512,-0.017456819300726054,-0.01601560751646757
1761467798343614000,2.346614013671875,-0.0033744448691606518,-0.012840320214908569,-0.007064741621306166
1761467798353567700,2.356567626953125,-0.017740823873877525,-0.009262680923845619,-0.005620470230281353
1761467798363521800,2.366521728515625,-0.008316577446460723,-0.03113918896350078,-0.011838011304568498
1761467798373474800,2.376474853515625,-0.006671732848882675,-0.02791236327094957,0.00026676117740571497
1761467798383428900,2.386428955078125,-0.0023345804274082184,-0.01975049232901074,-0.008187306777294725
1761467798393383000,2.3963828125,-0.0018885902255773544,-0.03235880301948636,0.0003956573872361332
1761467798403336700,2.406336669921875,-0.009969020828604697,-0.029597941737715152,-0.010871933618234469
1761467798413290800,2.416290771484375,-0.006828384715318679,-0.015588669074978679,-0.0033721798468381164
1761467798423243800,2.426243896484375,-0.003988192853331566,-0.02346844427306205,-0.010258907153271138
1761467798433197800,2.43619775390625,-0.004438274708390235,-0.024618783351965247,-0.0032231541644316165
1761467798443151600,2.446151611328125,-0.0020446575701236723,-0.022904855573549866,-0.007586774467723443
1761467798453105700,2.456105712890625,-0.0066845923304557795,-0.028634019475849343,-0.009568376738997176
1761467798463059700,2.466059814453125,-0.0027957681983709335,-0.02286745530576445,-0.01132481935173273
1761467798473012700,2.4760126953125,-0.01656593487560749,-0.017915011397004126,-0.00961246247589588
1761467798482966800,2.485966796875,-0.011333294919133185,-0.019528556674020363,-0.00020769706708379087
1761467798492920800,2.4959208984375,-0.007145780101418495,-0.019118889027740806,0.009568522869469598
1761467798502875000,2.505875,0.0036240357160568235,-0.02347080062692985,-0.005431313466886058
1761467798512829000,2.515828857421875,-0.007452069571614265,-0.009166435741446911,0.003783299664687365
1761467798522782700,2.52578271484375,-0.007602291697263717,-0.024435754935257136,-0.0015574403087608515
1761467798532735700,2.53573583984375,-0.018379706299304962,-0.03537035112669691,-0.007901804366800933
1761467798542689800,2.545689697265625,0.0003226560831069946,-0.03126342726452276,-0.016325257987529037
1761467798552643800,2.555643798828125,-0.004167056551575661,-0.029148152143601325,-0.009607146979961543
1761467798562597600,2.56559765625,0.002865326303243637,-0.02239085990311578,-0.0019308767310343682
1761467798572551700,2.5755517578125,0.00391045144200325,-0.012863098302297293,-0.0002551712043117732
1761467798582504700,2.585504638671875,0.0034592005431652068,-0.019768475510273126,0.0017117723539471625
1761467798592458800,2.595458740234375,-0.0020791443616151807,-0.02990582037679851,-0.0007483432824257761
1761467798602412800,2.605412841796875,-0.014053075271844863,-0.01870831719916314,0.003648503437032923
1761467798612366600,2.61536669921875,0.003601239362359047,-0.021541366934310642,0.009942425082623958
1761467798622321000,2.62532080078125,0.0003045359045267105,-0.013204166824929416,-0.0033182120367418974
1761467798632273700,2.635273681640625,-0.007927870389819144,-0.01152268001139164,-0.0077009662987664335
1761467798642228000,2.64522802734375,-0.0008954875349998473,-0.011788801867980508,-0.016080726908240466
1761467798652181800,2.655181640625,-0.0010462941825389862,-0.0169562128348276,-0.00005684475377202034
1761467798662135800,2.6651357421875,-0.01047346321940422,-0.029490828101430087,-0.006517300338996574
1761467798672089900,2.67508984375,0.0001502221256494522,-0.013581293041631578,-0.0014509385938290505
1761467798682043000,2.68504296875,-0.007930208477377892,-0.016911624774429947,-0.0044148664333391935
1761467798691997000,2.694996826171875,-0.010773907470703125,-0.01321372010456398,-0.007176239171763882
1761467798701950700,2.70495068359375,-0.014814122772216796,-0.019027995873894542,0.0010459836552850902
1761467798711904800,2.71490478515625,-0.013766659545898436,-0.025354952139407395,-0.009073286698432638
1761467798721858800,2.72485888671875,-0.0014998831689357758,-0.0052406223335303365,-0.002470399568369612
1761467798731812600,2.7348125,-0.009283376652002334,-0.013850154844578355,-0.004510801088484004
1761467798741765600,2.744765625,-0.013923895934224127,-0.0262265473421663,-0.0011325842265039682
1761467798751719700,2.7547197265625,-0.008536942198872566,-0.01977894210536033,-0.007136153756547719
1761467798761673700,2.764673828125,0.003135375416278839,-0.0103997403960675,-0.011749903762852773
1761467798771627800,2.774627685546875,-0.01482347512245178,-0.022145872166100887,-0.00944806569442153
1761467798781581800,2.784581787109375,-0.011980945172905922,-0.014207772643212229,-0.0022219047000166026
1761467798791534600,2.79453466796875,0.0007376666247844696,-0.025975897049345074,-0.016313850677525624
1761467798801489000,2.804489013671875,-0.006146832191944122,-0.01641395918428898,-0.0132174007658381
1761467798811443000,2.81444287109375,-0.01213350538611412,-0.014637323166895658,-0.016415219559613614
1761467798821396700,2.824396728515625,-0.011237433329224587,-0.03084094580244273,-0.007295545569341629
1761467798831350800,2.834350830078125,0.0032756606698036194,-0.025883834851719436,-0.005702138898056
1761467798841303800,2.8443037109375,-0.01827390783727169,-0.02419882264053449,0.0023081582113634795
1761467798851257900,2.8542578125,-0.01288987671136856,-0.02464998220782727,-0.0005214391913730651
1761467798861212000,2.8642119140625,0.0020727146208286283,-0.013761946838162838,-0.008927868612064047
1761467798871165700,2.874165771484375,-0.00959901847243309,-0.021035846831277013,-0.008675172492628917
1761467798881119700,2.88411962890625,-0.010199322453141212,-0.020363701457064596,0.006451477694325148
1761467798891073800,2.89407373046875,-0.001371288353204727,-0.024695666246768087,-0.013396858119126408
1761467798901026800,2.90402685546875,-0.015738836401700974,-0.014125848247110842,-0.008573657480068504
1761467798910980600,2.913980712890625,-0.0016746552139520643,-0.02797682507559657,0.008251412388915195
1761467798920934700,2.9239345703125,-0.012599953854084014,-0.013841222619451582,0.009319078153045848
1761467798930889000,2.933888916015625,0.004907061263918876,-0.012475286294799298,0.0010992208130192012
1761467798940842800,2.9438427734375,-0.014845102432370185,-0.019647260283399373,-0.006695323787024244
1761467798950795800,2.953795654296875,-0.013648586124181747,-0.015995861636381597,-0.006867712078709155
1761467798960749800,2.963749755859375,0.0008656769186258316,-0.02018927647192031,-0.002032199947349727
1761467798970704000,2.973703857421875,0.005502104547619819,-0.01741641422510147,-0.012290623043430968
1761467798980658000,2.983657958984375,-0.007217091771960258,-0.024871917862817644,0.0010094145045615732
1761467798990611700,2.99361181640625,-0.020535423028469085,-0.02864922617813572,0.003934654301498085
1761467799000564700,3.003564697265625,-0.006469488275051116,-0.025357180629111825,-0.015075787649396806
1761467799010518800,3.013518798828125,0.005350128856301308,-0.022935981364175677,0.0008748740052338689
1761467799020472300,3.023472412109375,-0.016797405543923376,-0.017356153671536593,-0.003584790551057085
1761467799030426600,3.033426513671875,-0.010811901393532752,-0.02004190389048308,0.00015298947147093713
1761467799040380400,3.04338037109375,-0.006772270613908767,-0.016101806228887287,-0.008413169688731431
1761467799050334500,3.05333447265625,-0.013505378261208534,-0.019896047412697224,0.0032773320370819417
1761467799060287500,3.06328759765625,-0.020839958932995794,-0.01172541777556762,-0.00862084848950617
1761467799070241500,3.073241455078125,-0.017848375901579856,-0.01984665531301871,-0.00552128417212516
1761467799080195300,3.0831953125,-0.009321955096721648,-0.028609898814745245,-0.004496379837486892
1761467799090149400,3.0931494140625,-0.019798925447463988,-0.013832473057415336,0.0028610428537707774
1761467799100103400,3.103103515625,-0.004237783700227737,-0.006842175778653472,0.00434382875743322
1761467799110056400,3.113056396484375,-0.00887830298244953,-0.018165606890898196,-0.014330841900454833
1761467799120010500,3.123010498046875,-0.008131284007430076,-0.015611739423312246,-0.01410622109803371
1761467799129964300,3.13296435546875,-0.0009498480707406997,-0.009432868125289678,0.001056331519363448
1761467799139918300,3.14291845703125,-0.007534487158060073,-0.01678657362265512,-0.012362391371699049
1761467799149872400,3.152872314453125,-0.005887888994812965,-0.016049674182850866,-0.0016215733198449015
1761467799159826400,3.162826416015625,0.011169628790020942,-0.01884140552692115,-0.006518295852839947
1761467799169779200,3.172779296875,-0.018759645527601242,-0.02127117169080302,-0.0018995865436270832
1761467799179733500,3.1827333984375,-0.0027495909690856933,-0.024174236188549546,-0.009534775863494724
1761467799189687600,3.1926875,-0.006640168666839599,-0.0287537094659172,-0.0004668320604600012
1761467799199641300,3.202641357421875,0.0006932429611682891,-0.018597732964158058,-0.009367145945318043
1761467799209595400,3.212595458984375,-0.00514087001979351,-0.021906218191329388,-0.0021413502770941703
1761467799219548400,3.22254833984375,-0.009331891968846321,-0.022282613755669443,-0.004514034225186333
1761467799229502500,3.23250244140625,-0.012026537880301474,-0.013314897190406919,-0.004440210937149822
1761467799239456500,3.24245654296875,-0.006341477981209755,-0.01192362549509853,0.015059000911377369
1761467799249410300,3.252410400390625,-0.017567805394530296,-0.014012597130984067,0.0070421918627806
1761467799259364400,3.2623642578125,-0.012481295910477638,-0.02523813909301534,0.002330927165597677
1761467799269318400,3.272318359375,-0.019516016852855683,-0.017401253188587724,-0.002874724319251254
1761467799279271400,3.282271484375,-0.006497545325756073,-0.013497615079861134,-0.00989656751374714
1761467799289225200,3.29222509765625,-0.0120341366648674,-0.017293646361958234,-0.005054086785484105
1761467799299179300,3.30217919921875,0.006820201408863067,-0.012378785384073852,-0.0038608858123887328
1761467799309133300,3.31213330078125,-0.010685060143470763,-0.02503141927346587,-0.010488797785853966
1761467799319087600,3.322087646484375,-0.004699555993080139,-0.010747256925795227,-0.004588350703567266
1761467799329040400,3.332040283203125,-0.006646013885736465,-0.02841713445531204,-0.008673501125350595
1761467799338994400,3.341994384765625,-0.003354571124911308,-0.024417506892513482,0.0063413683833554385
1761467799348948500,3.351948486328125,-0.024003975921869276,-0.015304244376718998,0.0012329393284395336
1761467799358902500,3.361902587890625,-0.023407179072499274,-0.020730598540697247,-0.008352689939457923
1761467799368856300,3.371856201171875,-0.01053834514915943,-0.017649784589558837,0.006228793120663613
1761467799378810400,3.381810302734375,-0.01128653316795826,-0.01749337018514052,-0.003804141523316502
1761467799388763400,3.391763427734375,-0.01099018056988716,-0.027291619290411472,-0.011771704602707177
1761467799398717400,3.401717529296875,-0.00395838223695755,-0.025166937020327896,-0.0024593849840108305
1761467799408671500,3.41167138671875,-0.00770107589662075,-0.018797675983048975,0.002374309649597853
1761467799418625300,3.421625244140625,-0.006204699859023094,-0.008136179378256201,0.0014220321597531436
1761467799428579300,3.431579345703125,-0.018175123637914656,-0.003913721111323684,-0.0041790757829323405
1761467799438532400,3.441532470703125,-0.0063525838971138,-0.01361599902883172,-0.005167073040129617
1761467799448486400,3.451486328125,-0.002613397368788719,-0.012304879897646606,0.004392444538976997
1761467799458440200,3.461440185546875,-0.0032137013494968414,-0.012677384738158434,0.009809720347356051
1761467799468394500,3.47139453125,0.004415478354692459,-0.02171180986408144,-0.008224615713534876
1761467799478348500,3.4813486328125,-0.0021697452545166016,-0.027178970962483433,0.0014965130349155514
1761467799488302600,3.491302490234375,-0.007256839260458945,-0.019334723735507577,0.00392247067335993
1761467799498255600,3.501255615234375,-0.010699673190712928,-0.021215258518792687,-0.012204360398929566
1761467799508209400,3.51120947265625,-0.01713350563049316,-0.023866668076720086,-0.007051544213015586
1761467799518163500,3.52116357421875,-0.005012859725952148,-0.02374158039232716,-0.0037613983601331707
1761467799528117500,3.531117431640625,-0.0011234510719776152,-0.02332459708927199,0.004124368187319487
1761467799538071300,3.5410712890625,-0.01129822360575199,-0.023440405488666147,0.0003299078078009188
1761467799548024300,3.5510244140625,-0.007259761869907379,-0.008473046649806202,0.0058082935531158
1761467799557978400,3.560978271484375,0.00336450799703598,-0.007207173166144639,0.0014228724099695682
1761467799567932400,3.570932373046875,0.00291442614197731,-0.010564374639559537,-0.0023368089171126485
1761467799577886500,3.580886474609375,0.002762450450658798,-0.026291885929647832,-0.011173830041103065
1761467799587840300,3.59084033203125,-0.009207973328232765,-0.026609938902873543,-0.0013069909453392028
1761467799597794300,3.600794189453125,-0.017286650365591048,-0.01227494141710922,0.0022096206071786583
1761467799607747300,3.610747314453125,-0.003970657196640968,-0.008100359146203846,0.0017375187165569513
1761467799617701400,3.620701416015625,-0.016840660163760183,-0.0162301453162916,-0.007572855540225282
1761467799627655400,3.630655517578125,-0.007264438045024872,-0.006473086737934499,-0.006088891459628939
1761467799637609500,3.640609375,-0.009957914912700653,-0.01438303787857294,0.008873425877932458
1761467799647563500,3.6505634765625,-0.018935002094507217,-0.014758026937115937,0.006610695977183058
1761467799657516500,3.6605166015625,-0.01624386331439018,-0.017342581803910434,0.0023269816428422925
1761467799667470300,3.67047021484375,-0.008313654837012291,-0.020471691876184195,0.003114232163550332
1761467799677424400,3.68042431640625,-0.009810030874609946,-0.007320680010598152,-0.010046497378451749
1761467799687378400,3.69037841796875,-0.010708441019058226,-0.019638309791963546,-0.012072395449178293
1761467799697332500,3.70033251953125,-0.008163432711362838,-0.01425632449267432,0.0074695504293777045
1761467799707286300,3.710286376953125,-0.0098076927870512,-0.014078903832845388,-0.007318277990957722
1761467799717239300,3.7202392578125,0.0036591070294380184,-0.017353103197924793,0.0012094945207703858
1761467799727193300,3.730193359375,0.006051555123925209,-0.01696154659707099,-0.0032617417423054574
1761467799737147400,3.7401474609375,-0.006818447843194008,-0.0026206308271735906,-0.0037794272071681916
1761467799747101200,3.75010107421875,-0.017891630521416662,-0.008953030452784151,-0.009564796542422845
1761467799757055200,3.76005517578125,-0.003678396251797676,-0.029763690226059406,-0.0028135778496973214
1761467799767008300,3.77000830078125,-0.005776829835772514,-0.01514501696070656,0.0004533149917609989
1761467799776962600,3.779962646484375,-0.000391045144200325,-0.01995130299758166,0.002608693794207647
1761467799786916600,3.78991650390625,-0.012063947281241416,-0.011518149966746568,-0.000037254137312993406
1761467799796870400,3.799870361328125,-0.002638531810045242,-0.01910049485452473,-0.002993674523802474
1761467799806824400,3.809824462890625,-0.0072772975265979764,-0.0204724225285463,-0.0056642637062352145
1761467799816778500,3.819778564453125,0.002896305963397026,-0.025152141309995203,0.003777838038280606
1761467799826731500,3.8297314453125,0.0012497078001499175,-0.01670906967334449,-0.0030060956139583137
1761467799836685300,3.839685302734375,-0.008326514318585396,-0.018733086314238607,-0.001155773305846378
1761467799846639400,3.849639404296875,0.005290507623553276,-0.010989851776324212,-0.011605198062537238
1761467799856593400,3.859593505859375,-0.007878186029195785,-0.01273035703441128,-0.01144903025329113
1761467799866547500,3.86954736328125,-0.0011456629037857055,-0.01689509376473725,-0.009154105982836336
1761467799876500500,3.87950048828125,-0.0015934066712856292,-0.01092772805923596,-0.002770779887586832
1761467799886454300,3.889454345703125,-0.012965864557027817,-0.020150515364110468,-0.008246644882252439
1761467799896408300,3.899408203125,-0.01730652410984039,-0.024705639651510864,-0.009436311324546113
1761467799906362400,3.9093623046875,-0.004137830457091331,-0.012233385564014316,-0.020588340525794772
1761467799916316400,3.91931640625,-0.004886602997779846,-0.018493834198266265,-0.016242858667392283
1761467799926270500,3.9292705078125,-0.00608545739352703,-0.01410131659405306,-0.002425811507971957
1761467799936223500,3.939223388671875,-0.0021960487395524977,-0.018724355018511413,-0.010604295657994225
1761467799946177500,3.949177490234375,-0.00010112228691577911,-0.01420832063248381,-0.012562106061726808
1761467799956131600,3.959131591796875,-0.006538461858034134,-0.022345669054519384,-0.0007901822633109986
1761467799966085400,3.96908544921875,-0.002350362518429756,-0.018236589767877013,-0.0010531349152792244
1761467799976039400,3.979039306640625,-0.007890460988879203,-0.013448296045418829,0.007970951479719952
1761467799985992400,3.988992431640625,-0.018815175107121468,-0.007567713574226945,-0.003348908569104969
1761467800005277400,4.00827734375,0.004677344161272049,-0.030486250613257288,-0.009904586423421277
1761467800015231500,4.0182314453125,-0.0077425769507884976,-0.018933175463601945,-0.0028902872145641595
1761467800025186300,4.028186279296875,0.00213233585357666,-0.007935231712367385,-0.001674463417707011
1761467800035140400,4.038140380859375,-0.000412087932229042,-0.01777421468682587,-0.0069489697545301165
1761467800045094100,4.04809423828125,-0.0032569559693336487,-0.013503588162921368,-0.0007804371874313801
1761467800055047200,4.058047119140625,-0.014032032483816147,-0.009968509371951222,-0.007074815490748733
1761467800065001200,4.068001220703125,-0.0005646481454372405,-0.011785258204024285,-0.0068995502553880214
1761467800074955300,4.077955322265625,-0.003409516182541847,-0.015612871934473513,0.008559071832289919
1761467800084909300,4.087909423828125,-0.006854103678464889,-0.01806470379969105,-0.013348708128463477
1761467800094863000,4.097863037109375,-0.006406944432854652,-0.0080970164116472,0.0023766934029292312
1761467800104816000,4.107816162109375,-0.012094342419505119,-0.002508219961263239,-0.005837884973781183
1761467800114770200,4.117770263671875,-0.004165887507796288,-0.010662738713808358,-0.0023189262005500495
1761467800124724200,4.12772412109375,-0.007009001979231834,-0.014229418219439684,-0.0051888190810568625
1761467800134678000,4.137677978515625,-0.009253566035628318,-0.005567881526518613,0.000057913332851603626
1761467800144632300,4.14763232421875,0.0003214870393276214,-0.0032993520726449788,-0.006126821450376883
1761467800154586400,4.15758642578125,-0.0026718495577573776,-0.01195953705869615,-0.0023796890776138753
1761467800164539400,4.167539306640625,-0.012848375657200813,-0.016901852299086747,-0.006799715743260458
1761467800174493400,4.177493408203125,-0.0032709844946861265,-0.006716649702843278,-0.014295761453919111
1761467800184447200,4.187447265625,-0.0053664954692125314,-0.01651119074737653,-0.01330046680625528
1761467800194401300,4.1974013671875,-0.0038689503878355023,-0.012507617661822587,0.00836559508680366
1761467800204355300,4.207355224609375,-0.00701309363245964,-0.00950240796385333,-0.015955036435648797
1761467800214308400,4.217308349609375,-0.012101356682181357,-0.020651925547607242,-0.023612675049342214
1761467800224262100,4.22726220703125,-0.0007283142745494843,-0.01350811820756644,0.005423742081783711
1761467800234216200,4.23721630859375,0.003907528832554817,-0.015944204514380545,0.008024791425652801
1761467800244170200,4.247170166015625,0.001959317374229431,-0.008084905848745256,0.000043473815545439715
1761467800254124300,4.257124267578125,-0.0046247371912002564,-0.023181042166426778,-0.0014602452782914042
1761467800264078000,4.267078125,-0.008365677285194396,-0.020519878399465234,0.007688691339083015
1761467800274031000,4.277031005859375,0.0022580080598592757,-0.013477814400848,-0.0031734241380356252
1761467800283985200,4.286985107421875,-0.004327215549349785,-0.015074417676217854,-0.004076263862429186
1761467800293939500,4.296939453125,-0.005673953983187675,-0.011939097058866172,-0.00030726671773009
1761467800303893200,4.306893310546875,-0.0011877484798431396,-0.011102408772706985,-0.00007045315401628613
1761467800313847300,4.316847412109375,-0.016602759754657744,-0.014157339363917708,-0.00091413743654266
1761467800323801300,4.32680126953125,-0.007027706679701804,-0.013997399561852216,0.0035172691396437583
1761467800333754400,4.33675439453125,-0.014210311660170553,-0.006440536175202578,-0.00987806374267675
1761467800344330200,4.347330322265625,-0.013014379873871803,-0.00639167379848659,-0.008505268418975174
1761467800354284300,4.3572841796875,-0.004185176730155945,-0.002840009198896587,-0.0082134641318582
1761467800364238300,4.36723828125,-0.005083002352714539,-0.021596366790868342,-0.0014327179505489766
1761467800374192000,4.377192138671875,-0.015856909823417663,-0.014090101080294697,0.0015669935883954166
1761467800384146200,4.387146240234375,-0.015858078867197034,-0.01620482821194455,-0.001960870010498911
1761467800394100200,4.397100341796875,-0.004935118314623833,-0.018070092360861597,0.0035390060474164782
1761467800404053200,4.40705322265625,-0.0124175830245018,-0.008633570973761379,0.010767002805881202
1761467800414007300,4.41700732421875,-0.01526011297404766,-0.015055164986476301,0.0003816014624200761
1761467800423961000,4.426961181640625,0.0013496610432863236,-0.00706372784115374,-0.0004334595138207078
1761467800433915100,4.4369150390625,-0.0004471592456102371,-0.02115843203132972,-0.007945899236854166
1761467800443869400,4.446869384765625,-0.008828034099936485,-0.01918574371887371,-0.011942129266168921
1761467800453822200,4.456822265625,-0.025588614764809607,-0.0036892647056840358,-0.0017706629343330858
1761467800463776300,4.4667763671875,0.0016465981632471083,-0.016304233465809375,-0.0021039865419268606
1761467800473730300,4.476730224609375,0.006882745251059532,0.0008990311989560723,-0.002919522442203015
1761467800483684400,4.486684326171875,-0.010626023432612418,-0.008358827419299632,-0.00871525790784508
1761467800493638400,4.496638427734375,0.004335983377695083,-0.013148984305281192,-0.0006476319874636828
1761467800503592200,4.50659228515625,0.0020908347994089125,-0.0016799707098864019,0.0015143683520145712
1761467800513545200,4.516545166015625,-0.0029962592065334317,-0.014084438524488358,-0.001831252281460911
1761467800523499300,4.526499267578125,-0.0016506898164749145,-0.01400647791745141,0.007616119293216615
1761467800533453300,4.536453369140625,0.0007446808874607086,-0.0017572006645612418,-0.012637180591933429
1761467800543407000,4.546406982421875,-0.008232406294345854,-0.0030086985629983244,-0.022105065231677143
1761467800553361200,4.556361083984375,-0.008380874854326247,-0.014081388050876557,-0.002562744893785566
1761467800563315200,4.566315185546875,-0.0038929157853126524,-0.013884678168687969,-0.0062707325662486255
1761467800573268200,4.576268310546875,-0.010626023432612418,-0.007924947780370712,0.002839990932587534
1761467800583222300,4.58622216796875,-0.023494272834062576,-0.005400525602977722,-0.013325729111675172
1761467800593176000,4.596176025390625,-0.00897942526936531,-0.017973335721809414,-0.005873604741133749
1761467800603130400,4.60613037109375,0.0076303487479686734,-0.011055336494278162,0.00428911202866584
1761467800613084400,4.61608447265625,-0.009130231916904449,-0.020751422133017332,0.0032726832614280283
1761467800623038200,4.6260380859375,-0.006437339571118354,-0.011751629929058253,0.010177622077986597
1761467800632991200,4.6359912109375,-0.0035948096215724945,-0.020618078076932576,0.00008833587057888508
1761467800642945300,4.6459453125,-0.007786416092514991,-0.028066622250899672,-0.00013239420801401138
1761467800652899300,4.6558994140625,-0.010032733714580536,-0.007087364445067941,0.004135748097859323
1761467800662853000,4.66585302734375,-0.014822890600562095,-0.008552212833240628,-0.005389511018618941
1761467800672807200,4.67580712890625,-0.00973579659461975,-0.011937891482468694,-0.010048588870838284
1761467800682760200,4.68576025390625,-0.007491817060112952,-0.01603283264590427,0.0062201166238635775
1761467800692714200,4.69571435546875,-0.00794248343706131,-0.014211736432276665,-0.0005750599415972828
1761467800702668300,4.705668212890625,0.004776128360629081,-0.021659038497228174,-0.01388745464766398
1761467800712622000,4.7156220703125,-0.006297638839483261,-0.015787589180562646,-0.0022380977829918264
1761467800722576100,4.725576171875,-0.005400397738814354,-0.0151081555490382,-0.0018174612181261181
1761467800732530200,4.7355302734375,0.003277414235472679,-0.00682555343741551,-0.007212415596842765
1761467800742483200,4.745483154296875,-0.022012509843707083,-0.008579393101111055,-0.01074835290433839
1761467800752437200,4.755437255859375,-0.016924246793985367,-0.01604700730172917,-0.009311890360433608
1761467800762391300,4.765391357421875,-0.015427286234498024,-0.010400854640919714,-0.005128978652600199
1761467800772345300,4.775345458984375,-0.007945990568399428,-0.006369918624404817,-0.00733355775848031
1761467800782299400,4.78529931640625,-0.004656301373243332,-0.004465272313170135,-0.017774927072878925
1761467800792253200,4.795253173828125,-0.014980711510777473,-0.01059093385292217,-0.0033061106069944795
1761467800802206200,4.805206298828125,-0.010342530316114425,-0.012031067924946546,-0.001813753157388419
1761467800812160300,4.81516015625,-0.005705518165230751,-0.004786339227389544,0.0010587152726948261
1761467800822114300,4.8251142578125,0.012550854015350341,-0.011847893377766013,-0.0028397169379517436
1761467800832068000,4.835068115234375,-0.010194061756134033,-0.0073188899123109875,-0.009607749768160282
1761467800842022100,4.845022216796875,-0.008996376404166222,-0.011778846729546785,-0.0011457177027128637
1761467800851976200,4.85497607421875,-0.013335282391309737,-0.015080774351768194,0.00647937034824863
1761467800861929200,4.86492919921875,-0.011540800189971924,-0.00612136895712465,-0.002128536461293697
1761467800871883300,4.87488330078125,-0.004956745624542236,-0.0026844350446946917,-0.01634799954229966
1761467800881837000,4.884837158203125,0.001477086815237999,-0.02001908927047625,0.002848813559859991
1761467800891791400,4.894791259765625,0.00043020811080932614,-0.024950280328653752,-0.00872079259948805
1761467800901745400,4.904745361328125,-0.01438391466140747,-0.014447591014765202,-0.009058536653872578
1761467800911699200,4.91469921875,0.0014776713371276854,-0.002678041836526245,-0.015890830359328537
1761467800921652200,4.92465234375,-0.011988543957471847,-0.006661174922250211,0.0004414236245676875
1761467800931606300,4.934606201171875,-0.020068390038609503,-0.01770787145234644,-0.004547817763779312
1761467800941560300,4.944560302734375,-0.005554126995801926,-0.010976846164278685,0.002510028325859457
1761467800951514400,4.954514404296875,-0.00719955611526966,-0.007697020776011049,0.0077225022771395735
1761467800961468200,4.96446826171875,-0.00016775778234004974,-0.0001787358340807259,0.0019118249706923962
1761467800971421200,4.974421142578125,-0.013488427126407623,-0.007803458558861166,-0.0000023563538677990435
1761467800981375200,4.984375244140625,-0.007054594686627388,-0.01605612218994647,0.004385704270936548
1761467800991329300,4.994329345703125,-0.005857493856549263,0.0006130538644269108,0.004046389313973486
1761467801001283000,5.004282958984375,-0.004063596177101135,-0.013584179118461905,-0.007539565191976726
1761467801011237000,5.014237060546875,-0.009001637101173401,-0.002164813351072371,-0.011903861348703504
1761467801021191200,5.024191162109375,-0.004513093510270119,-0.0041077275797724725,-0.0026055793885141607
1761467801031143400,5.034143310546875,-0.005558803170919418,-0.005349416470248252,-0.006256850171368569
1761467801041097500,5.044097412109375,0.004914660048484802,-0.007369377990532666,-0.0035706980936229225
1761467801051051300,5.05405126953125,-0.00047054012119770045,-0.002492036011442542,0.0025229060737416145
1761467801061005600,5.064005615234375,-0.0027156886994838714,-0.014140369962807743,-0.00017882716562598943
1761467801070959600,5.073959716796875,0.0070101710230112075,0.00727475850963965,-0.0019428411634638905
1761467801080913700,5.08391357421875,0.0031178397595882416,-0.010365673729684203,-0.003663545742537826
1761467801090866700,5.09386669921875,-0.012744915282726288,-0.01135161602711305,-0.002605561122205108
1761467801100820500,5.103820556640625,-0.0109492640376091,-0.01567609163010493,-0.007375168410502374
1761467801110774500,5.1137744140625,-0.005112228447198867,-0.023953195582702754,-0.010278908761683851
1761467801120728600,5.123728515625,-0.0063075757116079325,-0.008434888330195098,-0.019907153328601268
1761467801130682400,5.133682373046875,-0.00765314510166645,-0.014851586972083896,-0.001888188366778195
1761467801140636400,5.143636474609375,-0.01693009201288223,-0.026526023479085413,-0.01134953366788104
1761467801150589400,5.15358935546875,-0.00899988353550434,-0.014685655820649117,-0.002189271938893944
1761467801160543500,5.16354345703125,-0.008403086686134337,-0.005798110085818917,-0.011450802085269243
1761467801170497500,5.17349755859375,-0.0007715688943862914,-0.007140519404411316,-0.016683697770070283
1761467801180451300,5.183451416015625,0.004015080860257148,-0.004581446038745343,-0.0005853256072849035
1761467801190405400,5.1934052734375,-0.0033183307677507397,-0.017305683859623968,0.01626214788975194
1761467801200359700,5.203359619140625,-0.014841595301032065,-0.020737758933845905,0.01498049231506884
1761467801210312400,5.2133125,-0.005115151056647301,-0.015990929732937365,-0.005624360954109579
1761467801220266500,5.2232666015625,-0.008557984986901282,-0.011669577668793498,0.0011964615092612803
1761467801230220500,5.233220458984375,-0.005865677163004875,-0.01606501788245514,0.009103088181652128
1761467801240174600,5.243174560546875,-0.0016775778234004973,-0.0143226859934628,-0.00019007921200245618
1761467801250128400,5.25312841796875,-0.0021264906346797944,-0.005299147587735206,-0.003054473933484405
1761467801260082400,5.26308251953125,-0.007514028891921043,-0.01082620391352102,-0.006461999088339507
1761467801270035500,5.273035400390625,-0.010507365489006042,-0.01708330981321633,-0.0030217772402800617
1761467801279989500,5.282989501953125,-0.02502338209748268,-0.012677823129575699,0.001909212888497859
1761467801289943600,5.292943603515625,-0.0037748423635959624,-0.004763488074764609,-0.0015075184861198067
1761467801299897300,5.3028974609375,-0.008413608080148696,-0.004132478428538889,-0.005120795346144586
1761467801309851400,5.312851318359375,-0.015296353331208228,-0.006535502715967595,-0.0018712920309044419
1761467801319805400,5.322805419921875,-0.014848609563708304,-0.0013455145911313593,-0.002199884664453566
1761467801329758500,5.332758544921875,0.005353635987639427,-0.024271138958074152,-0.00031741365240886804
1761467801339712300,5.342712158203125,-0.003774257841706276,-0.005071969502046704,0.0029439444974064823
1761467801349666600,5.35266650390625,-0.01080722521841526,-0.01791029868926853,-0.017148703199625016
1761467801359620600,5.36262060546875,-0.004373392778635025,-0.009125300013460218,-0.013602189699187873
1761467801369574700,5.37257470703125,-0.00003565583527088165,-0.009239975901693105,0.0050020826036110515
1761467801379528400,5.382528564453125,-0.006021744507551193,-0.01160444001071155,-0.0037975473857484758
1761467801389481500,5.3924814453125,-0.008715221375226973,-0.007243249126523733,-0.009367840065062045
1761467801399435500,5.402435546875,0.01058627594411373,-0.009296875454392284,0.004614782052766531
1761467801409389600,5.4123896484375,-0.0015355390042066574,-0.0134325870196335,-0.009136351130437105
1761467801419343400,5.42234326171875,0.00789104551076889,-0.011029836726840585,0.004214676819276064
1761467801429297400,5.43229736328125,-0.00827273830473423,-0.00942464828621596,0.008015840934216976
1761467801439251500,5.44225146484375,-0.0066284782290458675,-0.01358764971718192,-0.0004391403359360993
1761467801449204500,5.45220458984375,-0.009173486536741255,-0.0013059314994141459,-0.016686492515355346
1761467801459158500,5.462158447265625,-0.019798340925574302,-0.015935838544834404,-0.009352459832839667
1761467801469112300,5.4721123046875,-0.01755319234728813,-0.016811890727002173,0.005099259367771446
1761467801479066400,5.48206640625,-0.0028869536131620405,-0.016521766940318046,-0.0064986778369173406
1761467801489020700,5.492020751953125,-0.008423544952273368,-0.01418232767470181,-0.01333016782477498
1761467801498973400,5.501973388671875,-0.014558102184534072,-0.013607249466795474,-0.005132284854538738
1761467801508927500,5.511927490234375,-0.0019879589468240737,-0.01670441176453605,-0.0035455636523663995
1761467801518881500,5.521881591796875,-0.011565934631228446,-0.012630129796639085,-0.009962244027946144
1761467801528835600,5.531835693359375,-0.0063280339777469635,-0.007867829031962901,-0.013699603925365953
1761467801538789600,5.54178955078125,-0.0063292030215263365,-0.015167703716550022,0.003697374946903437
1761467801548743400,5.551743408203125,-0.0010913023680448532,-0.011877064673323183,-0.007398238758835941
1761467801558696400,5.561696533203125,-0.0046831893801689145,-0.01702613626588136,-0.006108911334350705
1761467801568650500,5.571650390625,-0.0034866730719804763,-0.017633874634373933,-0.0041037820570170875
1761467801578604500,5.5816044921875,-0.008725158247351646,-0.01667144107669592,0.0027699579036794602
1761467801588558300,5.591558349609375,0.003994038072228432,-0.007387078044004738,0.002023505184240639
1761467801598512400,5.601512451171875,-0.0022919103294610976,-0.012006061347853392,0.0032730485876090822
1761467801608466400,5.611466552734375,-0.005584522134065628,-0.016032723048049955,0.0002905256454832852
1761467801618419500,5.62141943359375,-0.01082066922187805,-0.013548815544135867,-0.001946713620983064
1761467801628373500,5.63137353515625,-0.016061492484807968,0.0005954816751182079,-0.0012110562901943922
1761467801638327600,5.64132763671875,-0.007084405303001404,-0.009246332577243447,-0.0014769406847655773
1761467801648281600,5.651281494140625,-0.010976152044534683,-0.018912132675573227,-0.0059479120863601565
1761467801658235600,5.661235595703125,-0.007835515931248664,-0.012427866956498473,-0.005455105334427207
1761467801668189400,5.671189453125,0.0014408464580774306,-0.007656560901459306,-0.00851995453145355
1761467801678142500,5.681142578125,-0.006339139893651008,-0.007435520295612514,0.006162760413438081
1761467801688096500,5.691096435546875,-0.011126958692073821,-0.010883286129310726,0.0025354002291336653
1761467801698050600,5.701050537109375,-0.007235796472430229,-0.005810841703228652,-0.007667356290109455
1761467801708004400,5.71100439453125,0.0021907880425453183,-0.008262618769519031,-0.004274992171768099
1761467801717958400,5.72095849609375,-0.012772387811541556,-0.012456508529093116,-0.006096691173594445
1761467801727912400,5.730912353515625,-0.0019990648627281186,-0.010371756410598754,-0.0075660330737940965
1761467801737865500,5.740865478515625,-0.014569208100438116,-0.015779752933979034,-0.0019559746396727857
1761467801747819500,5.750819580078125,0.003984101200103759,-0.00502232167404145,-0.010806257104035466
1761467801757773300,5.760773193359375,-0.006640168666839599,-0.023117073552124202,-0.002728931773547083
1761467801767727400,5.770727294921875,0.00024199206233024596,-0.020935473463032393,-0.00798102534916252
1761467801777681700,5.780681640625,-0.00649111558496952,-0.015697554543241857,-0.012230736949201673
1761467801787635500,5.790635498046875,-0.004697217905521392,-0.010359554516151547,0.00408509562285617
1761467801797588500,5.80058837890625,-0.013977087426185607,-0.007726977522857487,-0.000929590734001249
1761467801807542500,5.81054248046875,-0.00844224965274334,-0.017850531326048077,0.00570281475149095
1761467801817496600,5.82049658203125,-0.003953706061840057,-0.007622731697093695,-0.004932908091228455
1761467801827450600,5.83045068359375,-0.010539514192938804,-0.014358688888605683,0.0026406872345134612
1761467801837404400,5.840404296875,-0.01682604711651802,-0.009763049927726388,0.0005448839990422129
1761467801847358500,5.8503583984375,-0.004705985733866692,-0.009346377151925116,0.0001793751548975706
1761467801857311500,5.8603115234375,-0.007698153287172317,-0.013464553060475736,0.0017056714067235589
1761467801867265500,5.870265625,-0.008894669595360755,-0.016162961831595747,0.00739175421912223
1761467801877219300,5.88021923828125,-0.008147066098451615,-0.020170845766086132,-0.004884301442839205
1761467801887173400,5.89017333984375,-0.01996785227358341,-0.012077756610885261,-0.0025371355284936723
1761467801897127400,5.90012744140625,-0.018471476235985756,-0.01047083287090063,0.00571030393820256
1761467801907081500,5.91008154296875,-0.0005137947410345078,-0.014428100863005965,-0.007129340423271059
1761467801917034500,5.920034423828125,-0.0024584990680217743,-0.011048541427310555,0.0011220628324896096
1761467801926988500,5.929988525390625,-0.011139818173646926,-0.009082556850276887,0.004511960999108851
1761467801936942600,5.939942626953125,0.002776478976011276,-0.011520944712031632,-0.003050199617166072
1761467801946896600,5.949896728515625,0.004123217409849167,-0.024978574841376392,0.003965615695342421
1761467801956850400,5.959850341796875,0.005769231051206588,-0.01708926462996751,0.005800046314578503
1761467801966804500,5.969804443359375,-0.011738368588685988,-0.001326846423279494,-0.009812642956804483
1761467801976757500,5.979757568359375,-0.018472645279765127,-0.012498758501932024,-0.006995758905168623
1761467801986711600,5.989711669921875,-0.011290624821186064,-0.0077723510345444075,-0.0019330321555025875
1761467801996665600,5.99966552734375,-0.003212532305717468,-0.01266331968018785,0.0035217261190526187
1761467802006619400,6.009619384765625,-0.007102525481581688,-0.009782119954377413,-0.0007178842120803892
1761467802016573400,6.019573486328125,-0.013387304839491843,-0.01319824854079634,-0.012436050262954086
1761467802026527700,6.02952783203125,-0.020122750574350357,-0.01561250660829246,0.003267276433948427
1761467802036480800,6.039480712890625,-0.000820084211230278,-0.024338815633114425,-0.0021945326359011233
1761467802046434600,6.0494345703125,-0.01144376955628395,-0.022017660942859948,-0.004252067953906953
1761467802056388600,6.059388671875,-0.01473813492655754,-0.000022394494898617265,-0.0015693864748813212
1761467802066342700,6.0693427734375,0.0029191023170948025,-0.008355283755343407,-0.003096449911687523
1761467802076296400,6.07929638671875,-0.0032166239589452744,-0.004863843176700174,-0.00164363902118057
1761467802086250500,6.08925048828125,0.0006727846950292587,-0.003784925366193056,-0.00863687717569992
1761467802096203500,6.09920361328125,-0.009053659549355506,-0.01320878820111975,0.01515270707681775
1761467802106157600,6.109157470703125,-0.006809095492959022,-0.011657741100527346,0.004921016724035144
1761467802116111600,6.119111572265625,-0.010702595800161361,-0.011049454742763191,-0.0025387429636903104
1761467802126065400,6.1290654296875,-0.014744564667344093,-0.007666278577875345,-0.008221629172004759
1761467802136019700,6.139019775390625,-0.007711012768745422,-0.00846736582769081,-0.008790259372815488
1761467802145973800,6.148973876953125,-0.0014256488889455795,-0.016153792144451288,-0.005464421152044087
1761467802155926800,6.1589267578125,-0.006664718586206436,-0.01206431260742247,0.00477645715419203
1761467802165880600,6.168880615234375,-0.009507248535752296,-0.011939334520883858,-0.005735858504567295
1761467802175834600,6.178834716796875,-0.02342296116352081,-0.0014581629190593957,-0.005313888499140739
1761467802185788700,6.18878857421875,-0.0006797989577054977,0.0027842969562858343,-0.005271729857847094
1761467802195742700,6.19874267578125,-0.014895955836772917,-0.010742635549604891,0.011734350000694393
1761467802205696500,6.208696533203125,-0.009359949019551277,-0.016707261308748275,-0.008021010299678891
1761467802215649500,6.2186494140625,-0.011155600264668464,-0.00977676792582497,-0.003265687265060842
1761467802225603600,6.228603515625,-0.012952420553565025,-0.02197623295392841,0.012887867417372762
1761467802235557600,6.2385576171875,-0.0011316343784332275,-0.02057540797898546,0.0010463124488480388
1761467802245511400,6.248511474609375,-0.0039770869374275205,-0.00973126654997468,-0.0038264264203608034
1761467802255465500,6.258465576171875,-0.005620177969336509,-0.0017228965361602603,0.005812631801515818
1761467802265419800,6.268419677734375,-0.00127834937274456,-0.005732460971083491,-0.0006348638374358415
1761467802275372500,6.27837255859375,-0.00038169279396533964,0.00017451631668955088,-0.0032040202056989073
1761467802285326600,6.28832666015625,0.0009656301617622375,-0.010519804845470935,0.002384867576230317
1761467802295280600,6.29828076171875,-0.0036731355547904966,-0.013703859975375234,-0.007001384928356856
1761467802305234700,6.308234619140625,0.008145312532782554,0.0005473316844552755,0.005843775858450681
1761467802315188700,6.318188720703125,0.0018587796092033385,-0.0029162345065735277,0.00014992986470460892
1761467802325142500,6.328142578125,-0.008766659301519394,-0.013368490541167557,-0.0026567067875526845
1761467802335095600,6.338095458984375,-0.014304419684410095,-0.009062737904954701,-0.001631473659351468
1761467802345049600,6.348049560546875,-0.010713701716065406,-0.006791870363522321,0.00032322233868762847
1761467802355003600,6.358003662109375,0.0002104278802871704,-0.006638542965333908,-0.011985676146950572
1761467802364957700,6.367957763671875,-0.018193828338384628,-0.005002557527646422,-0.013127503125835209
1761467802374911500,6.377911376953125,0.00005962123274803161,0.005360467587225139,-0.0007539236398413777
1761467802384865500,6.387865478515625,-0.006225158125162124,-0.011573533415794372,-0.014045330356806517
1761467802394818600,6.397818603515625,-0.009514847320318221,-0.009915555342007427,-0.013587485320400446
1761467802404772600,6.407772705078125,-0.008017302238941192,-0.011610340028535573,-0.012847718070074916
1761467802414726400,6.417726318359375,-0.00921732567846775,-0.01392654454903677,-0.0019797391077503563
1761467802424680700,6.4276806640625,-0.003231821528077125,-0.01843545507453382,0.000004931903444230556
1761467802434634800,6.437634765625,-0.003981763112545013,-0.006366758552938699,-0.0039006972329691052
1761467802444588500,6.447588623046875,-0.01206336275935173,-0.01338438223004341,0.000057246612571179864
1761467802454541600,6.45754150390625,-0.007574234646558761,-0.005767934143263847,-0.01742938330452889
1761467802464495600,6.46749560546875,-0.007125906357169151,-0.015620507251657544,0.0062177602699957785
1761467802474449700,6.47744970703125,0.00020458266139030456,0.004741075313556939,0.006453012064285576
1761467802484403700,6.48740380859375,-0.012664835783839225,-0.008799794386141003,-0.0056956360920332365
1761467802494357500,6.497357421875,-0.00338671982884407,-0.007042027465999126,0.005075805426947772
1761467802504311600,6.5073115234375,0.012923778980970382,-0.01422149064131081,-0.0003114771019667387
1761467802514264600,6.5172646484375,0.0003542202651500702,-0.015571078619360922,-0.0000031418051570653915
1761467802524218600,6.527218505859375,-0.0021913725644350053,-0.009506554416008292,-0.005233754201326519
1761467802534172400,6.53717236328125,-0.009374562066793442,-0.008473503307532519,-0.005931472408212721
1761467802544126500,6.54712646484375,-0.003539280042052269,-0.009338139046542345,0.0030436420122161504
1761467802554080800,6.557080810546875,-0.0008475567400455475,-0.01268991542616859,0.007866915716510266
1761467802564034800,6.567034912109375,-0.014764438411593436,-0.010714797694608568,0.0003888349208049476
1761467802573987800,6.57698779296875,-0.015212766700983047,-0.011326097993366419,-0.008169058734551071
1761467802583941600,6.586941650390625,-0.016260229927301407,-0.010407741039432584,-0.004159512565936893
1761467802593895700,6.596895751953125,0.004538812473416328,-0.005633932500053197,-0.0030398426199331877
1761467802603849700,6.606849609375,-0.005787935751676559,0.002029277337901294,0.0013741744300350546
1761467802613803500,6.616803466796875,-0.005789689317345619,-0.005237754523009061,-0.008620382698625325
1761467802623757600,6.626757568359375,-0.002497662034630775,-0.015691380530782045,-0.009233619226142763
1761467802633710600,6.636710693359375,-0.009081716600060463,-0.010434355051722377,0.0033024756114929913
1761467802643664600,6.64666455078125,-0.011176643052697182,-0.0032385435298085213,0.0010497099823318422
1761467802653618700,6.65661865234375,-0.006837737065553665,-0.012462043220736086,-0.0006276121127419173
1761467802663572500,6.666572509765625,-0.00982990461885929,-0.007375789465010166,0.0021876827700063584
1761467802673526500,6.676526611328125,0.002588262927532196,0.00242417667331174,-0.006148037768341601
1761467802683480600,6.68648046875,-0.0011538462102413177,-0.010263291067443787,0.0012029095163568855
1761467802693434600,6.6964345703125,-0.008037760505080222,-0.014925254996493458,-0.0006521985647268593
1761467802703387400,6.706387451171875,-0.0010065466940402984,-0.00233850768385455,0.0037545850268565118
1761467802713341700,6.716341796875,-0.0111801501840353,-0.004953603819385171,0.004627385806012898
1761467802723295700,6.726295654296875,-0.011927753680944442,-0.0009666713413782418,0.0023861644841730594
1761467802733249800,6.736249755859375,-0.009983633875846862,-0.0003229300777427852,0.0013632694435305893
1761467802743203600,6.74620361328125,-0.014771452674269676,-0.0038591961788013575,0.004889708270318806
1761467802753157600,6.75615771484375,-0.01970774003267288,-0.006475753619056194,-0.012063618487678467
1761467802763110700,6.766110595703125,-0.007287818920612334,0.0008284319144673645,-0.007708309355005621
1761467802773064700,6.776064697265625,0.0010913023680448532,-0.0077978873346000906,-0.012059837361704557
1761467802783018500,6.7860185546875,-0.00758650960624218,-0.012589816052559762,-0.004784932721592486
1761467802792972500,6.79597265625,-0.0005541267514228821,-0.004162179447058588,0.0013361257082782686
1761467802802926600,6.805926513671875,-0.0017506430596113203,-0.01632207964975387,0.00012693258160725236
1761467802812880600,6.815880615234375,-0.00324643457531929,-0.012288001828081905,-0.00844002116303891
1761467802822833700,6.825833740234375,-0.01626315253674984,-0.004337755209673196,0.0007265972414985299
1761467802832787500,6.835787353515625,-0.007584756040573119,-0.017082122503127902,0.005721355055179447
1761467802842741800,6.84574169921875,-0.00608896452486515,-0.014655388546548784,0.003801072783395648
1761467802852695800,6.85569580078125,-0.013719313272833824,-0.006166212745849043,0.017231613976415247
1761467802862649600,6.865649658203125,-0.01416647251844406,-0.003357639864832163,0.0035413258686661717
1761467802872603600,6.875603759765625,-0.00937806919813156,-0.011511354899778961,-0.00598000599136576
1761467802882556700,6.885556640625,-0.0014484452426433562,-0.010643668687157333,-0.01426719294656068
1761467802892510700,6.8955107421875,-0.009679682493209838,-0.021647348059434444,0.005044588304776698
1761467802902464500,6.905464599609375,-0.007286065354943275,-0.01786055952971801,0.007719579667691141
1761467802912418600,6.91541845703125,-0.01267243456840515,-0.003048519116733223,-0.003252955647651106
1761467802922372600,6.92537255859375,-0.012371990317106247,-0.007695395074505358,0.009568477203696966
1761467802932326700,6.93532666015625,-0.0095288758456707,-0.005496076665632427,0.00483390469616279
1761467802942279700,6.94527978515625,-0.006387655210494995,-0.000967456792667508,0.009187314132694155
1761467802952233500,6.9552333984375,-0.010877367845177649,-0.014727631798852234,-0.0009521678919903933
1761467802962187500,6.9651875,-0.009981880310177802,-0.004260068597272038,-0.005161474416404962
1761467802972141600,6.9751416015625,0.002434533670544624,-0.00916817104080692,-0.00271514071021229
1761467802982095600,6.985095703125,-0.007143442013859748,-0.021301932155247776,-0.005183065193705261
1761467802992049700,6.995049560546875,-0.007592939347028732,-0.01890005864528939,0.0003719751175493002
1761467803002002700,7.005002685546875,-0.009088730862736701,-0.01296427538814023,0.008173753175977617
1761467803011956700,7.014956787109375,-0.0035521395236253737,-0.003509049300570041,-0.002158347077667713
1761467803021910800,7.024910888671875,0.001983867293596268,-0.0010758673368953169,-0.0036624680303037165
1761467803031864600,7.034864501953125,-0.009536474630236625,-0.0042026027889922254,-0.006202781896572559
1761467803041818600,7.044818603515625,0.0027349779218435286,-0.01357427877895534,0.007886369335651398
1761467803051772700,7.054772705078125,-0.006094809743762016,-0.011691844299528747,-0.002911558331456035
1761467803061725700,7.0647255859375,-0.00788929194509983,-0.013030180231202393,-0.013597897116560488
1761467803071679500,7.074679443359375,-0.010282324561476706,-0.007958612587954848,-0.0036228118733502923
1761467803081633500,7.084633544921875,0.0007896890729665756,0.005120722280908376,-0.0019751907967962322
1761467803091587600,7.094587646484375,-0.0041489363729953765,0.002851462174672633,-0.006863985751662403
1761467803101541600,7.104541748046875,-0.02464870356619358,-0.008689429346844553,-0.005848945223912596
1761467803111495400,7.114495361328125,-0.012828501912951469,0.001833042379748076,-0.0023690854852087793
1761467803121449500,7.124449462890625,-0.008489011403918266,-0.003063534022774547,-0.003165679222997278
1761467803131402500,7.134402587890625,0.0027349779218435286,-0.0059145760723389685,-0.013254326109588146
1761467803141356500,7.1443564453125,0.007671265280246734,-0.0103440464197658,0.00042284678826108574
1761467803151310300,7.154310302734375,-0.01402618726491928,0.000832560100313276,0.0022430662190541626
1761467803161264400,7.164264404296875,0.011263152292370796,-0.004583619729522616,-0.010929883483704179
1761467803171218700,7.17421875,0.005728314518928528,-0.011074150792602449,0.0012870441358536482
1761467803181172700,7.1841728515625,-0.007588263171911239,-0.012452818734664469,-0.000091258480027318
1761467803191125500,7.19412548828125,-0.013123685467243193,-0.011070698460191488,0.0036893377709202465
1761467803201079600,7.20407958984375,-0.01581833137869835,-0.008454287150409072,0.008173625311814248
1761467803211033600,7.21403369140625,0.005280570751428603,-0.008629808114096521,-0.0007500694486312567
1761467803220987600,7.223987548828125,-0.003847907599806785,-0.008901154135074465,-0.00942336964458227
1761467803230941400,7.23394140625,-0.007141103926301002,-0.012607095980923622,0.01526962972106412
1761467803240895500,7.2438955078125,-0.002053425398468971,-0.017823643319122492,-0.006141334032919258
1761467803250848500,7.2538486328125,0.003331190249323845,-0.016707681433856487,0.0037992644187994297
1761467803260802600,7.263802490234375,-0.00460018727183342,-0.013665190199110656,0.0003647781917825341
1761467803270756600,7.273756591796875,-0.011633739170432091,-0.0025570092727430164,0.0020184088840149344
1761467803280710400,7.28371044921875,-0.010738251635432242,-0.007130801727995276,-0.0032999913934618234
1761467803290664400,7.29366455078125,-0.011337386572360992,-0.013704535828810184,-0.00748734181439504
1761467803300618500,7.303618408203125,0.0028770167410373687,-0.0038830337121151387,-0.0015190262608230113
1761467803310572500,7.313572509765625,-0.007447393396496772,-0.0025086218200623986,-0.01176288197543472
1761467803320525300,7.323525390625,-0.016727262917160986,-0.00617180223641917,-0.00779741241056472
1761467803330479600,7.333479736328125,0.001378302615880966,-0.01044854797385633,0.008761964860092848
1761467803340433700,7.34343359375,0.004970189628005027,-0.00027048750445246697,-0.0069595368143171065
1761467803350387500,7.353387451171875,-0.004007482075691223,0.00048528103260323403,-0.003724829209409654
1761467803360341500,7.363341552734375,0.000032733225822448726,-0.010854717621952295,-0.000030431670881807804
1761467803370295600,7.373295654296875,-0.00041501054167747495,-0.007569722868222743,0.005154259224329143
1761467803380248600,7.38324853515625,-0.002511106038093567,0.00006206891816109418,-0.0010676109652034938
1761467803390202600,7.39320263671875,-0.01238835693001747,-0.004686988772451877,0.009158782157953828
1761467803400156400,7.403156494140625,-0.0083481416285038,-0.012140884974971414,-0.011068725698813795
1761467803410110500,7.4131103515625,-0.011339140138030052,-0.009167732649389655,-0.008647435102332382
1761467803420064500,7.423064453125,-0.014182254609465598,-0.00941916839350015,0.0017860066339373587
1761467803430018300,7.433018310546875,-0.014181670087575912,0.0040135830229148265,-0.0017840521388687192
1761467803439971300,7.442971435546875,0.004373392778635025,0.001006820688676089,-0.0020841493302956224
1761467803449925400,7.45292529296875,-0.003707622346282005,-0.007774890051502734,-0.0002963343317620456
1761467803459879700,7.462879638671875,-0.0029600188493728637,-0.017122929437551646,0.013283059013728052
1761467803469833700,7.472833740234375,-0.011490531307458876,-0.009907006709370761,-0.005543276808224618
1761467803479787500,7.48278759765625,-0.013586042281985282,-0.008045048762392253,-0.006949033686611801
1761467803489741600,7.492741455078125,0.0025754034459590913,-0.0038471769474446773,-0.0011258439584635198
1761467803499694600,7.502694580078125,-0.009993570747971534,0.002109868293441832,0.001535685134679079
1761467803509648600,7.512648681640625,-0.005203413861989975,-0.001993292709067464,-0.010336575499363242
1761467803519602400,7.5226025390625,-0.016275427496433258,-0.014255520775076,-0.0029176410123705862
1761467803529556500,7.532556396484375,-0.009841010534763335,-0.006807725519780069,-0.0039457419510930776
1761467803539510500,7.542510498046875,-0.005800795233249664,-0.02043252890957519,0.0008673574190586805
1761467803549464600,7.552464599609375,-0.0008633388310670852,0.003555537057109177,-0.0013926782011054455
1761467803559417600,7.56241748046875,0.0009323124140501022,-0.012453348457626998,-0.004086794389598071
1761467803569371400,7.572371337890625,0.004523614904284477,-0.0011871456916444003,-0.01624468529829755
1761467803579325400,7.582325439453125,0.0027267946153879162,-0.008802662196662276,-0.004218403146322817
1761467803589279500,7.592279541015625,-0.005500935503840446,-0.021488431170675903,-0.01292368764942512
1761467803599233500,7.602233642578125,0.003925064489245415,-0.013165551847591996,-0.004128770367801189
1761467803609187600,7.6121875,0.0028770167410373687,-0.008242763291578739,-0.004088383558485657
1761467803619140600,7.622140625,-0.006401099213957786,-0.009140059191174804,-0.003584087298158556
1761467803629094700,7.6320947265625,0.007514028891921043,-0.0019038973925635217,0.0007542889660224318
1761467803639048700,7.642048583984375,0.0018266309052705765,0.00271669334648177,-0.00437430609408766
1761467803649002500,7.65200244140625,-0.01613105058968067,-0.015155721017811447,0.0024986849479377267
1761467803658956500,7.66195654296875,-0.011194178709387778,-0.008345566078927367,-0.000958707230631262
1761467803668910600,7.67191064453125,-0.00775251382291317,0.01363212817972526,-0.007060841764323413
1761467803678864400,7.681864501953125,-0.0073036010116338725,-0.007609360758867114,-0.008587338945548981
1761467803688817400,7.6918173828125,-0.012388941451907156,-0.0050205133094452315,-0.005625694394670426
1761467803698771500,7.701771484375,-0.0016144494593143461,-0.006910236046183854,-0.00631902868738398
1761467803708725500,7.7117255859375,0.008413608080148696,-0.002117083485517651,-0.0021049363899976014
1761467803718679600,7.721679443359375,-0.007447393396496772,0.003660568334162235,-0.011209540675301104
1761467803728633600,7.731633544921875,-0.002959434327483177,-0.009540730680245905,-0.0066296838054433465
1761467803738587600,7.741587646484375,-0.0017617489755153656,0.0012511325722560287,-0.005612286923825741
1761467803748540700,7.751540771484375,0.013053542840480804,0.0064429473279975355,-0.0037218883336521684
1761467803758494700,7.76149462890625,0.003177460992336273,-0.006135927205439657,-0.006985200978536159
1761467803768448500,7.771448486328125,-0.004304419195652008,-0.013530147376284003,-0.0027315255894325673
1761467803778402600,7.781402587890625,-0.0034060090512037277,-0.012028401043824851,0.010213442310038954
1761467803788356600,7.791356689453125,-0.007294833183288574,0.001545676805730909,-0.004060691833961755
1761467803798310400,7.801310302734375,-0.008342296409606932,-0.009968107513152063,-0.012736695443652569
1761467803808264400,7.811264404296875,0.0001876315265893936,-0.0016329166977666317,-0.009134414901677518
1761467803818217500,7.821217529296875,-0.004899462479352951,-0.019578341499343514,-0.0033395379525609312
1761467803828171500,7.831171630859375,0.0018342296898365019,-0.009670129213575273,-0.005924659074936061
1761467803838125600,7.84112548828125,0.0025812486648559567,-0.014498974142130463,-0.002398220248147845
1761467803848079400,7.851079345703125,-0.006097147831320762,-0.001145133180823177,-0.002323437978886068
1761467803858033400,7.861033447265625,-0.009090484428405762,-0.002187390509061515,-0.0016935608438216148
1761467803867987700,7.87098779296875,-0.006246200913190841,-0.004609521355759352,0.008746493296325207
1761467803877940500,7.8809404296875,-0.010288754302263258,0.0019050481700338422,-0.0004696450720541179
1761467803887894500,7.89089453125,-0.010588029509782791,-0.0030037301269359887,-0.001238254824373871
1761467803897848600,7.9008486328125,-0.0028068741142749784,-0.0018109584121033548,0.0025080190318636595
1761467803907802600,7.910802734375,-0.009841595056653022,-0.004338065736927092,-0.005492259007040411
1761467803917756700,7.920756591796875,-0.004905892220139503,-0.01193549859598279,-0.005073211611062288
1761467803927710500,7.93071044921875,0.0007785831570625305,-0.005935198735259473,-0.011413812809437512
1761467803937663500,7.94066357421875,-0.011042787539958953,-0.01520988062415272,-0.004988857795856893
1761467803947617500,7.950617431640625,-0.009696049106121063,-0.011477014238759875,-0.004090338053554296
1761467803957571600,7.960571533203125,0.006018237376213074,-0.007823186172638087,-0.0005557159203104674
1761467803967525400,7.970525390625,-0.01104161849617958,-0.00910451295375824,0.0024631387105211616
1761467803977479400,7.9804794921875,-0.000716039314866066,-0.003298073431011289,0.0005216675202362239
1761467803987433500,7.99043359375,-0.0013157587736845017,-0.010138166850432753,-0.003367540204338729
1761467803998008600,8.001008544921875,0.0031722002953290937,-0.003017356793489307,0.001843107116036117
1761467804007962400,8.01096240234375,-0.008648585879802703,-0.00319762699753046,-0.005491053430642932
1761467804017916400,8.02091650390625,-0.005206336471438407,-0.008561053726822138,-0.004331215871032327
1761467804027870500,8.030870361328125,-0.01283843878507614,-0.008852693617157638,0.004054992745537311
1761467804037824500,8.040824462890624,-0.017179682859778403,0.004055084077082574,-0.003363813877291977
1761467804047778300,8.0507783203125,-0.013438742765784262,-0.012856577229965478,-0.000047620267700403926
1761467804057732600,8.060732666015625,0.004068856874108314,-0.005827555376011878,-0.01186495411042124
1761467804067685400,8.070685302734375,-0.0007213000118732452,-0.013092851937562227,-0.007031506071984768
1761467804077639700,8.0806396484375,-0.013591887500882149,-0.009120258512161672,0.005115808643773197
1761467804087593500,8.090593505859376,-0.005811316627264022,-0.0065570752269588405,-0.0055100869246758515
1761467804097547500,8.100547607421875,-0.01224631811082363,-0.0069493624801747495,-0.002403079086355865
1761467804107501600,8.11050146484375,-0.0035649990051984785,-0.00771106756767258,0.002880286410357803
1761467804117455400,8.120455322265625,0.00840425572991371,0.003220606014318764,0.00025720789777114987
1761467804127408400,8.130408447265625,-0.012546762362122535,-0.0034485330186784266,-0.014788878733105956
1761467804137362400,8.140362548828126,-0.010003507620096205,0.0018151779294945298,-0.008339556463249027
1761467804147316500,8.15031640625,-0.0050660512179136275,-0.01177868233276531,-0.0026583690216764808
1761467804157270500,8.1602705078125,-0.013445172506570815,-0.007653784422483295,0.005172434201836586
1761467804167224300,8.170224365234375,-0.00940554172694683,-0.012097045833244918,-0.005615775788854807
1761467804177178400,8.180178466796875,-0.005215688821673393,-0.005451013681199401,-0.014070446531753987
1761467804187132700,8.190132568359376,-0.004768529576063156,-0.0007233641047962009,0.003751845080498606
1761467804197085400,8.20008544921875,-0.0026759412109851836,0.0011076507146470249,-0.0048357678596861655
1761467804207039500,8.21003955078125,-0.011204700103402137,-0.010312902362830936,0.003886303381435573
1761467804216993500,8.21999365234375,-0.009558101940155028,-0.002929386249091476,0.006775339353829622
1761467804226947600,8.229947509765625,-0.0031248540222644804,-0.012514851120207457,-0.001809387509524822
1761467804236901600,8.239901611328126,-0.0010322656571865082,-0.020846918396744876,0.00022476693289354442
1761467804246855400,8.24985546875,-0.015398060140013693,-0.018830902399215844,-0.012230956144910305
1761467804256808400,8.259808349609376,0.0016594576448202133,-0.012159516610205173,0.002419628362357616
1761467804266762500,8.269762451171875,0.000011690437793731688,-0.0020518362295813856,0.008862082500010728
1761467804276716500,8.279716552734374,-0.0044780221968889235,-0.013703074524085968,-0.0074455850319005545
1761467804286670300,8.28967041015625,-0.015401567271351814,-0.0006986863212659955,-0.0036583215781487524
1761467804296624400,8.299624267578125,-0.004928104051947594,-0.007186148644424974,0.008103555750288068
1761467804306578400,8.309578369140626,-0.00867138223350048,-0.010000256217084825,0.004035265131760389
1761467804316532500,8.319532470703125,-0.00867313579916954,-0.004519285789038986,-0.006146759126707911
1761467804326485500,8.329485595703124,-0.005980243453383445,-0.01075876470049843,0.002217383788526058
1761467804336439300,8.339439208984375,-0.013162848433852195,-0.0016345241329632698,-0.0021204992853105066
1761467804347015400,8.350015380859375,-0.002241056925058365,-0.005364522707834839,-0.0035198629555292424
1761467804356969500,8.359969482421874,-0.0124175830245018,0.006309329277276993,-0.002111895853746682
1761467804366923500,8.369923583984376,-0.015707856741547583,-0.0035896585224196313,0.003959277286101132
1761467804376877600,8.379877685546875,0.0007546177595853806,-0.005148103478178382,0.004926094757951796
1761467804386831600,8.38983154296875,0.005393967998027801,-0.010143226618040353,-0.008658924610726535
1761467804396785400,8.399785400390625,-0.003584872749447822,0.009446896650642156,-0.0053163544508628546
1761467804406738400,8.409738525390624,-0.0043324762463569635,-0.011340126518718898,0.008087006474286318
1761467804416692500,8.4196923828125,-0.005081248787045478,-0.020361728695686906,-0.0021718093474395574
1761467804426646500,8.429646484375,-0.0043324762463569635,0.0031247261581011116,-0.002183737247250974
1761467804436600300,8.439600341796876,-0.011663549786806105,-0.007039141389168798,0.004765533901378512
1761467804446554400,8.449554443359375,0.0015033903002738952,-0.004262936407793313,0.01223828093484044
1761467804456508400,8.45950830078125,-0.007774141132831573,-0.009960490462277084,-0.004816606501489878
1761467804466462500,8.46946240234375,-0.006128127491474151,-0.007319894559308886,-0.00012017404725775122
1761467804476415500,8.47941552734375,-0.0058270987182855605,-0.0020197423245757818,-0.003563848227728158
1761467804486369300,8.489369384765626,-0.0035819501399993892,-0.012589724721014498,-0.004871076635085046
1761467804496323600,8.499323486328125,-0.002684124517440796,-0.015299933527782559,0.005945336536783725
1761467804506277600,8.509277587890624,-0.0017868834167718887,-0.010244239307101815,0.000603975508827716
1761467804516231400,8.5192314453125,-0.012560790887475012,0.003204385531879961,-0.00018392346585169433
1761467804526185500,8.529185546875,-0.03350888637006283,0.0003593896306119859,-0.01200651800557971
1761467804536139500,8.539139404296876,0.10714695403277873,-0.03735642864368856,0.03273249517008662
1761467804546092500,8.549092529296875,-0.15606559098064898,0.007368884800188243,-0.03772614787206985
1761467804556046600,8.559046630859376,0.1209124445348978,-0.02950604393687099,0.02381071837209165
1761467804566000400,8.56900048828125,-0.0851367822766304,0.012718283004127442,-0.005689708674745634
1761467804575954400,8.578954345703124,0.04878711952269077,-0.019545681338757274,0.003192521564150229
1761467804585908500,8.588908447265625,-0.03216623958945274,0.00536857782844454,-0.00007437127730809151
1761467804595862300,8.5988623046875,0.04070610439777374,-0.020116521762963382,0.0033626083008944986
1761467804605815300,8.608815185546876,0.009732873985171317,-0.00999698654776439,0.007127203265111893
1761467804615769300,8.618769287109375,0.007638532054424285,-0.01238274917313829,-0.00032908582389354704
1761467804625723600,8.6287236328125,-0.04578033892214298,0.002631535813678056,-0.006761292562168091
