time,seconds_elapsed,z,y,x
1761467796064194800,0.06719482421875,-0.00021131703397259116,0.0012137468438595533,0.0009866292821243405
1761467796074148900,0.07714892578125,0.0007936992915347219,-0.0013902571517974138,-0.00025704060681164265
1761467796084103000,0.08710302734375,-0.0008742384961806238,-0.0009383187280036509,0.0003839822020381689
1761467796094057000,0.097056884765625,-0.000732956628780812,0.0002891991171054542,0.00018537580035626888
1761467796104010000,0.107010009765625,0.0005632038228213787,0.0000678904470987618,0.0006775280926376581
1761467796113963800,0.1169638671875,-0.0000486804055981338,-0.0009723414550535381,0.00040402566082775593
1761467796123917800,0.126917724609375,0.0008301627240143716,-0.000897506601177156,-0.0016311618965119123
1761467796133871900,0.136871826171875,0.0001921383081935346,0.0006486916681751609,-0.0009832498617470264
1761467796143826000,0.146825927734375,-0.0005466226139105856,0.0008529562037438154,-0.001785660395398736
1761467796153778700,0.15677880859375,-0.0010220527183264494,0.0015559340827167034,-0.0005519259721040726
1761467796163733000,0.16673291015625,0.000460262643173337,0.0007002605125308037,0.0011074895737692714
1761467796173687000,0.17668701171875,0.0012024843599647284,-0.0001454272132832557,-0.0017145269084721804
1761467796183640800,0.186640869140625,-0.00007583299884572625,0.00022022478515282273,-0.0013810994569212198
1761467796193595000,0.196594970703125,-0.00025247730081900954,0.00144118070602417,0.00017862627282738686
1761467796203548000,0.2065478515625,-0.000006667512934654951,-0.00006137479795143008,-0.0008008843287825584
1761467796213502000,0.216501953125,-0.00039961698348633945,0.00013363466132432222,0.0002567269839346409
1761467796223456000,0.2264560546875,0.0006488695507869124,-0.0006115178111940622,0.00019973539747297764
1761467796233409800,0.236409912109375,-0.00044049177085980773,0.0001563390833325684,-0.000017517711967229843
1761467796243362800,0.24636279296875,0.00004154036287218332,-0.000969379092566669,-0.0015605532098561525
1761467796253316900,0.25631689453125,-0.00002144434256479144,0.001031386200338602,0.0007179866079241037
1761467796263271000,0.26627099609375,-0.00022544246166944504,-0.0006490683881565928,0.000501205213367939
1761467796273224700,0.276224609375,0.000021579209715127945,-0.0008272998966276646,-0.00003149709664285183
1761467796283178800,0.2861787109375,0.0017230728408321738,0.00003503164043650031,-0.00017504161223769188
1761467796293131800,0.2961318359375,-0.0004647697205655277,-0.00006759885582141578,0.0008461760589852929
1761467796303085800,0.3060859375,0.0006276589119806886,0.0006165672093629837,-0.0006625046953558922
1761467796313040100,0.3160400390625,0.0013654872309416533,-0.0005303903599269688,0.0016574448673054576
1761467796322994000,0.325993896484375,0.0010544300312176347,-0.0006933758268132806,-0.0012291555758565664
1761467796332947000,0.335947021484375,-0.0016488172113895416,-0.0011122252326458693,0.00010808766819536686
1761467796342901000,0.34590087890625,0.0013810612726956606,-0.0008043637499213219,0.00013977917842566967
1761467796352855000,0.35585498046875,0.0011617536656558514,0.0004668335313908756,-0.0001009178813546896
1761467796362808800,0.365808837890625,0.000029377522878348827,0.001280429307371378,-0.0005664383061230183
1761467796372763000,0.375762939453125,0.0007040658383630216,0.00032295234268531203,-0.00036089494824409485
1761467796382716000,0.3857158203125,-0.00013749313075095415,0.00019805011106655002,0.0003488373477011919
1761467796392670000,0.395669921875,0.00041836558375507593,-0.0006474029505625367,-0.0018060968723148108
1761467796402624000,0.4056240234375,-0.00024129939265549183,-0.0007379504386335611,-0.0010718631092458963
1761467796412577800,0.415577880859375,-0.00053299346473068,0.0008942012791521847,-0.0002383943647146225
1761467796422531800,0.42553173828125,-0.00162781891413033,-0.00037319702096283436,0.0007341920863837004
1761467796432484900,0.43548486328125,-0.00008998176781460643,0.0018155892612412572,-0.00007175025530159473
1761467796442439000,0.44543896484375,0.0005971138598397374,-0.00030109117506071925,0.0009977753506973386
1761467796452392700,0.455392822265625,-0.00013439852045848966,0.00043164408998563886,-0.0003528797533363104
1761467796462346800,0.4653466796875,0.00020195875549688935,0.00014721846673637629,0.0006079887971282005
1761467796472301000,0.475301025390625,0.0016234801150858402,-0.0003379753325134516,0.0007651459891349077
1761467796482253800,0.48525390625,0.00033344485564157367,0.0002987865009345114,-0.00036856159567832947
1761467796492208000,0.4952080078125,-0.0014177426928654313,0.0004093712195754051,-0.0003157472237944603
1761467796502162000,0.505161865234375,-0.000012392585631459951,-0.001378675107844174,-0.0011000481899827719
1761467796512116000,0.515115966796875,-0.00006891688099130988,0.000013927987311035395,-0.000274185324087739
1761467796522069000,0.525069091796875,0.00045918795512989163,0.000025113229639828205,-0.00041986024007201195
1761467796532023000,0.53502294921875,0.0002905924338847399,0.0008182025630958378,-0.0019258777610957623
1761467796541976800,0.544976806640625,0.0009473279351368546,-0.0008819594513624907,0.0004315522965043783
1761467796551931000,0.554930908203125,0.000032784068025648594,0.0002139960415661335,0.0007328300271183252
1761467796561885000,0.564885009765625,0.0008383902604691684,-0.00009066954953595996,-0.0018352563492953777
1761467796571838000,0.574837890625,-0.0006311499746516347,-0.0010249909246340394,-0.001345355063676834
1761467796581792000,0.5847919921875,-0.0005275530274957418,0.0002562558511272073,-0.0011030074674636126
1761467796591745800,0.594745849609375,-0.00007339147850871086,0.00016183184925466776,0.0010743659222498536
1761467796601699800,0.604699951171875,-0.000466474040877074,-0.0005593521636910737,-0.000946973217651248
1761467796611654000,0.61465380859375,0.00014822458615526557,-0.0006086883950047195,-0.00037438562139868736
1761467796621607000,0.62460693359375,-0.0001268799533136189,-0.00029922908288426697,0.00014546350575983524
1761467796631560700,0.634560791015625,0.00021480675786733627,-0.001130947144702077,-0.0011401637457311153
1761467796641515000,0.644514892578125,-0.0017450135201215744,-0.0012896715197712183,0.00038502877578139305
1761467796651469000,0.654468994140625,-0.0009723737020976841,0.000003633613232523203,0.000848915078677237
1761467796661422000,0.664422119140625,-0.0022919699549674988,-0.0007694819942116737,0.0008161582518368959
1761467796671376000,0.6743759765625,-0.0004723738820757717,0.001098141074180603,-0.0008781640790402889
1761467796681330000,0.684329833984375,0.0011007552966475487,0.0009266334818676114,-0.00041157822124660015
1761467796691284000,0.694283935546875,-0.00026581360725685954,0.0007549314759671688,-0.00015996070578694344
1761467796701238000,0.704238037109375,0.0007062401855364442,0.00035971833858639,0.0006216771434992552
1761467796711191000,0.71419091796875,-0.00019685225561261177,0.00011008471483364701,-0.0011715241707861423
1761467796721144800,0.724144775390625,0.0006103519117459655,0.0001766637433320284,0.0003557985182851553
1761467796731099000,0.734098876953125,-0.0002543538575991988,0.0008436577627435327,0.0010795111302286386
1761467796741053000,0.744052978515625,-0.0016493175644427538,0.0006372628267854452,0.0005000072997063398
1761467796751006700,0.7540068359375,0.0005968277691863477,-0.0013167003635317087,0.0004419905599206686
1761467796760959700,0.763959716796875,0.0003800464910455048,0.000688127358444035,-0.0012254146859049797
1761467796770913800,0.773913818359375,-0.00020160037092864513,-0.0008624948095530272,0.00009944289922714233
1761467796780867800,0.783867919921875,-0.0002897509839385748,-0.0010981846135109663,-0.000004953006282448769
1761467796790822000,0.79382177734375,-0.000027638685423880816,0.00001777953002601862,0.0002008581068366766
1761467796800776000,0.80377587890625,0.001180371269583702,0.001310211606323719,0.0013580016093328595
1761467796810728700,0.813728759765625,0.00041689909994602203,0.00047455355525016785,0.00175181042868644
1761467796820683000,0.82368310546875,0.0003319443203508854,0.0006364737637341022,0.0013653857167810202
1761467796830637000,0.833636962890625,0.0007647141464985907,-0.0010731657966971397,-0.00009945849888026714
1761467796840590800,0.8435908203125,-0.0010190712055191398,0.00028398114955052733,0.0003647306002676487
1761467796850545000,0.853544921875,-0.00029331567930057645,-0.0004461929202079773,0.0008279315661638975
1761467796860498000,0.863497802734375,0.00011468055890873075,0.00016473623691126704,0.0014556385576725006
1761467796870452000,0.873451904296875,0.0003596275928430259,-0.000586700567509979,-0.000763436546549201
1761467796880406000,0.883406005859375,0.00018998427549377084,0.0008804348181001842,-0.0010364102199673653
1761467796890359800,0.89335986328125,-0.0009165470255538821,-0.0004655060765799135,-0.00035954941995441914
1761467796900312800,0.903312744140625,-0.0013573002070188522,-0.00017016151105053723,0.0003640314098447561
1761467796910267000,0.913266845703125,-0.001680615241639316,0.0007896164897829294,-0.0003006034530699253
1761467796920221000,0.923220947265625,0.00008133216761052608,-0.0011403763201087713,0.0013524206588044763
1761467796930174700,0.9331748046875,0.0006985475774854422,-0.00094152323435992,0.0009413561783730984
1761467796940128800,0.943128662109375,0.00019973749294877052,0.0013141741510480642,-0.000567857176065445
1761467796950081800,0.953081787109375,-0.00014424382243305445,0.0001804196508601308,0.000788896344602108
1761467796960035800,0.963035888671875,-0.0003194798482581973,0.0009628564002923667,-0.0007072675507515669
1761467796969990000,0.972989990234375,0.00002512219361960888,-0.0005092830397188663,-0.00016953330487012863
1761467796979944000,0.98294384765625,-0.0004366699140518904,0.000038262864109128714,-0.0007082908414304256
1761467796989898000,0.99289794921875,0.000517072796355933,-0.00046748234308324754,0.0004424494691193104
1761467796999851000,1.00285107421875,-0.0012134492862969637,0.0001410499680787325,0.0009095678105950356
1761467797009805000,1.01280517578125,-0.0012639716733247042,-0.0007380600436590612,0.00012967060320079327
1761467797019758800,1.0227587890625,-0.0012107084039598703,-0.001055775210261345,0.0006473890971392393
1761467797029713000,1.032712890625,0.0009812560165300965,0.00024187820963561535,-0.00021531456150114536
1761467797039666000,1.042666015625,-0.00042382776155136526,0.0004855574225075543,-0.001621463568881154
1761467797049620000,1.052619873046875,0.0019528003176674247,0.000007586844731122255,-0.001753134187310934
1761467797059574000,1.062573974609375,-0.00015642325161024928,-0.00018416077364236116,-0.00078747165389359
1761467797069528000,1.072528076171875,0.0014997078105807304,-0.0006660557119175792,0.0011350703425705433
1761467797079482000,1.082482177734375,-0.0007224336732178926,-0.0009464866016060114,0.0007081655785441399
1761467797089435100,1.09243505859375,0.0002256155712530017,0.0009122926858253777,0.00009108055382966995
1761467797099389200,1.10238916015625,0.0003630347200669348,0.0009370600455440581,-0.000428768340498209
1761467797109343000,1.112343017578125,-0.0006739381933584809,0.0009631243883632123,0.0003429902717471123
1761467797119297000,1.122297119140625,-0.000811091042123735,0.00020119402324780822,-0.000029053306207060814
1761467797129251000,1.1322509765625,0.00004075892502442002,0.0014772261492908,-0.00010320381261408329
1761467797139204000,1.1422041015625,-0.0002782878000289202,-0.00014730225666426122,-0.0006323738489300013
1761467797149158000,1.152157958984375,-0.0010627862066030502,-0.0003309598541818559,-0.0002389294095337391
1761467797159112000,1.16211181640625,-0.0015991468681022525,0.0003156556631438434,0.0014878642978146672
1761467797169066000,1.17206591796875,-0.0008202384924516082,0.0011565820313990116,-0.0007018873002380133
1761467797179020000,1.18202001953125,0.0007054864545352757,-0.0008841982344165444,-0.0002068057656288147
1761467797188973000,1.19197314453125,-0.0002588484203442931,0.0006796089583076537,-0.00013941782526671886
1761467797198926800,1.2019267578125,-0.001025838777422905,0.000766694254707545,0.0006368935573846102
1761467797208881000,1.211880859375,-0.00014493538765236735,-0.00003217719495296478,-0.0012122720945626497
1761467797218835000,1.2218349609375,-0.0003641135699581355,-0.0005680051981471479,0.0013422322226688266
1761467797228788000,1.2317880859375,0.00027471192879602313,-0.0019485049415379763,0.00016873027198016644
1761467797238741800,1.24174169921875,-0.0010323675815016031,-0.0004089315189048648,-0.001571911619976163
1761467797248696000,1.251696044921875,-0.00021106094936840236,-0.0011149290949106216,-0.001274765469133854
1761467797258650000,1.261650146484375,0.0014856389025226235,0.0003817674587480724,-0.0024217888712882996
1761467797268604200,1.271604248046875,-0.001006984617561102,-0.0009718334767967463,0.0008125586900860071
1761467797278557200,1.28155712890625,-0.00020670468802563846,0.00017279310850426555,0.0010264106094837189
1761467797288511000,1.291510986328125,0.0004021985805593431,-0.0010243471479043365,0.001733006676658988
1761467797298465000,1.301465087890625,0.0011476173531264067,-0.00023312197299674153,-0.0006188307888805866
1761467797308419000,1.311419189453125,-0.00008695828728377819,0.00008578994311392307,0.0010018389439210296
1761467797318372900,1.321372802734375,0.0002507305471226573,-0.0007272731163538992,0.0016199585516005754
1761467797328326000,1.331325927734375,0.0016521480865776539,0.0008368498529307544,0.0017513581551611423
1761467797338280000,1.341280029296875,0.00007156218634918332,-0.00022814827389083803,0.0024722758680582047
1761467797348234000,1.35123388671875,-0.00081159413093701,-0.00030465208692476153,-0.0013399883173406124
1761467797358188000,1.36118798828125,0.0008068088791333139,-0.00026124255964532495,0.000657382421195507
1761467797368141800,1.371141845703125,0.00022657151566818357,0.00006285676499828696,-0.0005124283488839865
1761467797378094800,1.3810947265625,0.000617523561231792,0.00026339280884712934,-0.00030976184643805027
1761467797388049000,1.391048828125,-0.00021040000137872994,-0.00020102958660572767,0.00013196421787142754
1761467797398003200,1.401003173828125,0.0005046587320975959,0.0005313396686688066,0.00013356213457882404
1761467797407957000,1.41095703125,0.0004847944946959615,-0.00036069308407604694,0.0010127589339390397
1761467797417911000,1.4209111328125,0.0006408557528629899,-0.0013529869029298425,-0.0009057822171598673
1761467797427864000,1.430864013671875,-0.0003436426632106304,-0.0009355832007713616,-0.00029234448447823524
1761467797437818000,1.440818115234375,-0.0012147626839578152,-0.00022238868405111134,0.00009248219430446625
1761467797447772000,1.45077197265625,0.0002610833034850657,0.0003060349263250828,-0.0006869391072541475
1761467797457726000,1.460725830078125,-0.0006771483458578587,0.0003126927767880261,-0.000542595749720931
1761467797467680000,1.470679931640625,0.0003587375394999981,-0.0005836394848302007,-0.0007926165126264095
1761467797477633000,1.480633056640625,-0.0008767029503360391,0.00034473848063498735,-0.00009620003402233124
1761467797487587000,1.490587158203125,-0.0010871582198888063,0.0002255248837172985,-0.00012631365098059177
1761467797497540900,1.500540771484375,0.0002838371437974274,-0.00021469566854648292,-0.0004176634829491377
1761467797507495000,1.510494873046875,0.0009499182924628258,-0.0007125206175260246,0.0007155784405767918
1761467797517449000,1.520448974609375,-0.000676740484777838,0.00024994579143822193,-0.0000426233746111393
1761467797527402000,1.530402099609375,-0.0008240496972575784,0.0006024603499099612,-0.0012737307697534561
1761467797537355800,1.540355712890625,-0.0015803873538970947,0.0004674381634686142,0.001296485890634358
1761467797547309800,1.550309814453125,-0.0001149033778347075,0.0010825647041201591,0.000025891466066241264
1761467797557264100,1.56026416015625,-0.00013114867033436894,-0.0009430355275981128,0.0004189740866422653
1761467797567218200,1.57021826171875,-0.00029807977261953056,-0.00012677765334956348,-0.0009614971932023764
1761467797577171200,1.580171142578125,0.0005520012928172946,-0.00021333040785975754,0.00010563153773546219
1761467797587125000,1.590125,0.00032502057729288936,0.0002654962008818984,0.00043737515807151794
1761467797597079000,1.6000791015625,0.0009149108082056046,-0.0007249334594234824,0.0006166058592498302
1761467797607033000,1.610033203125,-0.0012370506301522255,0.0008324673981405795,-0.0003470126539468765
1761467797616986000,1.619986083984375,0.0001826805528253317,0.0002396477502770722,0.0018016257090494037
1761467797626940000,1.62993994140625,-0.000769946665968746,0.0007291925139725208,-0.0014366561081260443
1761467797636894000,1.63989404296875,-0.0012149608228355646,-0.0008271588012576103,0.0005588505882769823
1761467797646848000,1.649847900390625,-0.0010109525173902512,0.0010293731465935707,0.0008514538640156388
1761467797656802000,1.659802001953125,0.0010657805250957608,-0.0005751813296228647,0.00025437306612730026
1761467797666755000,1.669755126953125,0.0002194734988734126,-0.0004714547249022871,0.00046276720240712166
1761467797676708900,1.679708984375,0.00019390718080103397,0.0013224505819380283,-0.00025042728520929813
1761467797686663000,1.689662841796875,0.00020088156452402472,-0.00024314390611834824,-0.00025422521866858006
1761467797696617000,1.699616943359375,0.00021419738186523318,-0.0012388997711241245,0.00008506141602993011
1761467797706571000,1.709571044921875,0.00047040736535564065,0.0008541080169379711,-0.00024908012710511684
1761467797716523800,1.719523681640625,-0.0008609068463556468,0.00006980707985349,-0.0002837013453245163
1761467797726478000,1.72947802734375,0.000018980528693646193,0.0003966010408475995,-0.0005868622101843357
1761467797736432000,1.73943212890625,0.00028156820917502046,0.00025545351672917604,0.0005500414408743382
1761467797746386200,1.74938623046875,-0.0008813821477815509,0.0013908852124586701,-0.0001372110564261675
1761467797756340000,1.759340087890625,0.0006824260344728827,0.00023374170996248722,-0.0014557421673089266
1761467797766293000,1.76929296875,-0.0023106192238628864,-0.0020997626706957817,-0.001724195433780551
1761467797776247000,1.7792470703125,0.0005536105018109083,0.0006177270552143455,-0.0005476106889545918
1761467797786201000,1.789201171875,-0.0004652842180803418,0.0005071004270575941,0.0020000396762043238
1761467797796155000,1.79915478515625,-0.00021041970467194915,-0.0016487285029143095,-0.0000018584541976451874
1761467797806109000,1.80910888671875,-0.0001478582271374762,0.00018352270126342773,0.0009755064966157079
1761467797816062000,1.81906201171875,-0.00033481212449260056,-0.00009744081762619317,-0.0005012161564081907
1761467797826016000,1.82901611328125,0.0001536390045657754,-0.00009372210479341447,-0.0003016749396920204
1761467797835970000,1.838969970703125,0.0009323473204858601,-0.000154708483023569,-0.0005847690626978874
1761467797845923800,1.848923828125,0.0013823295012116432,0.0004478026239667088,-0.0001874142326414585
1761467797855878000,1.8588779296875,0.0010134817566722631,0.00003155056037940085,-0.001275315647944808
1761467797865831000,1.868830810546875,-0.0003102968039456755,-0.00007742753950878978,0.0005771978758275509
1761467797875785000,1.878784912109375,0.0003629503189586103,-0.00029660569271072745,-0.00048380554653704166
1761467797885739000,1.888739013671875,0.00008122448343783617,0.0008144774474203587,0.0002170188818126917
1761467797895693000,1.898693115234375,-0.000027432513888925314,-0.00019219743262510747,-0.0018762259278446436
1761467797905647000,1.908647216796875,0.00009526609210297465,0.0003910189843736589,0.0019895739387720823
1761467797915600100,1.91860009765625,-0.00009621522622182965,0.00030127045465633273,-0.0003707858268171549
1761467797925554000,1.928553955078125,0.0008210177184082568,-0.0004801591276191175,0.00020170165225863457
1761467797935508000,1.938508056640625,0.0008543072617612779,-0.00007322811870835721,-0.00013092695735394955
1761467797945462000,1.9484619140625,-0.0009590318659320474,-0.00001552878529764712,0.0015954517293721437
1761467797955416000,1.958416015625,0.0016828239895403385,-0.00038331132964231074,0.00017279107123613358
1761467797965369000,1.968369140625,-0.0020644497126340866,-0.00016325201431754977,-0.00008224183693528175
1761467797975323000,1.978322998046875,0.0015467966441065073,0.0008948218892328441,-0.00031526852399110794
1761467797985277000,1.98827685546875,0.0009015969117172062,0.0003372545470483601,-0.0007074580062180758
1761467797995231000,1.99823095703125,-0.0008411756716668606,0.00043419364374130964,-0.00018334784545004368
1761467798005184800,2.008184814453125,0.00044125033309683204,-0.00045250222319737077,-0.001063712639734149
1761467798015138800,2.018138916015625,-0.0002274694270454347,0.0006375296507030725,-0.0006269542500376701
1761467798025091800,2.028091796875,0.000222757866140455,0.0007023353246040642,-0.0003736182115972042
1761467798035046000,2.0380458984375,-0.00009575620060786605,0.0008149870554916561,-0.0007682987488806248
1761467798045000000,2.048,0.0003430426586419344,0.00027654695441015065,0.0007939620409160852
1761467798054953700,2.05795361328125,-0.00005243677878752351,0.0011948049068450928,-0.00015359069220721722
1761467798064907800,2.06790771484375,-0.0001387748634442687,0.0011434672633185983,0.0001597721129655838
1761467798074860800,2.07786083984375,-0.00006473896792158484,0.000750384759157896,-0.0008836544584482908
1761467798084814800,2.08781494140625,0.0001457628095522523,-0.0010919590713456273,0.0004695639945566654
1761467798094768600,2.0977685546875,0.00025894714053720236,0.0003458815917838365,-0.0005810530856251717
1761467798104722700,2.10772265625,0.000510946090798825,0.000031804200261831284,-0.00019229110330343246
1761467798114676700,2.1176767578125,0.0005532903014682233,-0.0003397067775949836,0.00018694298341870308
1761467798124629800,2.127629638671875,-0.0006769598694518209,0.00010741149890236557,-0.0006409625057131052
1761467798134583800,2.137583740234375,-0.0008045252761803567,-0.0016303010052070022,-0.0014934404753148556
1761467798144537600,2.14753759765625,0.0004521826049312949,0.0011016302742064,-0.0007728468626737595
1761467798154491600,2.15749169921875,-0.0005172080709598958,-0.0009103878401219845,0.0010090742725878954
1761467798164446000,2.167446044921875,0.00007216964149847627,-0.0005524234729819,-0.0017384609673172235
1761467798174398700,2.177398681640625,-0.0004183846467640251,-0.0005755929742008448,-0.0011930454056710005
1761467798184352800,2.187352783203125,-0.0013799697626382113,-0.0012346680741757154,-0.0009140348993241787
1761467798194306800,2.197306884765625,-0.00021803262643516064,-0.00027379964012652636,-0.0016714378725737333
1761467798204260900,2.2072607421875,0.000640208600088954,-0.0004273273516446352,-0.0012408648617565632
1761467798214215000,2.21721484375,-0.0020349365659058094,0.0008736267918720841,0.0011663661571219563
1761467798224168000,2.22716796875,0.00003923726035282016,0.0010501549113541842,-0.0002750600688159466
1761467798234121700,2.237121826171875,0.0023902759421616793,0.0009135347791016102,-0.00004815892316401005
1761467798244075800,2.24707568359375,0.0005182470777072012,-0.00033010594779625535,-0.00010625878348946571
1761467798254029800,2.25702978515625,-0.001803763210773468,0.000310650619212538,0.00027963309548795223
1761467798263983600,2.266983642578125,-0.0010432705748826265,0.0015788190066814423,-0.0007027792744338512
1761467798273936600,2.2769365234375,0.0016606367425993085,0.0004935808829031885,-0.0004108967259526253
1761467798283890700,2.286890625,-0.00031398373539559543,-0.0004437487223185599,-0.0014026935677975416
1761467798293844700,2.2968447265625,0.0007816407596692443,-0.0004591950564645231,0.00011078082025051117
1761467798303798800,2.306798828125,0.000757934816647321,-0.0006799501716159284,0.0003095457796007395
1761467798313752800,2.3167529296875,0.00008575292304158211,-0.0019915569573640823,-0.0001780788879841566
1761467798323705600,2.32670556640625,-0.0003478951402939856,0.0011349041014909744,0.0006536156870424747
1761467798333660000,2.336659912109375,-0.0012704140972346067,-0.0003727113362401724,-0.0010753085371106863
1761467798343614000,2.346614013671875,0.0003587583196349442,-0.0003185612440574914,-0.000010753050446510315
1761467798353567700,2.356567626953125,-0.00043086896766908467,-0.00034146441612392664,0.0005868603475391865
1761467798363521800,2.366521728515625,-0.0006438535638153553,-0.00034130836138501763,0.0003495030105113983
1761467798373474800,2.376474853515625,-0.0010715571697801352,0.00017028488218784332,0.0009732154430821538
1761467798383428900,2.386428955078125,-0.00030304555548354983,-0.0007707535987719893,-0.000093432841822505
1761467798393383000,2.3963828125,0.00043438374996185303,-0.0006511776591651142,-0.0012372604105621576
1761467798403336700,2.406336669921875,-0.0002654275740496814,0.001390429213643074,0.0009693090105429292
1761467798413290800,2.416290771484375,0.0006000997382216156,-0.000861806096509099,0.0005288221873342991
1761467798423243800,2.426243896484375,-0.0003478456346783787,-0.0011868521105498075,0.00038785161450505257
1761467798433197800,2.43619775390625,-0.0004144246631767601,0.0005077172536402941,0.0006602930370718241
1761467798443151600,2.446151611328125,-0.0007070213905535638,-2.5151530280709267e-7,0.0004964836407452822
1761467798453105700,2.456105712890625,0.0030991684179753065,0.0007712662918493152,-0.0009333677589893341
1761467798463059700,2.466059814453125,-0.00027358735678717494,-0.0009334015194326639,0.0022844872437417507
1761467798473012700,2.4760126953125,-0.00044775809510611,-0.0016050506383180618,0.0002200047019869089
1761467798482966800,2.485966796875,-0.0007568183937110007,-0.0001601822441443801,0.0022177346982061863
1761467798492920800,2.4959208984375,-0.0005150033393874764,-0.001828918932005763,0.0010150510352104902
1761467798502875000,2.505875,-0.000578746316023171,-0.0009191451244987547,0.0010689923074096441
1761467798512829000,2.515828857421875,-0.00035610608756542206,-0.0006344532012008131,-0.0012863073498010635
1761467798522782700,2.52578271484375,-0.0011696354486048222,-0.0006554736173711717,0.0008104073349386454
1761467798532735700,2.53573583984375,-0.00042395040509290993,-0.0000067275832407176495,0.0008799158968031406
1761467798542689800,2.545689697265625,-0.0017904499545693398,-0.0006133739952929318,0.0006719215307384729
1761467798552643800,2.555643798828125,0.00036351458402350545,0.0006287243450060487,-0.0005882862024009228
1761467798562597600,2.56559765625,-0.00047700476716272533,-0.0010270234197378159,0.0008662340696901083
1761467798572551700,2.5755517578125,0.0006780081894248724,0.0005900479736737907,0.0010209636529907584
1761467798582504700,2.585504638671875,0.0003449055948294699,-0.00012753831106238067,-0.0005017782095819712
1761467798592458800,2.595458740234375,-0.0007009177352301776,-0.002031432231888175,0.0012042428134009242
1761467798602412800,2.605412841796875,-0.00013142236275598407,-0.00020363667863421142,0.00006458372808992863
1761467798612366600,2.61536669921875,0.0005844353581778705,-0.0018814281793311238,0.00008162809535861015
1761467798622321000,2.62532080078125,-0.001341190654784441,-0.0009409994818270206,0.0004333073738962412
1761467798632273700,2.635273681640625,-0.0007438436732627451,-0.0000970437831711024,-0.0008141172584146261
1761467798642228000,2.64522802734375,-0.0004315255500841886,0.0007209235336631536,0.00017552077770233154
1761467798652181800,2.655181640625,0.0012342818081378937,0.0004982831887900829,0.0012778030941262841
1761467798662135800,2.6651357421875,-0.001477485871873796,-0.0006738321390002966,-0.0005422751419246197
1761467798672089900,2.67508984375,0.0004527732962742448,0.00020181521540507674,-0.0001577148213982582
1761467798682043000,2.68504296875,-0.00048274503205902874,0.000544888258446008,-0.00029440270736813545
1761467798691997000,2.694996826171875,-0.00039059968548826873,0.0004535418120212853,0.0010859136236831546
1761467798701950700,2.70495068359375,0.0005986156174913049,0.0006867534248158336,-0.0012504197657108307
1761467798711904800,2.71490478515625,0.00019035302102565765,-0.0012909099459648132,-0.0010741185396909714
1761467798721858800,2.72485888671875,0.001071024569682777,-0.0009186919196508825,0.00018332269974052906
1761467798731812600,2.7348125,0.0011261519975960255,-0.0009285456035286188,0.0002453741617500782
1761467798741765600,2.744765625,-0.000640468264464289,-0.0010978779755532742,0.0001289874780923128
1761467798751719700,2.7547197265625,0.0004735319525934756,-0.000579893181566149,0.0002466992009431124
1761467798761673700,2.764673828125,0.0013746689073741436,-0.0006054510595276952,-0.0017135441303253174
1761467798771627800,2.774627685546875,0.00045454694190993905,-0.00033540651202201843,0.0004894230514764786
1761467798781581800,2.784581787109375,0.00031925179064273834,0.0006727917934767902,-0.00005370541475713253
1761467798791534600,2.79453466796875,-0.000523905036970973,-0.0007466730894520879,-0.0010444012004882097
1761467798801489000,2.804489013671875,-0.0010108503047376871,-0.002037100028246641,0.0003289072774350643
1761467798811443000,2.81444287109375,0.000164669007062912,0.0003469616058282554,0.00009774509817361832
1761467798821396700,2.824396728515625,-0.0012811331544071436,-0.0005282997153699398,-0.00013976381160318851
1761467798831350800,2.834350830078125,-0.0003855120448861271,-0.00122498266864568,0.000494867330417037
1761467798841303800,2.8443037109375,0.00008839048678055406,-0.0007429718389175832,0.0012520210584625602
1761467798851257900,2.8542578125,-0.0008383895619772375,0.0005092464853078127,0.0001156502403318882
1761467798861212000,2.8642119140625,-5.454639904201031e-7,0.0011696808505803347,0.00047112442553043365
1761467798871165700,2.874165771484375,-0.00015900353901088238,0.0007973709143698215,0.000514267710968852
1761467798881119700,2.88411962890625,0.0000813188380561769,0.00031187705462798476,0.00000627199187874794
1761467798891073800,2.89407373046875,-0.0012824859004467726,-0.00029266049386933446,-0.00036204326897859573
1761467798901026800,2.90402685546875,-0.0005356383044272661,-0.0002671539841685444,0.000870927469804883
1761467798910980600,2.913980712890625,-0.0011673400877043605,-0.0005901954136788845,0.00023789401166141033
1761467798920934700,2.9239345703125,-0.0007289099739864469,0.0002799479116220027,-0.00003383588045835495
1761467798930889000,2.933888916015625,0.000021568848751485348,0.0006943357875570655,-0.0007094796746969223
1761467798940842800,2.9438427734375,-0.0011774260783568025,0.00012805702863261104,0.0002826354466378689
1761467798950795800,2.953795654296875,0.0005275295698083937,-0.00008952320786193013,-0.00004812912084162235
1761467798960749800,2.963749755859375,-0.0011987113393843174,-0.0006800524424761534,-0.00013839872553944588
1761467798970704000,2.973703857421875,0.00020131247583776712,-0.000037698016967624426,0.00023843860253691673
1761467798980658000,2.983657958984375,0.0010270432103425264,0.0003972758713643998,-0.00011543603613972664
1761467798990611700,2.99361181640625,-0.00020786456298083067,0.0008833027677610517,-0.00005444977432489395
1761467799000564700,3.003564697265625,-0.0000311101321130991,-0.0003057511930819601,-0.000781017355620861
1761467799010518800,3.013518798828125,0.00035398296313360333,-0.0018506509950384498,-0.00015650619752705097
1761467799020472300,3.023472412109375,0.000780676316935569,-0.0003607011749409139,-0.0004113367758691311
1761467799030426600,3.033426513671875,0.00038493057945743203,-0.000587069895118475,0.0002661712933331728
1761467799040380400,3.04338037109375,0.001187110086902976,0.0003989212273154408,-0.001001428347080946
1761467799050334500,3.05333447265625,0.0008805803372524679,-0.000845307600684464,-0.000557479215785861
1761467799060287500,3.06328759765625,-0.0002323663793504238,0.0004371879040263593,0.0003823700826615095
1761467799070241500,3.073241455078125,0.0001511287991888821,-0.0012440657010301948,0.00041672494262456894
1761467799080195300,3.0831953125,0.0006580898188985884,0.00008201150922104716,0.0009663382079452276
1761467799090149400,3.0931494140625,-0.0010886774398386478,0.0003070486127398908,-0.0008414154872298241
1761467799100103400,3.103103515625,0.00029662210727110505,0.0005146750481799245,0.000607228372246027
1761467799110056400,3.113056396484375,-0.0015944885089993477,-0.000172686850419268,-0.0004359318409115076
1761467799120010500,3.123010498046875,0.00007135770283639431,-0.0013337042182683945,0.001442214474081993
1761467799129964300,3.13296435546875,0.00011769670527428389,-0.00020692075486294925,-0.0000036156270653009415
1761467799139918300,3.14291845703125,-0.000023861939553171396,0.001727889059111476,0.0002206997014582157
1761467799149872400,3.152872314453125,-0.0004936435725539923,-0.0009685615659691393,-0.0003233840689063072
1761467799159826400,3.162826416015625,0.00033990759402513504,-0.0006414804374799132,0.0005654804408550262
1761467799169779200,3.172779296875,-0.0003029795188922435,-0.0026713418774306774,-0.00023107114247977734
1761467799179733500,3.1827333984375,0.001525691943243146,0.002492409199476242,0.001973021775484085
1761467799189687600,3.1926875,0.000987467123195529,0.00012698941281996667,-0.002332244301214814
1761467799199641300,3.202641357421875,-0.0011861816747114062,0.00144431390799582,-0.000871152151376009
1761467799209595400,3.212595458984375,-0.001107884687371552,0.0001311091473326087,-0.0006985794752836227
1761467799219548400,3.22254833984375,-0.0004657641111407429,0.002193768974393606,0.0018737693317234516
1761467799229502500,3.23250244140625,-0.00014139112317934632,-0.00041639519622549415,-0.001007238170132041
1761467799239456500,3.24245654296875,-0.0007375900750048459,-0.00016185383719857782,0.0027891395147889853
1761467799249410300,3.252410400390625,0.0004760124138556421,-0.0023613586090505123,0.00014621857553720474
1761467799259364400,3.2623642578125,0.0003080103197135031,0.000026782508939504623,0.0008090187329798937
1761467799269318400,3.272318359375,-0.0008568563498556614,0.00045741567737422884,-0.001254664734005928
1761467799279271400,3.282271484375,-0.0004893206642009318,0.0008502241689711809,0.0010129371657967567
1761467799289225200,3.29222509765625,0.0006750134052708745,0.0003410278004594147,-0.0010765793267637491
1761467799299179300,3.30217919921875,-0.00012052955571562052,0.00011489898315630853,-0.0007773670367896557
1761467799309133300,3.31213330078125,-0.00021613703574985266,0.0006262258975766599,-0.00023408210836350918
1761467799319087600,3.322087646484375,-0.00017553908401168883,0.0016466239467263222,0.0020538149401545525
1761467799329040400,3.332040283203125,0.0007355283014476299,-0.0002894942299462855,0.000716641778126359
1761467799338994400,3.341994384765625,0.0008647353970445693,0.000922316568903625,0.0008568244520574808
1761467799348948500,3.351948486328125,0.00026871991576626897,-0.000693156907800585,-0.00226812856271863
1761467799358902500,3.361902587890625,-0.0015129346866160631,0.000944946426898241,0.002396579831838608
1761467799368856300,3.371856201171875,0.00016965047689154744,0.0003958026645705104,0.0002732414286583662
1761467799378810400,3.381810302734375,-0.001889853272587061,-0.001350273028947413,0.00017309468239545822
1761467799388763400,3.391763427734375,-0.0012168723624199629,-0.0003918013535439968,-0.0007797842845320702
1761467799398717400,3.401717529296875,0.0004390687099657953,0.0002964239683933556,0.002109718509018421
1761467799408671500,3.41167138671875,-0.0008570917416363955,-0.000624497071839869,-0.0006961878389120102
1761467799418625300,3.421625244140625,-0.001720660598948598,0.001142797525972128,-0.0012420809362083673
1761467799428579300,3.431579345703125,-0.001072713523171842,0.0008623666362836957,-0.00039306515827775
1761467799438532400,3.441532470703125,-0.0015923004830256104,0.000636007753200829,0.0004291343502700329
1761467799448486400,3.451486328125,-0.0006791025516577065,-0.00020421955559868366,0.001068825600668788
1761467799458440200,3.461440185546875,0.0001532452297396958,0.00017735257279127836,0.0004403830971568823
1761467799468394500,3.47139453125,0.0001005146186798811,-0.0008357139304280281,-0.0006331370677798986
1761467799478348500,3.4813486328125,0.001447945018298924,0.0011637161951512098,-0.00011079758405685425
1761467799488302600,3.491302490234375,-0.0003270517336204648,-0.0004925037501379848,0.00007668882608413696
1761467799498255600,3.501255615234375,0.0008272391860373318,0.0005888398736715317,-0.0002791557926684618
1761467799508209400,3.51120947265625,-0.0008550796774215996,0.0014708788366988301,-0.000509253004565835
1761467799518163500,3.52116357421875,-0.00034179724752902985,-0.0013231487246230245,0.0008073644712567329
1761467799528117500,3.531117431640625,0.0011738077737390995,0.0012092511169612408,0.0016276180977001786
1761467799538071300,3.5410712890625,0.0002532672369852662,0.00012891291407868266,-0.0002559530548751354
1761467799548024300,3.5510244140625,0.0028586378321051598,-0.0007195702055469155,0.0005046457517892122
1761467799557978400,3.560978271484375,0.000008132075890898705,0.0016276015667244792,-0.00019180867820978165
1761467799567932400,3.570932373046875,0.0005335737369023263,-0.00045765365939587355,0.000292087672278285
1761467799577886500,3.580886474609375,-0.0002869325689971447,0.00018631131388247013,0.0002364986576139927
1761467799587840300,3.59084033203125,0.00033811130560934544,0.0009431816288270056,0.00010840059258043766
1761467799597794300,3.600794189453125,0.001346008270047605,-0.00023143680300563574,-0.0006208335980772972
1761467799607747300,3.610747314453125,0.000364100793376565,0.000687087420374155,0.001467883586883545
1761467799617701400,3.620701416015625,-0.0008275501895695925,0.0007413349812850356,-0.0013588559813797474
1761467799627655400,3.630655517578125,-0.0003026411577593535,-0.0010789355728775263,0.0006257314234972
1761467799637609500,3.640609375,-0.0001282775483559817,-0.0005224727792665362,-0.0012316268403083086
1761467799647563500,3.6505634765625,0.0011569641064852476,0.00014385016402229667,-0.0011980708222836256
1761467799657516500,3.6605166015625,0.001416986109688878,-0.0006640940555371344,-0.0010288539342582226
1761467799667470300,3.67047021484375,0.000815910694655031,-0.00034850946394726634,0.00014506722800433636
1761467799677424400,3.68042431640625,0.000014173216186463833,0.0006495158886536956,0.0007572241593152285
1761467799687378400,3.69037841796875,0.0011960840784013271,0.0003030385705642402,0.0009582929778844118
1761467799697332500,3.70033251953125,0.0010748045751824975,-0.0008166938787326217,-0.0015301273670047522
1761467799707286300,3.710286376953125,-0.0007486618123948574,0.00012872825027443469,-0.0011415721382945776
1761467799717239300,3.7202392578125,-0.0005477617378346622,-0.0015584125649183989,0.001620614668354392
1761467799727193300,3.730193359375,0.0017220503650605679,-0.00023508787853643298,-0.0001658338587731123
1761467799737147400,3.7401474609375,-0.00012972019612789154,0.0007902657380327582,0.0024022869765758514
1761467799747101200,3.75010107421875,-0.00005595065886154771,0.001497867633588612,0.00021796207875013351
1761467799757055200,3.76005517578125,-0.00020657596178352833,-0.0002975441748276353,0.0009685689583420753
1761467799767008300,3.77000830078125,0.0009090222301892936,0.000049998314352706075,0.0017411519074812531
1761467799776962600,3.779962646484375,0.0008009003358893096,-0.001114915357902646,0.0005522144492715597
1761467799786916600,3.78991650390625,0.0011050333268940449,-0.0006307527073659003,0.0005950913764536381
1761467799796870400,3.799870361328125,0.0016703535802662373,0.0000887360074557364,-0.0002969552297145128
1761467799806824400,3.809824462890625,0.0005270586698316038,0.00041630479972809553,0.001219182275235653
1761467799816778500,3.819778564453125,0.0019349874928593636,0.00019421742763370275,0.0013410038081929088
1761467799826731500,3.8297314453125,0.00015066959895193577,0.0010472279973328114,0.00039744586683809757
1761467799836685300,3.839685302734375,0.0004634395008906722,0.00046257980284281075,-0.00108632305637002
1761467799846639400,3.849639404296875,0.0009340200340375304,0.0015478178393095732,0.0002191583625972271
1761467799856593400,3.859593505859375,0.0004978530923835933,-0.0017299143364652991,0.0003908213693648577
1761467799866547500,3.86954736328125,0.00044086138950660825,0.0009622751967981458,0.0007388964295387268
1761467799876500500,3.87950048828125,-0.0006467555067501962,0.0005921116098761559,-0.001226132269948721
1761467799886454300,3.889454345703125,0.00019187387079000473,0.0006032969104126096,0.0015701866941526532
1761467799896408300,3.899408203125,-0.0013020364567637444,-0.001022252137772739,-0.00031932699494063854
1761467799906362400,3.9093623046875,-0.0013313312083482742,-0.00003954570274800062,-0.0014301314949989319
1761467799916316400,3.91931640625,-0.0005918768001720309,-0.0005514611839316785,0.00022975006140768528
1761467799926270500,3.9292705078125,-0.00016443943604826927,-0.0004151073517277837,0.00006276997737586498
1761467799936223500,3.939223388671875,0.0016258753603324294,0.0018943402683362365,0.0004122841637581587
1761467799946177500,3.949177490234375,-0.0000071749091148376465,-0.0010103695094585419,-0.0008178297430276871
1761467799956131600,3.959131591796875,0.0015992100816220045,-0.0003808941983152181,0.0006114081479609013
1761467799966085400,3.96908544921875,-0.0004780554154422134,-0.00012816023081541061,0.000961613841354847
1761467799976039400,3.979039306640625,0.000937286764383316,-0.00012406063615344465,0.0008134630043059587
1761467799985992400,3.988992431640625,-0.00019855136633850634,-0.00024017445684876293,0.0006390258204191923
1761467800005277400,4.00827734375,0.0003722161636687815,-0.000011638359865173697,-0.000017776619642972946
1761467800015231500,4.0182314453125,0.0010689850896596909,0.0008624346228316426,0.000774382846429944
1761467800025186300,4.028186279296875,0.0005491360789164901,-0.0012185594532638788,0.0009847725741565228
1761467800035140400,4.038140380859375,0.00014794926391914487,0.0011744844960048795,-0.000078604556620121
1761467800045094100,4.04809423828125,0.0006837773253209889,0.0004418488824740052,0.0005858542863279581
1761467800055047200,4.058047119140625,0.0008344227098859847,-0.0007733660750091076,-0.0005196593701839447
1761467800065001200,4.068001220703125,-0.0007927686674520373,-0.0003901371965184808,-0.0005327088292688131
1761467800074955300,4.077955322265625,0.0012380660045892,-0.00047547518624924123,0.0002990206703543663
1761467800084909300,4.087909423828125,0.00027773017063736916,0.00020522874547168612,0.0007637422531843185
1761467800094863000,4.097863037109375,-0.0005477718077600002,-0.0008410454029217362,-0.0003227905835956335
1761467800104816000,4.107816162109375,0.0009776868391782045,-0.00006180442869663239,0.0001054457388818264
1761467800114770200,4.117770263671875,-0.0006535951397381723,-0.00027409871108829975,0.001167199807241559
1761467800124724200,4.12772412109375,-0.0012759759556502104,0.0006550782127305865,0.00023136497475206852
1761467800134678000,4.137677978515625,0.0007252193754538894,0.00012187042739242315,0.001190568320453167
1761467800144632300,4.14763232421875,0.0010850124526768923,-0.00038333123666234314,0.00011039013043045998
1761467800154586400,4.15758642578125,0.0003875601105391979,-0.0011096802772954106,-0.0005481319967657328
1761467800164539400,4.167539306640625,0.0013542876113206148,0.0012674573808908463,-0.0008059258107095957
1761467800174493400,4.177493408203125,-0.0016380269080400467,-0.0005202112952247262,-0.0004119928926229477
1761467800184447200,4.187447265625,0.00035135436337441206,-0.000600106141064316,-0.001378720160573721
1761467800194401300,4.1974013671875,0.00031134893652051687,-0.00042419848614372313,-0.0005607756320387125
1761467800204355300,4.207355224609375,0.0003230668371543288,-0.00035229313652962446,0.0009899830911308527
1761467800214308400,4.217308349609375,-0.00026043079560622573,0.0009730080491863191,0.0008929385803639889
1761467800224262100,4.22726220703125,0.0011686214711517096,-0.0001737491402309388,0.0012340896064415574
1761467800234216200,4.23721630859375,-0.0011946158483624458,0.00003452779492363334,0.001440558466129005
1761467800244170200,4.247170166015625,0.0006648031994700432,0.0003061702591367066,0.0005494647193700075
1761467800254124300,4.257124267578125,-0.0012402621796354651,-0.0003397124819457531,-0.0003022595774382353
1761467800264078000,4.267078125,0.0007421949412673712,0.0004789432277902961,-0.001301744021475315
1761467800274031000,4.277031005859375,-0.0008605979382991791,-0.0008683860069140792,0.0010259404079988599
1761467800283985200,4.286985107421875,-0.0002502014394849539,0.0001313646207563579,-0.0006627698894590139
1761467800293939500,4.296939453125,-0.0012168872635811567,0.00019904103828594089,-0.0006203672382980585
1761467800303893200,4.306893310546875,-0.0011798692867159843,-0.00041481759399175644,0.00031573371961712837
1761467800313847300,4.316847412109375,0.0008470485918223858,0.001092249876819551,0.0020964720752090216
1761467800323801300,4.32680126953125,0.00032959639793261886,-0.0007218954269774258,0.000911099137738347
1761467800333754400,4.33675439453125,0.001183046493679285,0.0010932269506156445,0.0004389889072626829
1761467800344330200,4.347330322265625,0.0011814485769718885,-0.0007305056788027287,-0.0007999136578291655
1761467800354284300,4.3572841796875,-0.0005446985014714301,0.001371615333482623,0.00027939234860241413
1761467800364238300,4.36723828125,-0.0006706660497002304,-0.0017868936993181705,0.00033079134300351143
1761467800374192000,4.377192138671875,0.0003183090593665838,0.0001558903604745865,-0.0003337457310408354
1761467800384146200,4.387146240234375,0.0015430969651788473,-0.0011562490835785866,-0.0015843661967664957
1761467800394100200,4.397100341796875,0.00030954048270359635,-0.0016641534166410565,-0.00035843602381646633
1761467800404053200,4.40705322265625,-0.00006543262861669064,0.0007808947702869773,0.0007600914686918259
1761467800414007300,4.41700732421875,0.00004846882075071335,-0.00028961774660274386,-0.0005700988695025444
1761467800423961000,4.426961181640625,0.0002892186166718602,-0.0012552798725664616,-0.0019725195597857237
1761467800433915100,4.4369150390625,-0.00032077630748972297,-0.0009142301278188825,-0.0006497097201645374
1761467800443869400,4.446869384765625,-0.0010068066185340285,-0.0002452440676279366,-0.00012959446758031845
1761467800453822200,4.456822265625,-0.0010563243413344026,0.0003798039397224784,0.0003551084082573652
1761467800463776300,4.4667763671875,-0.0011780308559536934,0.00047860719496384263,-0.0007983066607266665
1761467800473730300,4.476730224609375,-0.00006315199425444007,-0.0008932132041081786,0.0002828922588378191
1761467800483684400,4.486684326171875,-0.0001883205841295421,-0.0003059862065128982,-0.00026305578649044037
1761467800493638400,4.496638427734375,-0.0010537472553551197,-0.0002973305236082524,0.00001113186590373516
1761467800503592200,4.50659228515625,-0.00011924406862817705,-0.0009825618471950293,-0.002313541481271386
1761467800513545200,4.516545166015625,0.0005032636108808219,0.002325019333511591,-0.00021140999160706997
1761467800523499300,4.526499267578125,0.0010012746788561344,-0.00031630374724045396,-0.00040102703496813774
1761467800533453300,4.536453369140625,-0.0005555495154112577,-0.00017469815793447196,-0.00005209539085626602
1761467800543407000,4.546406982421875,0.00022262614220380783,0.00045673735439777374,-0.000706434017047286
1761467800553361200,4.556361083984375,-0.0007310019573196769,0.00047018425539135933,0.00017846166156232357
1761467800563315200,4.566315185546875,0.0007049744599498808,-0.0009290406014770269,0.00016567856073379517
1761467800573268200,4.576268310546875,-0.002500266768038273,0.0013168816221877933,-0.0006603894289582968
1761467800583222300,4.58622216796875,0.0001711500808596611,-0.000653058581519872,0.0012008938938379288
1761467800593176000,4.596176025390625,0.0012782361591234803,0.0008015877101570368,0.0002684753853827715
1761467800603130400,4.60613037109375,-0.0013985070399940014,-0.0009252058807760477,0.0008069665636867285
1761467800613084400,4.61608447265625,0.0004729826468974352,-0.0005540827405638993,0.00032655266113579273
1761467800623038200,4.6260380859375,0.0007989535806700587,-0.0007370419334620237,-0.00013257632963359356
1761467800632991200,4.6359912109375,-0.0003318212111480534,-0.0003777453093789518,-0.00013336469419300556
1761467800642945300,4.6459453125,0.001216274336911738,0.0001000257907435298,-0.0010444321669638157
1761467800652899300,4.6558994140625,-0.00027091524680145085,-0.0008462503319606185,0.0003612665459513664
1761467800662853000,4.66585302734375,0.0010681221028789878,0.00023952045012265444,-0.00024087424390017986
1761467800672807200,4.67580712890625,-0.0008825392578728497,-0.0013698984403163195,0.00048219901509582996
1761467800682760200,4.68576025390625,0.0005819330108352005,0.0005710132536478341,-0.00019850488752126694
1761467800692714200,4.69571435546875,-0.0003521051548887044,-0.0007850131369195879,-0.0008752527646720409
1761467800702668300,4.705668212890625,-0.0017545258160680532,-0.00041936110937967896,-0.002411097986623645
1761467800712622000,4.7156220703125,-0.000010791933164000511,0.001212993636727333,-0.00021245377138257027
1761467800722576100,4.725576171875,-0.0007817770820111036,-0.00003123522037640214,-0.00002390192821621895
1761467800732530200,4.7355302734375,0.0007083257660269737,0.00028253416530787945,-0.00035484577529132366
1761467800742483200,4.745483154296875,-0.0011958343675360084,0.0004527101409621537,0.00034423405304551125
1761467800752437200,4.755437255859375,-0.00025925098452717066,0.001418455969542265,0.0001561290118843317
1761467800762391300,4.765391357421875,-0.00034793425584211946,-0.0009336479706689715,-0.0009133964776992798
1761467800772345300,4.775345458984375,-0.0003109924728050828,-0.0013642593985423446,-0.00020073656924068928
1761467800782299400,4.78529931640625,-0.00005053530912846327,0.0002980857389047742,0.0005324315279722214
1761467800792253200,4.795253173828125,-0.0006974948337301612,0.0002985788742080331,-0.0012742273975163698
1761467800802206200,4.805206298828125,-0.00004368874942883849,-0.0007986434502527118,0.0003923787735402584
1761467800812160300,4.81516015625,-0.0007731268415227532,0.00027941918233409524,-0.00036461232230067253
1761467800822114300,4.8251142578125,0.00153290422167629,0.000269831798505038,-0.0003667429555207491
1761467800832068000,4.835068115234375,-0.0006165276281535625,0.0005121866706758738,0.0007945110555738211
1761467800842022100,4.845022216796875,-0.0002617945719975978,0.0015193942235782743,-0.00034212623722851276
1761467800851976200,4.85497607421875,0.00017021497478708625,-0.0005461440305225551,-0.00021415064111351967
1761467800861929200,4.86492919921875,-0.00034910140675492585,-0.0006934168050065637,-0.00009564007632434368
1761467800871883300,4.87488330078125,0.0011122431606054306,0.000936617492698133,-0.0003527195658534765
1761467800881837000,4.884837158203125,-0.001539998920634389,0.0010133165633305907,0.000552755082026124
1761467800891791400,4.894791259765625,0.0018044025637209415,0.0008463738486170769,-0.000760010676458478
1761467800901745400,4.904745361328125,0.0002403280814178288,-0.00026789281400851905,0.0008426797576248646
1761467800911699200,4.91469921875,-0.00018019197159446776,-0.0013862226624041796,-0.0010643471032381058
1761467800921652200,4.92465234375,0.0000027671921998262405,-0.00013347175263334066,-0.0003407662734389305
1761467800931606300,4.934606201171875,0.0007990752346813679,0.0006906322669237852,-0.0009830053895711899
1761467800941560300,4.944560302734375,-0.0008049466414377093,-0.0007658504182472825,0.0013456627493724227
1761467800951514400,4.954514404296875,-0.0008080248953774571,-0.00036699610063806176,-0.0007859463803470135
1761467800961468200,4.96446826171875,-0.00017206199117936194,0.00027296150801703334,-0.000032271724194288254
1761467800971421200,4.974421142578125,0.0008321377681568265,0.0006058267899788916,0.0006137019954621792
1761467800981375200,4.984375244140625,0.0008110987255349755,-0.0002495805383659899,-0.00045848661102354527
1761467800991329300,4.994329345703125,-0.0005136397667229176,-0.0016181496903300285,-0.0011029767338186502
1761467801001283000,5.004282958984375,-0.0001591730397194624,-0.00003543295315466821,-0.0005378539208322763
1761467801011237000,5.014237060546875,-0.00014373427256941795,-0.0022162694949656725,-0.0011657914146780968
1761467801021191200,5.024191162109375,0.0012363158166408539,0.0007270561764016747,-0.0005663139745593071
1761467801031143400,5.034143310546875,0.0010848829988390207,0.000538399675861001,0.00025926902890205383
1761467801041097500,5.044097412109375,-0.00029250397346913815,-0.0003484329499769956,0.00019881525076925755
1761467801051051300,5.05405126953125,0.0005484261200763285,0.00033988847280852497,-0.0003648370038717985
1761467801061005600,5.064005615234375,-0.0005218982696533203,-0.0011381659423932433,0.00009429198689758778
1761467801070959600,5.073959716796875,0.0009870148496702313,-0.00007139578519854695,-0.0006599042098969221
1761467801080913700,5.08391357421875,-0.0016812062822282314,-0.001182200270704925,-0.00039491988718509674
1761467801090866700,5.09386669921875,0.001128961332142353,-0.0002719318144954741,0.000047963811084628105
1761467801100820500,5.103820556640625,-0.0003536204749252647,0.0000636264740023762,-0.001091070007532835
1761467801110774500,5.1137744140625,0.001458926941268146,0.0011310214176774025,0.00003251759335398674
1761467801120728600,5.123728515625,0.00220780773088336,0.00152303883805871,-0.0019142529927194118
1761467801130682400,5.133682373046875,0.000256780709605664,0.0008780045318417251,-0.00013121124356985092
1761467801140636400,5.143636474609375,-0.0010215365327894688,0.0004937103949487209,-0.0007226993329823017
1761467801150589400,5.15358935546875,-0.0004208464815746993,-0.0015191503334790468,0.000960479024797678
1761467801160543500,5.16354345703125,0.00043828925117850304,0.002252151956781745,0.00022012018598616123
1761467801170497500,5.17349755859375,0.00036194134736433625,-0.001050495426170528,-0.000686215003952384
1761467801180451300,5.183451416015625,-0.0004346101195551455,-0.0001692554069450125,-0.0010294965468347073
1761467801190405400,5.1934052734375,-0.001501445658504963,-0.001069024670869112,-0.00009178463369607925
1761467801200359700,5.203359619140625,0.00046955980360507965,0.0004431181587278843,-0.0009554477874189615
1761467801210312400,5.2133125,-0.00019648222951218486,0.0008160471334122121,0.0008724147919565439
1761467801220266500,5.2232666015625,-0.0006665301625616848,0.0009531999821774662,0.0018319516675546765
1761467801230220500,5.233220458984375,0.0003774397191591561,-0.00030102109303697944,0.0010754166869446635
1761467801240174600,5.243174560546875,0.00024614587891846895,0.00022495322627946734,-0.0003086281940340996
1761467801250128400,5.25312841796875,0.0017807651311159134,0.0003398058470338583,-0.00036910385824739933
1761467801260082400,5.26308251953125,0.0003226842964068055,-0.000711610191501677,-0.0012535394635051489
1761467801270035500,5.273035400390625,0.0017062718980014324,-0.0008075616788119078,-0.000050580594688653946
1761467801279989500,5.282989501953125,-0.0003797821409534663,0.0003602344077080488,-0.00022049015387892723
1761467801289943600,5.292943603515625,0.000060611520893871784,0.0005530142225325108,0.0007156957872211933
1761467801299897300,5.3028974609375,0.0010616937652230263,0.000204140116693452,-0.0011628980282694101
1761467801309851400,5.312851318359375,-0.00089389702770859,0.00042426364962011576,-0.0001130176242440939
1761467801319805400,5.322805419921875,0.00041211716597899795,-0.00010517274495214224,-0.0005417866632342339
1761467801329758500,5.332758544921875,0.000639541307464242,0.001641531242057681,-0.000745363300666213
1761467801339712300,5.342712158203125,-0.0007399760652333498,-0.0002224150812253356,0.0015737172216176987
1761467801349666600,5.35266650390625,-0.00231847632676363,0.00005767095717601478,-0.0008766248356550932
1761467801359620600,5.36262060546875,0.0003747782902792096,-0.0007354184053838253,0.0005660094320774078
1761467801369574700,5.37257470703125,-0.000008759030606597662,-0.00008545941091142595,0.0010020709596574306
1761467801379528400,5.382528564453125,-0.0009163643699139357,-0.001372298807837069,0.00018980680033564568
1761467801389481500,5.3924814453125,0.0007233985816128552,0.00047955167246982455,0.0011243977351114154
1761467801399435500,5.402435546875,0.001211023423820734,-0.0009367173770442605,0.0006591435521841049
1761467801409389600,5.4123896484375,0.00012992566917091608,0.0006507278885692358,0.000038070837035775185
1761467801419343400,5.42234326171875,-0.00017633783863857388,0.0005306192906573415,-0.0006903035100549459
1761467801429297400,5.43229736328125,0.0004540393128991127,0.00015171695849858224,0.0005799317732453346
1761467801439251500,5.44225146484375,0.0005842678947374225,-0.0004690658824983984,-0.00007680384442210197
1761467801449204500,5.45220458984375,-0.000343944295309484,-0.0012441040016710758,0.0009937719441950321
1761467801459158500,5.462158447265625,-0.0006962805055081844,0.0011516757076606154,0.00032159010879695415
1761467801469112300,5.4721123046875,0.0007959729991853237,0.000605988607276231,-0.0011646854691207409
1761467801479066400,5.48206640625,0.0010873228311538696,-0.0004291820805519819,-0.0012696138583123684
1761467801489020700,5.492020751953125,0.00014656351413577795,-0.0004727669002022594,-0.00037857843562960625
1761467801498973400,5.501973388671875,-0.0003519802412483841,0.0013051594141870737,-0.00042784702964127064
1761467801508927500,5.511927490234375,0.0005085327429696918,0.0006164477672427893,0.0011252505937591195
1761467801518881500,5.521881591796875,-0.0011274470016360283,-0.000615796830970794,0.0007263091392815113
1761467801528835600,5.531835693359375,-0.000033186050131917,0.0002515341911930591,0.000604280736297369
1761467801538789600,5.54178955078125,0.000588662107475102,0.0007348980288952589,0.0000865620095282793
1761467801548743400,5.551743408203125,-0.0005826171254739165,-0.0007294348906725645,-0.0016901206690818071
1761467801558696400,5.561696533203125,-0.00043907275539822876,0.00008549238555133343,-0.0011678750161081553
1761467801568650500,5.571650390625,-0.0005142635200172663,0.0010523966047912836,-0.0011010102462023497
1761467801578604500,5.5816044921875,0.0010149236768484116,-0.0004890409181825817,-0.00012576044537127018
1761467801588558300,5.591558349609375,-0.0004138558288104832,-0.000983578385785222,-0.00021933717653155327
1761467801598512400,5.601512451171875,-0.00034301576670259237,-0.00018356484360992908,0.001162310829386115
1761467801608466400,5.611466552734375,0.0010305505711585283,-0.0006279977969825268,0.00007094047032296658
1761467801618419500,5.62141943359375,0.0003434550017118454,-0.0006700757658109069,-0.000947185792028904
1761467801628373500,5.63137353515625,-0.0006199736380949616,-0.001441198168322444,-0.00046639423817396164
1761467801638327600,5.64132763671875,-0.001766198081895709,0.00034178810892626643,0.0000558516476303339
1761467801648281600,5.651281494140625,0.001698036678135395,-0.00019554136088117957,0.000980206299573183
1761467801658235600,5.661235595703125,-0.0010772435925900936,-0.0011971562635153532,-0.00022167828865349293
1761467801668189400,5.671189453125,-0.0006393168005160987,0.000940981786698103,-0.00063176522962749
1761467801678142500,5.681142578125,0.0014853532193228602,-0.0003088396624661982,-0.001289566047489643
1761467801688096500,5.691096435546875,-0.0008279815083369613,-0.00005533648072741926,-0.0000024903565645217896
1761467801698050600,5.701050537109375,-0.0016887151869013906,0.00007462577195838094,-0.0004757342394441366
1761467801708004400,5.71100439453125,0.000006493646651506424,0.000445229874458164,-0.00008095148950815201
1761467801717958400,5.72095849609375,0.0022113246377557516,0.00033577397698536515,-0.0005946753080934286
1761467801727912400,5.730912353515625,-0.0003822356811724603,-0.001611180603504181,-0.0005907535087317228
1761467801737865500,5.740865478515625,0.00016531022265553474,-0.0005648246733471751,-0.0007984801195561886
1761467801747819500,5.750819580078125,0.0008368880953639746,-0.00017728580860421062,0.0003311478067189455
1761467801757773300,5.760773193359375,-0.0012550249230116606,-0.0001373383856844157,0.0007679061964154243
1761467801767727400,5.770727294921875,-0.00041213922668248415,-0.0001535568735562265,0.00032273586839437485
1761467801777681700,5.780681640625,0.0013652545167133212,0.0008818801143206656,0.0011182221351191401
1761467801787635500,5.790635498046875,-0.0009396446985192597,-0.0010703211883082986,0.00097413151524961
1761467801797588500,5.80058837890625,-0.0002711912675295025,0.00018083187751471996,-0.000501259695738554
1761467801807542500,5.81054248046875,0.0005405147094279528,-0.0002155399415642023,0.000004120403900742531
1761467801817496600,5.82049658203125,0.0010422542691230774,0.00019432054250501096,-0.0004869664553552866
1761467801827450600,5.83045068359375,0.0011186450719833374,0.00023020256776362658,0.0002611908130347729
1761467801837404400,5.840404296875,-0.00030321659869514406,-0.00016687475726939738,-0.00017849705182015896
1761467801847358500,5.8503583984375,-0.0001930489670485258,0.0005056672380305827,-0.0008689393289387226
1761467801857311500,5.8603115234375,-0.000520884117577225,0.0005139230634085834,0.0004344116896390915
1761467801867265500,5.870265625,0.0000026212655939161777,-0.00040323263965547085,0.0008163130842149258
1761467801877219300,5.88021923828125,0.0005954409716650844,0.001268167281523347,-0.00024202722124755383
1761467801887173400,5.89017333984375,-0.0009226294932886958,-0.000017127953469753265,-0.00004235655069351196
1761467801897127400,5.90012744140625,0.0012909900397062302,-0.0014584306627511978,-0.0019169559236615896
1761467801907081500,5.91008154296875,0.000014979101251810789,-0.0003695087507367134,-0.0011455982457846403
1761467801917034500,5.920034423828125,-0.0013940994394943118,-0.0013543457025662065,-0.000040120212361216545
1761467801926988500,5.929988525390625,-0.0017232629470527172,-0.0011340491473674774,0.0002502144780009985
1761467801936942600,5.939942626953125,-0.0009405598975718021,-0.0006176622118800879,-0.0007809614762663841
1761467801946896600,5.949896728515625,-0.001612644293345511,0.00006929895607754588,-0.0005963947623968124
1761467801956850400,5.959850341796875,-0.0013327461201697588,0.0007870208355598152,-0.000595862278714776
1761467801966804500,5.969804443359375,-0.0006088003283366561,0.0006667415727861226,0.0005181794986128807
1761467801976757500,5.979757568359375,0.0004673830699175596,0.00007631879998371005,0.0003690423909574747
1761467801986711600,5.989711669921875,0.0003654047613963485,-0.0009231555741280317,0.0005083978176116943
1761467801996665600,5.99966552734375,0.0007233335636556149,0.0010590351885184646,-0.0006692518945783377
1761467802006619400,6.009619384765625,0.00021378451492637396,-0.001056430977769196,0.001632156316190958
1761467802016573400,6.019573486328125,0.0007695862441323698,0.001573706977069378,0.0004856653977185488
1761467802026527700,6.02952783203125,0.0005172345554456115,-0.000372587499441579,0.0005068464670330286
1761467802036480800,6.039480712890625,-0.0018569735111668706,-0.0016335942782461643,-0.00226763472892344
1761467802046434600,6.0494345703125,-0.00043543268111534417,0.0009843285661190748,0.0008914959616959095
1761467802056388600,6.059388671875,0.00022290070774033666,0.00008631066884845495,0.001674997853115201
1761467802066342700,6.0693427734375,-0.0010484532685950398,0.0005535378004424274,-0.0005074560176581144
1761467802076296400,6.07929638671875,0.0009049753425642848,0.00035326805664226413,0.00039242603816092014
1761467802086250500,6.08925048828125,0.001106102135963738,-0.0004233465006109327,0.0006208815611898899
1761467802096203500,6.09920361328125,-0.00003080139867961407,-0.00032800534972921014,-0.00020043738186359406
1761467802106157600,6.109157470703125,0.00006128265522420406,-0.00009827225585468113,0.0009709938894957304
1761467802116111600,6.119111572265625,-0.0012154367286711931,0.0005067979218438268,0.0010476928437128663
1761467802126065400,6.1290654296875,-0.0014653143007308245,0.000898712663911283,0.00025316374376416206
1761467802136019700,6.139019775390625,-0.000533208018168807,-0.0007031788118183613,-0.0008949250914156437
1761467802145973800,6.148973876953125,0.0012037146370857954,-0.00013685383601114154,0.0008194961119443178
1761467802155926800,6.1589267578125,0.0009328711312264204,-0.0012351414188742638,-0.0010529723949730396
1761467802165880600,6.168880615234375,0.0010043722577393055,0.00110251281876117,-0.00007033837027847767
1761467802175834600,6.178834716796875,-0.0002851303725037724,-0.0012903374154120684,0.00016801455058157444
1761467802185788700,6.18878857421875,0.0017070519970729947,-0.0013563153333961964,0.0009513224940747023
1761467802195742700,6.19874267578125,-0.0003755398793146014,0.0008229493978433311,-0.0002905095461755991
1761467802205696500,6.208696533203125,-0.00004659773549064994,-0.0003496602876111865,0.0012064360780641437
1761467802215649500,6.2186494140625,0.0005949577898718417,0.0004114711773581803,-0.0006631030701100826
1761467802225603600,6.228603515625,-0.0002471981570124626,0.0006922025349922478,-0.0003144592046737671
1761467802235557600,6.2385576171875,-0.0002820855879690498,-0.00042073254007846117,0.0010456170421093702
1761467802245511400,6.248511474609375,-0.0006731076864525676,-0.00017968463362194598,0.0002994281239807606
1761467802255465500,6.258465576171875,0.0017050951719284058,0.0007175342761911452,-0.0003863358870148659
1761467802265419800,6.268419677734375,0.0003901635645888746,0.00028989906422793865,-0.0011210301890969276
1761467802275372500,6.27837255859375,0.0000527410302311182,0.00004195878864265978,-0.0002565679606050253
1761467802285326600,6.28832666015625,0.000610949529800564,-0.0001640325936023146,-0.0013448570389300585
1761467802295280600,6.29828076171875,-0.001528101391158998,-0.00031077273888513446,0.0001664869487285614
1761467802305234700,6.308234619140625,0.00015693227760493755,0.0011986673343926668,0.0015411595813930035
1761467802315188700,6.318188720703125,-0.00028994615422561765,-0.00003996887244284153,0.0012535381829366088
1761467802325142500,6.328142578125,0.0012675980105996132,-0.001046005287207663,-0.00021699070930480957
1761467802335095600,6.338095458984375,0.00023322628112509847,-0.000792738632299006,-0.0005509511101990938
1761467802345049600,6.348049560546875,-0.000673852046020329,0.0007708999328315258,-0.000281068729236722
1761467802355003600,6.358003662109375,0.0002622490283101797,0.0012436109827831388,0.0005477070808410645
1761467802364957700,6.367957763671875,0.0007076297188177705,-0.00027976252022199333,-0.0006280431989580393
1761467802374911500,6.377911376953125,0.0003358524991199374,-0.0004483406082727015,0.0010705209570005536
1761467802384865500,6.387865478515625,-0.00004637538222596049,-0.00134278554469347,-0.001127556897699833
1761467802394818600,6.397818603515625,-0.0001640870759729296,0.0017249096417799592,-0.00013499660417437553
1761467802404772600,6.407772705078125,0.00008227367652580142,-0.001320241834037006,-0.00013567274436354637
1761467802414726400,6.417726318359375,-0.00010095181642100215,-0.0002195573615608737,0.0004920344799757004
1761467802424680700,6.4276806640625,-0.0009958789451047778,0.0003361209237482399,-0.0010459392797201872
1761467802434634800,6.437634765625,0.000660607242025435,-0.0010236890520900488,0.0009176090825349092
1761467802444588500,6.447588623046875,0.00042448611930012703,0.0011986099416390061,0.0005008669104427099
1761467802454541600,6.45754150390625,-0.0012857959372922778,-0.0004408320819493383,0.0003775625955313444
1761467802464495600,6.46749560546875,-0.00015252424054779112,0.0004622553533408791,0.0001686052419245243
1761467802474449700,6.47744970703125,0.0015074240509420633,-0.000022173626348376274,0.00036408123560249805
1761467802484403700,6.48740380859375,-0.0009660483337938786,0.0003707140567712486,0.0002518799155950546
1761467802494357500,6.497357421875,-0.0006022605230100453,0.0011150676291435957,-0.0012773070484399796
1761467802504311600,6.5073115234375,0.0008420767262578011,-0.0001465638924855739,-0.00037942593917250633
1761467802514264600,6.5172646484375,-0.00016220129327848554,-0.0012022409355267882,0.0009838462574407458
1761467802524218600,6.527218505859375,-0.00009366709855385125,0.00010249839397147298,0.00009937118738889694
1761467802534172400,6.53717236328125,-0.00009659657371230423,-0.0008173574460670352,-0.0009999815374612808
1761467802544126500,6.54712646484375,0.00085125130135566,-0.0008346499525941908,0.0009078830480575562
1761467802554080800,6.557080810546875,-0.0008651560638099909,0.0017893626354634762,0.00007777591235935688
1761467802564034800,6.567034912109375,0.000509051198605448,-0.0009968895465135574,0.0006443485617637634
1761467802573987800,6.57698779296875,0.0011942824348807335,0.0005805008113384247,0.0003434114623814821
1761467802583941600,6.586941650390625,-0.00038334037526510656,0.00024020730052143335,0.00034835957922041416
1761467802593895700,6.596895751953125,0.0017045780550688505,-0.0006032158271409571,-0.0014021361712366343
1761467802603849700,6.606849609375,-0.0015167302917689085,-0.0011751098791137338,0.0008469210006296635
1761467802613803500,6.616803466796875,0.001745642046444118,0.00019215705106034875,0.0002698139287531376
1761467802623757600,6.626757568359375,0.0007598960655741394,0.00030159528250806034,0.0009966751094907522
1761467802633710600,6.636710693359375,-0.0008292121347039938,0.00017003508401103318,-0.0004989563021808863
1761467802643664600,6.64666455078125,-0.0005569419008679688,-0.001087184064090252,-0.00044352072291076183
1761467802653618700,6.65661865234375,-0.000542560825124383,0.0013623915147036314,0.0006454456597566605
1761467802663572500,6.666572509765625,0.0006762869888916612,0.0012299830559641123,-0.0007218064274638891
1761467802673526500,6.676526611328125,-0.0005434408085420728,-0.000443014781922102,0.00029924954287707806
1761467802683480600,6.68648046875,-0.0006198473274707794,-0.0005408721044659615,0.0003590146079659462
1761467802693434600,6.6964345703125,0.0012816496891900897,-0.0002678980818018317,0.00043358304537832737
1761467802703387400,6.706387451171875,-0.0005054735811427236,0.0004627025336958468,-0.0011642719618976116
1761467802713341700,6.716341796875,-0.000985907856374979,-0.0009381201816722751,-0.0002044688444584608
1761467802723295700,6.726295654296875,-0.001420514890924096,-0.0011328344698995352,-0.0007219482213258743
1761467802733249800,6.736249755859375,-0.0001800144964363426,0.0002823693794198334,0.0013715627137571573
1761467802743203600,6.74620361328125,0.0006797515670768917,0.0006267870194278657,-0.00017040222883224487
1761467802753157600,6.75615771484375,0.00030903948936611414,0.00016286439495161176,0.0004953881725668907
1761467802763110700,6.766110595703125,0.0004361323663033545,0.00017875985940918326,0.00021950271911919117
1761467802773064700,6.776064697265625,0.00036848813761025667,0.00012309977319091558,-0.00003589433617889881
1761467802783018500,6.7860185546875,0.000413688481785357,0.0002512510400265455,0.00027775135822594166
1761467802792972500,6.79597265625,0.0006914562545716763,0.00032954796915873885,-0.00034223240800201893
1761467802802926600,6.805926513671875,-0.0012491981033235788,0.00017900922102853656,-0.0006023126188665628
1761467802812880600,6.815880615234375,0.000934327719733119,0.0012485346524044871,0.00007093441672623158
1761467802822833700,6.825833740234375,-0.0010061507346108556,0.00011897188960574567,-0.0006647324189543724
1761467802832787500,6.835787353515625,-0.000552081735804677,0.00032563318382017314,0.0009803022257983685
1761467802842741800,6.84574169921875,-0.000049394904635846615,0.0008022679830901325,0.0007861212361603975
1761467802852695800,6.85569580078125,-0.0018462296575307846,0.0005849539884366095,-0.0011169735807925463
1761467802862649600,6.865649658203125,0.0009545916691422462,0.0001472251897212118,-0.00018118391744792461
1761467802872603600,6.875603759765625,-0.0008888484444469213,0.0005461667897179723,0.0014771665446460247
1761467802882556700,6.885556640625,-0.00079219980398193,0.0009497195715084672,-0.0003340099938213825
1761467802892510700,6.8955107421875,0.0005787955014966428,-0.0001112838217522949,0.0006060858722776175
1761467802902464500,6.905464599609375,0.00046214426402002573,0.0016837718430906534,-0.0017540152184665203
1761467802912418600,6.91541845703125,0.0010384523775428534,-0.0007426341762766242,0.0005456244107335806
1761467802922372600,6.92537255859375,0.0016550938598811626,0.0007024446385912597,-0.0009454835671931505
1761467802932326700,6.93532666015625,0.00011605309555307031,-0.00020329646940808743,-0.0009345647413283587
1761467802942279700,6.94527978515625,0.0016075060702860355,-0.0007332491222769022,0.00038845441304147243
1761467802952233500,6.9552333984375,0.0005896459915675223,-0.0006232605664990842,0.0007935210596770048
1761467802962187500,6.9651875,0.0007029303815215826,-0.00048351011355407536,0.0015515873674303293
1761467802972141600,6.9751416015625,0.00022862141486257315,-0.0019019097089767456,0.0006351936608552933
1761467802982095600,6.985095703125,0.00037157314363867044,-0.0014921764377504587,-0.0007534758187830448
1761467802992049700,6.995049560546875,-0.00010593162733130157,-0.00023676242562942207,-0.00047650723718106747
1761467803002002700,7.005002685546875,-0.00035112290061078966,-0.00039790658047422767,-0.00004730420187115669
1761467803011956700,7.014956787109375,0.000393230642657727,-0.00019284318841528147,0.0000600211787968874
1761467803021910800,7.024910888671875,0.0009389350889250636,0.0011769244447350502,-0.00013914331793785095
1761467803031864600,7.034864501953125,-0.0007535037584602833,0.0010083462111651897,0.00016951723955571651
1761467803041818600,7.044818603515625,0.0008196115959435701,0.00024048896739259362,0.0004811554681509733
1761467803051772700,7.054772705078125,-0.00014977907994762063,0.0006458220886997879,-0.00030900444835424423
1761467803061725700,7.0647255859375,0.0019351693335920572,0.0017004632391035557,0.0005568063352257013
1761467803071679500,7.074679443359375,-0.0008030928438529372,0.0002343931409996003,-0.000435487600043416
1761467803081633500,7.084633544921875,-0.0008783618686720729,-0.002152835950255394,0.00010216422379016876
1761467803091587600,7.094587646484375,-0.00007861462654545903,0.00033429014729335904,-0.0001606896985322237
1761467803101541600,7.104541748046875,-0.0008505529258400202,0.0004941212246194482,-0.0007801312021911144
1761467803111495400,7.114495361328125,0.0008117922116070986,0.00013832288095727563,0.00028699752874672413
1761467803121449500,7.124449462890625,0.0016630154568701982,0.0004899222403764725,0.0008736171294003725
1761467803131402500,7.134402587890625,-0.000228627905016765,-0.0004163515113759786,0.0005766747053712606
1761467803141356500,7.1443564453125,-0.00014562014257535338,-0.0005203935434110463,-0.0013138826470822096
1761467803151310300,7.154310302734375,-0.0005504206055775285,-0.0011118815746158361,-0.0005479573737829924
1761467803161264400,7.164264404296875,0.00017870153533294797,-0.0002103735168930143,-0.0010963636450469494
1761467803171218700,7.17421875,-0.00152625422924757,-0.000541138113476336,-0.00014241947792470455
1761467803181172700,7.1841728515625,-0.0004939212230965495,0.0009272010065615177,-0.0004155414644628763
1761467803191125500,7.19412548828125,0.0008150224457494915,0.0016310744686052203,0.0010483980877324939
1761467803201079600,7.20407958984375,-0.0011723495554178953,-0.0007208277238532901,0.001278246403671801
1761467803211033600,7.21403369140625,0.0003302059485577047,0.0000626743130851537,0.00042283907532691956
1761467803220987600,7.223987548828125,-0.00015852059004828334,-0.0006401552818715572,0.0011360431089997292
1761467803230941400,7.23394140625,0.0008755848975852132,0.00031858275178819895,-0.00029141129925847054
1761467803240895500,7.2438955078125,-0.0008281753398478031,-0.00004725737380795181,-0.0002954332157969475
1761467803250848500,7.2538486328125,0.0002219090238213539,-0.0007018623873591423,0.0013964730314910412
1761467803260802600,7.263802490234375,0.0005762336659245193,-0.0006517586880363524,-0.00048326607793569565
1761467803270756600,7.273756591796875,-0.00012923774193041027,0.00008061059634201229,-0.00037966901436448097
1761467803280710400,7.28371044921875,0.00017540535191074014,-0.0002139415591955185,0.0004697120748460293
1761467803290664400,7.29366455078125,0.0008704903884790838,0.0003921938769053668,0.00040659517981112003
1761467803300618500,7.303618408203125,-0.00040300830733031034,0.0005031190230511129,0.0015656917821615934
1761467803310572500,7.313572509765625,-0.0021764072589576244,-0.000293965102173388,-0.0003421967849135399
1761467803320525300,7.323525390625,-0.002794925356283784,0.000239240238443017,0.001342772040516138
1761467803330479600,7.333479736328125,0.0001997991930693388,0.0016469871625304222,0.0007259838748723269
1761467803340433700,7.34343359375,0.00044431647984310985,-0.0012206905521452427,-0.00033816974610090256
1761467803350387500,7.353387451171875,0.0008025116403587162,0.0008075730293057859,0.0015372282359749079
1761467803360341500,7.363341552734375,-0.0009952782420441508,0.0002228574303444475,0.00022400845773518085
1761467803370295600,7.373295654296875,-0.0006258977809920907,0.0002665332576725632,0.00020802952349185944
1761467803380248600,7.38324853515625,-0.0015778110828250647,0.000020174978999421,-0.00020156451500952244
1761467803390202600,7.39320263671875,0.0005684304051101208,-0.0008626629132777452,0.000618422869592905
1761467803400156400,7.403156494140625,0.0004213468637317419,0.0010653450153768063,-0.00005949544720351696
1761467803410110500,7.4131103515625,-0.00013179169036448002,0.0011724040377885103,-0.00003685872070491314
1761467803420064500,7.423064453125,-0.002075248397886753,0.00000706510036252439,-0.001159019535407424
1761467803430018300,7.433018310546875,0.0010001698974519968,0.00033916125539690256,-0.0006857758853584528
1761467803439971300,7.442971435546875,0.00027016649255529046,-0.00023833749582991004,-0.0003308455925434828
1761467803449925400,7.45292529296875,-0.0011221340391784906,0.00042984960600733757,0.00055865035392344
1761467803459879700,7.462879638671875,0.00029582675779238343,0.00012231391156092286,0.000261903740465641
1761467803469833700,7.472833740234375,-0.00009938632138073444,-0.0011879613157361746,0.000034736236557364464
1761467803479787500,7.48278759765625,-0.0007955557084642351,0.0004860333865508437,0.0010338553693145514
1761467803489741600,7.492741455078125,0.000156790716573596,-0.000037277728551998734,-0.0010727050248533487
1761467803499694600,7.502694580078125,-0.00004753348184749484,0.0007668687030673027,-0.0002967484761029482
1761467803509648600,7.512648681640625,-0.002129592699930072,0.00016632585902698338,-0.0008655996061861515
1761467803519602400,7.5226025390625,0.0010284660384058952,0.00024146540090441704,0.00026314123533666134
1761467803529556500,7.532556396484375,0.00150144356302917,-0.0007542904932051897,0.000494037289172411
1761467803539510500,7.542510498046875,0.00026805343804880977,-0.00019792516832239926,-0.00022236723452806473
1761467803549464600,7.552464599609375,0.00042677781311795115,-0.00023813890584278852,0.000767529709264636
1761467803559417600,7.56241748046875,0.0005984983872622252,0.0016793252434581518,-0.00013391580432653427
1761467803569371400,7.572371337890625,0.0007590869208797812,-0.0006634574383497238,0.0025215221103280783
1761467803579325400,7.582325439453125,-0.0005163107998669147,0.00005071097984910011,-0.002021788153797388
1761467803589279500,7.592279541015625,0.00004082248779013753,0.000002507789758965373,0.00022671883925795555
1761467803599233500,7.602233642578125,-0.0010224684374406934,0.0009617593605071306,0.00016128015704452991
1761467803609187600,7.6121875,-0.0003950276877731085,-0.0008894038619473577,-0.0002720160409808159
1761467803619140600,7.622140625,-0.0005864911945536733,-0.0005344799137674272,0.0007992340251803398
1761467803629094700,7.6320947265625,0.0006737165967933834,-0.00034885757486335933,-0.0008708343375474215
1761467803639048700,7.642048583984375,0.0007479249034076929,-0.0007808071095496416,0.0006683687679469585
1761467803649002500,7.65200244140625,-0.00006220868090167642,0.00018432244542054832,0.0014063306152820587
1761467803658956500,7.66195654296875,0.0009449592907913029,-0.00009214042802341282,0.0007987122517079115
1761467803668910600,7.67191064453125,-0.0006050004158169031,-0.0002468700986355543,-0.0005941209383308887
1761467803678864400,7.681864501953125,0.0001895324676297605,-0.000042795290937647223,-0.0011817757040262222
1761467803688817400,7.6918173828125,-0.0005684031639248133,-0.000048387941205874085,-0.00024194619618356228
1761467803698771500,7.701771484375,0.0016493714647367597,-0.0008633437682874501,-0.001431106822565198
1761467803708725500,7.7117255859375,0.0014011649182066321,0.00006370258051902056,-0.0007309620268642902
1761467803718679600,7.721679443359375,0.0016324680764228106,0.00018576363800093532,0.0009642888326197863
1761467803728633600,7.731633544921875,0.0016577679198235273,0.0005926946178078651,0.0010039698099717498
1761467803738587600,7.741587646484375,-0.0013915484305471182,0.0006816394161432981,0.00042023533023893833
1761467803748540700,7.751540771484375,-0.00023600284475833178,0.0006318383384495974,-0.001475935336202383
1761467803758494700,7.76149462890625,-0.0008774343295954168,0.000323792512062937,0.0026459726504981518
1761467803768448500,7.771448486328125,-0.0020960967522114515,0.0013456473825499415,-0.0002451550681143999
1761467803778402600,7.781402587890625,-0.0002804344112519175,0.0003604229132179171,-0.00021012639626860619
1761467803788356600,7.791356689453125,-0.0014572853688150644,0.001605184399522841,-0.0000753703061491251
1761467803798310400,7.801310302734375,0.001071013044565916,-0.00039747991831973195,-0.0013490929268300533
1761467803808264400,7.811264404296875,0.0010318646673113108,0.0010068048723042011,0.00020352983847260475
1761467803818217500,7.821217529296875,-0.0003715526545420289,-0.00037150984280742705,-0.00009072478860616684
1761467803828171500,7.831171630859375,0.0008044993155635893,0.000742756761610508,0.0008416480850428343
1761467803838125600,7.84112548828125,0.0006074500852264464,0.0011443906696513295,0.0010512374574318528
1761467803848079400,7.851079345703125,-0.00035315207787789404,-0.0007994505576789379,-0.0002710220869630575
1761467803858033400,7.861033447265625,0.0010799026349559426,-0.0012979472521692514,-0.0003499917220324278
1761467803867987700,7.87098779296875,-0.00007084931712597609,-0.0004944714601151645,-0.0004386750515550375
1761467803877940500,7.8809404296875,0.0002672423142939806,0.0009221701766364276,0.0011816730257123709
1761467803887894500,7.89089453125,-0.00042784272227436304,0.0004513232270255685,0.00030123209580779076
1761467803897848600,7.9008486328125,0.0012058175634592772,0.0003824483137577772,0.00016781408339738846
1761467803907802600,7.910802734375,-0.00255216914229095,-0.0018479491118341684,-0.00023112748749554157
1761467803917756700,7.920756591796875,0.0004294535028748214,-0.0005856325733475387,-0.0007289987988770008
1761467803927710500,7.93071044921875,-0.00023420617799274623,0.00006870611105114222,0.00023346766829490662
1761467803937663500,7.94066357421875,0.000012358243111521006,-0.0011847226414829493,-0.000014226650819182396
1761467803947617500,7.950617431640625,-0.000020398641936481,-0.00040894380072131753,-0.0017226443160325289
1761467803957571600,7.960571533203125,0.0011074608191847801,-0.0004827533266507089,-0.0008720357436686754
1761467803967525400,7.970525390625,0.0007447382085956633,-0.0013493458973243833,0.0011578256962820888
1761467803977479400,7.9804794921875,0.000029879389330744743,0.0012330426834523678,-0.000792146660387516
1761467803987433500,7.99043359375,0.001848285784944892,-0.0004380908503662795,0.00009734928607940674
1761467803998008600,8.001008544921875,-0.00009149365359917283,-0.00030141224851831794,0.00023610657081007957
1761467804007962400,8.01096240234375,0.001476043020375073,0.0007721079746261239,0.00004515796899795532
1761467804017916400,8.02091650390625,-0.0004841327609028667,-0.0015582875348627567,0.000084681436419487
1761467804027870500,8.030870361328125,0.001278347335755825,0.00012989016249775887,-0.001608023652806878
1761467804037824500,8.040824462890624,-0.0010782689787447453,-0.0004717863048426807,-0.00045674596913158894
1761467804047778300,8.0507783203125,0.00152603629976511,-0.0007468908443115652,0.0005462006665766239
1761467804057732600,8.060732666015625,-0.0003755358629859984,-0.0005208589136600494,0.0004080589860677719
1761467804067685400,8.070685302734375,0.00008119625272229314,-0.000754684442654252,0.0003542632330209017
1761467804077639700,8.0806396484375,-0.0004175791109446436,-0.0010078026680275798,0.0024267793633043766
1761467804087593500,8.090593505859376,-0.000252196827204898,0.00010912708239629865,-0.0002824545372277498
1761467804097547500,8.100547607421875,-0.001122727058827877,0.0000026138732209801674,0.00010566692799329758
1761467804107501600,8.11050146484375,0.0005516022210940719,-0.0003864739555865526,-0.0013159285299479961
1761467804117455400,8.120455322265625,0.0005253110430203378,0.00025743211153894663,0.0004335525445640087
1761467804127408400,8.130408447265625,0.0002986760810017586,-0.000628068926744163,-0.00012917350977659225
1761467804137362400,8.140362548828126,-0.00019180148956365883,0.0013854049611836672,-0.0006851307116448879
1761467804147316500,8.15031640625,-0.001077302498742938,-0.0016591206658631563,-0.0012622377835214138
1761467804157270500,8.1602705078125,0.001051032217219472,-0.00011199302389286458,0.00004446995444595814
1761467804167224300,8.170224365234375,0.0006102790939621627,0.0009008071501739323,-0.00015366915613412857
1761467804177178400,8.180178466796875,-0.0015387171879410744,-0.0003960591566283256,0.0005024264100939035
1761467804187132700,8.190132568359376,-0.001373867504298687,-0.0009404092561453581,0.0009879207937046885
1761467804197085400,8.20008544921875,0.0006659333594143391,-0.001405389979481697,-0.0006555153522640467
1761467804207039500,8.21003955078125,-0.0001055844477377832,-0.0021047359332442284,-0.0006208941340446472
1761467804216993500,8.21999365234375,0.0004813217092305422,0.00010751368245109916,-0.0019406762439757586
1761467804226947600,8.229947509765625,0.0001558834919705987,-0.001243507955223322,0.0016205025603994727
1761467804236901600,8.239901611328126,0.000017610262148082256,-0.0002040005783783272,-0.00036030751653015614
1761467804246855400,8.24985546875,-0.0008947887108661234,0.0008825691184028983,0.0014184177853167057
1761467804256808400,8.259808349609376,-0.00002476549707353115,0.00025155418552458286,0.0008410625159740448
1761467804266762500,8.269762451171875,0.0014580824645236135,-0.00011596202966757119,-0.0001384480856359005
1761467804276716500,8.279716552734374,0.001118985703215003,-0.0006285677663981915,0.0010475357994437218
1761467804286670300,8.28967041015625,0.0003557237214408815,0.0006454885588027537,-0.0005855145864188671
1761467804296624400,8.299624267578125,0.00033925584284588695,0.0018435250967741013,0.0022175139747560024
1761467804306578400,8.309578369140626,0.0007163595291785896,-0.00045078800758346915,0.001957589527592063
1761467804316532500,8.319532470703125,-0.0003709589072968811,-0.0002819530782289803,0.0011496348306536674
1761467804326485500,8.329485595703124,-0.0004306137270759791,0.000676784897223115,0.00018503796309232712
1761467804336439300,8.339439208984375,0.00026720372261479497,-0.0008988812332972884,0.000701862620189786
1761467804347015400,8.350015380859375,-0.00004119036020711064,-0.00006611074786633253,0.0006270278245210648
1761467804356969500,8.359969482421874,-0.0011769415577873588,0.00039137364365160465,0.0007166697178035975
1761467804366923500,8.369923583984376,-0.0013218175154179335,0.001463295891880989,-0.0011922840494662523
1761467804376877600,8.379877685546875,-0.000057932338677346706,-0.0003833931405097246,-0.001062676776200533
1761467804386831600,8.38983154296875,0.0003870818763971329,-0.001542134559713304,0.0005325567908585072
1761467804396785400,8.399785400390625,0.0012976890429854393,0.00024745590053498745,0.0002313782460987568
1761467804406738400,8.409738525390624,-0.0006347007001750171,0.0000067061628215014935,-0.0002237558364868164
1761467804416692500,8.4196923828125,-0.0008919693063944578,0.0003108278615400195,-0.00033461814746260643
1761467804426646500,8.429646484375,-0.0007244564476422966,-0.00004097571945749223,-0.0006262343376874924
1761467804436600300,8.439600341796876,-0.00016770238289609551,0.0017123348079621792,0.00017708097584545612
1761467804446554400,8.449554443359375,0.0003622666699811816,0.0004995312774553895,0.00028866762295365334
1761467804456508400,8.45950830078125,0.0014684200286865234,-0.002155739814043045,0.00032343389466404915
1761467804466462500,8.46946240234375,-0.0015358920209109783,-0.0010159069206565619,-0.00011092773638665676
1761467804476415500,8.47941552734375,0.0007383652264252305,0.00014511466724798083,-0.0009021707810461521
1761467804486369300,8.489369384765626,-0.0009098651353269815,0.00009265041444450617,-0.0008321295026689768
1761467804496323600,8.499323486328125,0.0006770996260456741,0.0004940335056744516,-0.00012760795652866364
1761467804506277600,8.509277587890624,0.00006430619396269321,-0.0009976029396057129,-0.0006312117911875248
1761467804516231400,8.5192314453125,-0.0014834357425570488,0.024355212226510048,0.022307848557829857
1761467804526185500,8.529185546875,-0.00012016354594379663,-0.015332545153796673,-0.012665847316384315
1761467804536139500,8.539139404296876,0.0007509988499805331,0.011552802287042141,0.0117209292948246
1761467804546092500,8.549092529296875,0.00032595836091786623,0.0011907090665772557,0.0017226233612746
1761467804556046600,8.559046630859376,0.0010605606948956847,0.002785641700029373,0.0007470706477761269
1761467804566000400,8.56900048828125,-0.00003612902946770191,0.0012039901921525598,0.002776931971311569
1761467804575954400,8.578954345703124,0.00026754802092909813,0.000025911867851391435,-0.000361759914085269
1761467804585908500,8.588908447265625,0.0008718192111700773,0.002221954520791769,0.0010526450350880623
1761467804595862300,8.5988623046875,-0.00027999308076687157,-0.006776997819542885,-0.007341234944760799
1761467804605815300,8.608815185546876,0.0005597015842795372,-0.005507202818989754,-0.0051691606640815735
1761467804615769300,8.618769287109375,0.0013671581400558352,-0.008131087757647038,-0.008482279255986214
1761467804625723600,8.6287236328125,0.00014902831753715873,0.0065245539881289005,0.004433519206941128
