time,seconds_elapsed,z,y,x
1761467835668766500,0.065766357421875,-0.0073036010116338725,0.0251322127668187,-0.0066038050120929255
1761467835678720500,0.075720458984375,-0.004011573728919029,0.015087587685044854,-0.014209124350082128
1761467835688674800,0.0856748046875,-0.012542086187005043,0.006148165632504969,-0.01658130597467534
1761467835698628600,0.095628662109375,-0.008202011156082153,0.0071263264822773635,-0.011753977149771526
1761467835708582700,0.105582763671875,-0.011197101318836212,0.0038497707633301614,-0.013887710375990717
1761467835718536700,0.11553662109375,-0.00940203459560871,0.002293956156075001,-0.01752899862094782
1761467835728490500,0.125490478515625,-0.020470541098713872,0.007621087729278952,-0.01815410824934952
1761467835738445600,0.135445556640625,-0.018076339438557625,0.004860153382271528,-0.017201036175061017
1761467835748399600,0.145399658203125,-0.0007113631397485733,0.008896715421974658,-0.014881762914638965
1761467835758353400,0.155353515625,0.0015355390042066574,0.000378751918207854,-0.030126906648417932
1761467835768307700,0.1653076171875,-0.0019055413603782652,0.0010637933066114783,-0.023725104181561617
1761467835778261800,0.17526171875,-0.00549684385061264,0.0013681100154295564,-0.007252382281050086
1761467835788215600,0.185215576171875,-0.0020569325298070906,0.012909494727291165,-0.015632170289987698
1761467835798169600,0.195169677734375,0.012456161469221114,0.007706628854572773,-0.023000488834595306
1761467835808124400,0.20512451171875,-0.012233458629250526,0.007193217706028371,-0.02709438881841488
1761467835818078500,0.215078369140625,-0.0025058453410863875,0.009359949019551277,-0.025449178894655776
1761467835828032500,0.225032470703125,-0.008190905240178108,0.00523963595284149,-0.025638993245176968
1761467835837986600,0.234986572265625,-0.0028039515048265454,0.013836930036824195,-0.0191392650954891
1761467835847940600,0.244940673828125,-0.014626491245627402,0.007116133881825954,-0.018398082206211985
1761467835857894700,0.254894775390625,-0.019865560942888258,0.002812061746045947,-0.019640209488105027
1761467835867848700,0.2648486328125,-0.0077425769507884976,0.0073079118605703115,-0.025483610887220128
1761467835877803500,0.274803466796875,-0.013277414724230765,-0.005828815751336515,-0.009464487106259911
1761467835887757600,0.284757568359375,-0.005496259328722953,0.013559446536004542,-0.014058810892887413
1761467835897711600,0.294711669921875,-0.010432546687126159,0.013463073489442466,-0.008880969863571226
1761467835907665400,0.30466552734375,-0.010284078127145766,0.001514386618323624,-0.017581906985118984
1761467835917619500,0.314619384765625,-0.007141688448190689,0.005350329785700887,-0.018645325832394883
1761467835927573800,0.32457373046875,-0.01731763002574444,0.00623721388913691,-0.0135800874652341
1761467835937527600,0.334527587890625,-0.011183072793483734,0.012474117251019923,-0.020120293755782767
1761467835947482600,0.344482666015625,-0.008939677780866623,-0.0021971081854775545,-0.03024073315327987
1761467835957436700,0.354436767578125,0.0012368483185768127,0.00176015980662778,-0.017896407161233946
1761467835967390500,0.364390380859375,-0.0042968204110860825,-0.0021094116357155144,-0.013810471288161352
1761467835977344500,0.374344482421875,-0.0016010054558515548,0.019790376814827322,-0.021437340304255485
1761467835987298600,0.384298583984375,-0.010579261681437491,-0.004166106703504919,-0.012696482164273038
1761467835997252400,0.39425244140625,-0.006238602128624916,0.009680741939134895,-0.016188333734869956
1761467836007206700,0.40420654296875,-0.012972878819704055,0.010265976214874534,-0.014563435946777462
1761467836017161700,0.41416162109375,0.008873626807332039,0.006346081091091037,-0.01547384705627337
1761467836027115500,0.424115478515625,-0.008186229065060615,0.002432542642857879,-0.01931405540681444
1761467836037069600,0.434069580078125,-0.017763035705685614,0.0070466488421894605,-0.023087564329849555
1761467836047023600,0.444023681640625,-0.002055178964138031,0.01673734591975808,-0.015671799047477543
1761467836056976600,0.4539765625,-0.006693944680690765,0.0032236016890034077,-0.01324800596665591
1761467836066930400,0.463930419921875,-0.006844166806340217,0.006668444913253187,0.002217931777797639
1761467836076885500,0.473885498046875,-0.00938859059214592,0.003191178990434855,-0.01843755570007488
1761467836086839600,0.483839599609375,0.0018365677773952483,-0.0006572400660254061,-0.008746137103298678
1761467836096793300,0.49379345703125,-0.011329787787795066,0.007767948854062706,-0.008549746881518513
1761467836106747400,0.503747314453125,0.0031827216893434524,0.0018304668301716445,-0.014682157822465524
1761467836116701400,0.513701416015625,-0.02165712053477764,-0.0008798333081416785,-0.011614175953436643
1761467836126655200,0.5236552734375,-0.004897708913683891,0.008969451864622533,-0.011535384229337796
1761467836136609500,0.533609619140625,-0.0083393738001585,-0.005103752879798412,-0.006405501394439488
1761467836146564600,0.543564697265625,0.001689268261194229,-0.0018865443989634512,-0.020910485152248293
1761467836156518400,0.553518310546875,-0.010579846203327178,0.006854669934045523,-0.012679448831081389
1761467836166472400,0.563472412109375,-0.002201309436559677,0.012852741305064409,-0.007992003400903195
1761467836176426500,0.573426513671875,-0.002949497455358505,0.01749061197247356,-0.00800335591197945
1761467836186380300,0.58338037109375,-0.007139934882521629,-0.0009085662122815846,-0.0122908422391396
1761467836196334300,0.593334228515625,-0.013871873486042022,-0.011746752824541181,0.004501887129666283
1761467836206288600,0.60328857421875,-0.011924831071496009,0.0016390359112992883,-0.01465652105771005
1761467836216243500,0.613243408203125,-0.01132744970023632,0.008551299517787993,-0.015772711271839216
1761467836226197500,0.623197509765625,0.0063280339777469635,-0.0048867673945613204,-0.018200568606425077
1761467836236151600,0.633151611328125,-0.005941665008664131,-0.007465038651041686,-0.0029076584744732823
1761467836246105300,0.643105224609375,-0.015665186643600462,0.015635960549116135,-0.0067112246090546245
1761467836256059400,0.653059326171875,0.009028525108098984,0.002165726666525006,-0.012051087799668311
1761467836266013400,0.663013427734375,-0.007730886512994766,-0.006687368809431791,-0.005967411371273919
1761467836275968500,0.672968505859375,-0.00758300247490406,-0.0018050949268974363,-0.007830401364713907
1761467836285922600,0.682922607421875,-0.016112930411100387,-0.0024204320799559352,-0.010586632137140258
1761467836295876600,0.692876708984375,-0.022696400454640386,0.01385039230659604,-0.014591027206601574
1761467836305830400,0.702830322265625,-0.004442366361618042,0.0031123598668724296,-0.007573704923596233
1761467836315784400,0.712784423828125,-0.011029928058385848,-0.012912618266139179,-0.004725768146570772
1761467836325738500,0.722738525390625,0.005430792877078056,-0.005619282920192927,-0.008460607293341308
1761467836335692300,0.7326923828125,-0.01103109710216522,0.007037479155045002,-0.000865686051780358
1761467836345647600,0.742647705078125,-0.011480594435334205,0.0026871201921254396,-0.017503444054583088
1761467836355601700,0.7526015625,-0.007291910573840141,-0.00041930312430486083,-0.0038448845256585625
1761467836365555500,0.762555419921875,-0.005498012894392014,0.012925496014021336,-0.002704911577142775
1761467836375509500,0.772509521484375,-0.011181903749704361,0.001894124917220324,-0.011459670378314331
1761467836385463600,0.782463623046875,-0.013572013756632804,0.004700268379133194,-0.023070129137858747
1761467836395417300,0.792417236328125,-0.004745733222365379,0.0016476393428631127,-0.00674899933617562
1761467836405372400,0.802372314453125,-0.006094809743762016,-0.0014153466906398533,-0.030370113420300184
1761467836415326500,0.812326416015625,-0.008039514070749283,0.0015601254561915993,-0.01634313157093711
1761467836425280500,0.822280517578125,-0.0141734867811203,-0.0011870178274810312,-0.013559683998022227
1761467836435234600,0.832234619140625,0.006027589726448059,0.0034357466023415325,-0.019522090400615706
1761467836445188600,0.842188720703125,-0.009831658184528351,0.00452924092747271,-0.007206241584382951
1761467836455142400,0.852142333984375,-0.013421791630983351,0.005198536757472902,-0.004591711704432964
1761467836465096400,0.862096435546875,-0.02255026998221874,0.00037635903172194955,-0.011264878458576277
1761467836475051500,0.872051513671875,-0.027189035698771475,-0.0011518734488636254,-0.020895698575070128
1761467836485005300,0.88200537109375,-0.0152191964417696,-0.0002946538313291967,-0.016054688284685835
1761467836494959400,0.89195947265625,-0.000855155524611473,-0.0029499723793938756,-0.016038431269628926
1761467836504913700,0.90191357421875,-0.016568272963166236,0.01189903904311359,-0.01085798729127273
1761467836514867500,0.911867431640625,-0.00938683702647686,0.013686872307956217,-0.013713586784945801
1761467836524821500,0.921821533203125,-0.002800444373488426,-0.001366575645469129,0.0009295176687650382
1761467836534775600,0.931775634765625,-0.0033966567009687423,-0.0017592099585570394,0.0009137812435161322
1761467836544730400,0.94173046875,-0.007587094128131866,-0.002938007946964353,-0.0014075378435198216
1761467836554684400,0.951684326171875,-0.01357435184419155,0.009029219227842986,-0.008869352491013706
1761467836564638500,0.961638427734375,-0.011478840869665146,0.007650642617326229,-0.013283871864480898
1761467836574592300,0.97159228515625,-0.007288987964391708,-0.002235394369252026,-0.016137580795167014
1761467836584546600,0.981546630859375,-0.026291210076212882,-0.003954546312056482,-0.005962534266756847
1761467836594500600,0.99150048828125,-0.0035457097828388213,0.008137750280834735,-0.018054922191193326
1761467836604455400,1.001455322265625,-0.014168810606002807,0.0031556327530182894,-0.014615047403005883
1761467836614409500,1.011409423828125,-0.0002513444125652313,0.007006919619999825,-0.000740497902687639
1761467836624363500,1.021363525390625,0.0043874213039875026,0.0040214192694984375,-0.004306382823875174
1761467836634317300,1.0313173828125,-0.007730886512994766,-0.0005910794946365058,-0.0012167097128462047
1761467836644271400,1.041271240234375,-0.010873276191949844,0.0014489932319149373,-0.0030303350060712545
1761467836654225400,1.051225341796875,-0.0051876317709684365,-0.0025721520429477095,-0.01676747619654052
1761467836664179500,1.061179443359375,-0.003989946419000625,0.00011617372557520865,-0.010825436728540807
1761467836674134500,1.071134521484375,-0.004587327790260315,-0.006550079230591655,-0.00907265651077032
1761467836684088600,1.081088623046875,-0.007578910821676253,-0.0004892996205948293,-0.006011917233280837
1761467836694042400,1.09104248046875,-0.0029389760613441466,0.012171955966670065,-0.008999216815223917
1761467836703996400,1.100996337890625,-0.003985854765772819,-0.0029850984917022287,-0.006547768542496487
1761467836713950500,1.110950439453125,-0.014908815318346022,0.001214727818313986,-0.023798516477644444
1761467836723904300,1.120904296875,-0.010269465079903601,-0.00031624460862949487,-0.01108013300881721
1761467836733858300,1.1308583984375,-0.004586158746480941,-0.003653389674704522,-0.004576605466846377
1761467836743813600,1.140813720703125,-0.014015665870904921,0.010483144363202154,-0.00783079409035854
1761467836753767400,1.150767333984375,0.0015460603982210158,-0.012843516818992793,-0.023831962089519945
1761467836763721500,1.160721435546875,-0.0050374096453189845,-0.0004595438031479716,-0.015866042977944014
1761467836773675500,1.170675537109375,-0.004439443752169609,0.002405179711896926,-0.00745220656893216
1761467836783629300,1.18062939453125,-0.003391396003961563,0.01929767966074869,-0.015106867774249985
1761467836793583400,1.190583251953125,-0.004590834921598434,0.015022559624817222,-0.004702286806283518
1761467836803538700,1.20053857421875,-0.016862871995568275,0.008205938412528485,-0.009501257186383009
1761467836813492500,1.210492431640625,0.000495090040564537,0.00671990110585466,-0.014746181235695257
1761467836823446500,1.220446533203125,-0.006986205625534057,-0.004858363283984363,-0.011253690344281494
1761467836833400600,1.230400634765625,0.005880874732136726,0.003380600615311414,-0.009117792560439555
1761467836843354400,1.240354248046875,-0.0206043966114521,-0.0017486520319245755,-0.010970261159865186
1761467836853308400,1.250308349609375,-0.009380407285690307,0.009092329325620084,0.002698116510175168
1761467836863262500,1.260262451171875,0.004538812473416328,-0.0008951404751278459,0.0066096365312580015
1761467836873217300,1.27021728515625,-0.01236789866387844,0.0005053557062521576,-0.000400388361280784
1761467836883171600,1.280171630859375,0.004392682000994682,0.007921038790233433,-0.013793556685978547
1761467836893125600,1.290125732421875,-0.015507365733385086,0.015922595470771194,-0.0032909130378626283
1761467836903079400,1.300079345703125,-0.01670446656346321,0.0007985664991661906,-0.016450318272458388
1761467836913033500,1.310033447265625,-0.013714052575826644,0.0008944280890747905,-0.009107353364815935
1761467836922987500,1.319987548828125,0.0028957214415073393,0.00311816855315119,-0.009984985582716762
1761467836932942300,1.3299423828125,-0.007127659922838211,0.0004816460371017456,-0.012395937448274344
1761467836942896400,1.339896484375,-0.006079612174630164,-0.0014938004880212245,-0.001587214392516762
1761467836952850400,1.349850341796875,-0.003087444621324539,-0.011791450482793151,-0.00861268344935961
1761467836962804500,1.359804443359375,-0.005931143614649772,0.0012482099628075957,-0.004542301338445395
1761467836972758500,1.369758544921875,0.004546411257982254,0.003523187423776835,-0.006233496695244685
1761467836982712600,1.379712646484375,-0.0030868600994348526,0.013608272380102425,-0.015926888053398577
1761467836992666400,1.389666259765625,0.001101239240169525,-0.0005681552767753601,-0.005500917237531393
1761467837002621400,1.399621337890625,-0.008773673564195632,-0.004646729827299714,-0.013293224214715882
1761467837012575500,1.409575439453125,-0.008922726646065712,-0.011265125053748487,-0.011605755184963346
1761467837022529300,1.419529296875,-0.0030880291432142256,-0.007650332090072333,-0.010237398574361577
1761467837032483300,1.4294833984375,-0.0005465279668569565,-0.00006250730957835913,-0.00007717515574768185
1761467837042437600,1.439437744140625,-0.01191957037448883,0.013124160391278564,-0.014138735128147527
1761467837052391400,1.449391357421875,-0.0023415946900844573,-0.0048958274838514625,-0.012005422027036547
1761467837062345000,1.459344970703125,0.0061895022898912425,-0.001958641520794481,0.0020581472393590957
1761467837072300000,1.469300048828125,0.004843348377943039,-0.005129453576635569,-0.003946390405064448
1761467837082253800,1.47925390625,-0.0104220252931118,0.008557583128102123,-0.018096770305233077
1761467837092207900,1.489207763671875,-0.012665420305728911,0.004793280424829572,-0.014846801199112086
1761467837102162000,1.499161865234375,-0.013414192846417426,-0.006079429511539638,-0.013258582159597425
1761467837112116200,1.5091162109375,-0.00713116705417633,0.004312657301034778,-0.012686554425302893
1761467837122070000,1.519070068359375,0.0021487024664878845,0.0016736688332632183,-0.0051733749167528
1761467837132025000,1.529025146484375,0.004544073170423508,0.000875577258132398,-0.005765340327378362
1761467837141979000,1.538978759765625,-0.00158814597427845,-0.001469999487325549,-0.008823083930183202
1761467837151933000,1.548932861328125,-0.008321838143467902,0.0036201267259195445,-0.002961443621478975
1761467837161887000,1.558886962890625,0.003049450698494911,-0.00117958343969658,-0.0014736436159815639
1761467837171841000,1.568841064453125,-0.0009907646030187607,0.0039013000211678443,0.003825065580336377
1761467837181794800,1.578794921875,-0.01385842948257923,-0.001079758060723543,-0.003079781904676929
1761467837191749000,1.5887490234375,-0.005925882917642593,0.0025942542769014833,-0.0051888282142113894
1761467837201704000,1.598703857421875,-0.012358546313643455,0.004482972366642207,-0.017516741927573458
1761467837211658000,1.608657958984375,-0.019990064105391503,0.010613584076147526,-0.014064674378093332
1761467837221612000,1.618612060546875,0.01262976447045803,-0.004477072348818183,-0.012504594587674363
1761467837231566000,1.628566162109375,-0.011461889734864235,0.0025593656266108154,-0.010435304899793118
1761467837241519900,1.638519775390625,0.003652677288651466,-0.00836016085986048,-0.007111896098125726
1761467837251474000,1.648473876953125,0.004850947162508964,-0.005395977292023599,-0.016915460699331013
1761467837261429000,1.658428955078125,0.0036509237229824065,0.004761533579695969,-0.011565066981548442
1761467837271383000,1.668383056640625,0.004099252012372017,0.011813607515674084,-0.00601318674176
1761467837281337000,1.678337158203125,-0.00397884050309658,0.00018591449353843925,-0.012390768082812427
1761467837291291000,1.688290771484375,-0.007866495591402053,0.0006920191184617579,-0.006894216493144631
1761467837301245000,1.698244873046875,-0.005323240849375724,-0.006477361054252832,-0.01947239690683782
1761467837311199000,1.708198974609375,-0.009062427377700804,-0.000413951095752418,-0.021848661051504313
1761467837321153000,1.718153076171875,-0.0017313538372516631,0.00038483459912240503,-0.00703250158582814
1761467837331108000,1.728108154296875,-0.009065934509038925,0.003898596607428044,-0.004880109324911609
1761467837341062100,1.738062255859375,-0.01130699143409729,-0.009417250431049615,-0.0003936663595493883
1761467837351016000,1.748015869140625,-0.00023088614642620086,0.0025625804970040916,0.0023981015171390023
1761467837360970000,1.757969970703125,-0.0032242227435111998,0.0037619646157138046,-0.016253800186514854
1761467837370924000,1.767924072265625,-0.0006803834795951843,-0.000015909955184906722,-0.003440888568339869
1761467837380878000,1.777878173828125,0.0069505497902631755,-0.0019271504039876162,-0.006020347134908661
1761467837390833000,1.7878330078125,-0.008463876962661742,0.0017288513529114425,-0.011798126818751916
1761467837400787200,1.797787109375,-0.010262450817227363,0.00198962118094787,-0.008816170132206752
1761467837410741000,1.807740966796875,-0.00547463201880455,0.012825962895993142,-0.007433574933698401
1761467837420695000,1.817695068359375,0.00006079027652740478,0.0025342859842814505,-0.007121266714669764
1761467837430649000,1.827649169921875,0.002307107898592949,-0.00517212367458269,-0.00034021913926117123
1761467837440603100,1.83760302734375,-0.00008884732723236084,-0.005274908195622265,-0.01271475760648027
1761467837450557000,1.847556884765625,0.006796236011385917,-0.0037165363050997253,-0.003979899949021638
1761467837460512000,1.857511962890625,-0.01101063883602619,-0.001465469442680478,-0.0008278017268050461
1761467837470465800,1.8674658203125,-0.004726444000005722,-0.012689751029387115,-0.022324927660590035
1761467837480420000,1.877420166015625,-0.008467968615889549,-0.001627929995395243,-0.007116051683435216
1761467837490374100,1.8873740234375,-0.0024807108998298644,-0.005585545047372579,-0.01568590063806623
1761467837500328000,1.897327880859375,0.003803483936190605,-0.01169949788302183,-0.01262916168225929
1761467837510282000,1.907281982421875,-0.019541735816001892,0.020419541563838718,-0.006161600502813234
1761467837520237000,1.917237060546875,-0.004580313527584075,0.0016719883328303693,-0.0064825304197147484
1761467837530190800,1.92719091796875,-0.0011404022067785262,0.002660341783054173,-0.01056368965297006
1761467837540145000,1.937144775390625,0.005143208107352256,-0.0001423128138296306,-0.005309924710076302
1761467837550099000,1.947098876953125,0.0012479542344808578,-0.00033158830823376773,-0.01977615649322979
1761467837560053000,1.957052978515625,-0.010725392153859137,0.0028659656240604815,-0.013868229357386007
1761467837570007000,1.967007080078125,-0.0017471359282732008,-0.011049820068944245,-0.001109413413470611
1761467837579961000,1.976961181640625,-0.009530044889450072,-0.011603197901695965,-0.016490969943255183
1761467837589916000,1.986916015625,-0.00324643457531929,-0.01158991829501465,-0.016976040913304312
1761467837599870000,1.996869873046875,-0.009235445857048033,0.005864014928881079,-0.0062476074189879
1761467837609824000,2.006823974609375,-0.007590016737580299,0.004375310741085559,-0.01622170628150925
1761467837619777800,2.01677783203125,-0.0035503859579563138,-0.0035324667087756095,-0.0028677739886566996
1761467837629731800,2.02673193359375,0.005725976431369781,-0.004857285571750253,-0.017201063574524594
1761467837639686100,2.03668603515625,-0.008639818051457405,-0.0016035627391189336,0.000023371742432937025
1761467837649641000,2.046640869140625,-0.0022048165678977966,0.00692877634987235,-0.0100746914264746
1761467837659595000,2.056594970703125,-0.0008586626559495925,0.0003667874857783317,-0.012464070781040936
1761467837669549000,2.066549072265625,0.0013864859223365782,0.0015028788436204194,-0.0015659798082429915
1761467837679502800,2.0765029296875,0.0037801030606031414,-0.001777859860099852,-0.0032122583110816773
1761467837689457000,2.086456787109375,-0.006991466322541237,-0.0024595402476377784,-0.011416571022104471
1761467837699411000,2.096410888671875,0.003332359293103218,-0.0009130597243085503,-0.015498524839803575
1761467837709366000,2.106365966796875,-0.008041852158308029,0.006774115511123091,-0.0036530791474506255
1761467837719320000,2.116320068359375,-0.01388064131438732,0.012412797251529991,-0.01644155044411309
1761467837729274000,2.126274169921875,0.0025800796210765837,0.006843089094106108,-0.00883323086486198
1761467837739228000,2.136227783203125,-0.019564532169699667,-0.004727594777476043,-0.014554567653732373
1761467837749182000,2.146181884765625,-0.016271920365095137,0.004266260876040906,-0.014941292815841733
1761467837759136000,2.156135986328125,-0.0031055647999048233,-0.00528351162718609,-0.007084724963409826
1761467837769090000,2.166090087890625,-0.005652326673269271,-0.006558134672883897,-0.005761385671468451
1761467837779045000,2.176045166015625,-0.007149871754646301,0.0005048625159077346,-0.002095839768089354
1761467837788999200,2.185999267578125,-0.009092822515964508,-0.007214059564657509,-0.0017800700834952293
1761467837798953000,2.195952880859375,-0.010438391906023026,-0.002498557083774358,0.010559826328605413
1761467837808907000,2.205906982421875,0.0016816694766283035,0.0036476175210438666,-0.002450699354056269
1761467837818861000,2.215861083984375,-0.006250292566418647,0.003847560539934784,0.011285546787269413
1761467837828815000,2.225815185546875,-0.0005634791016578674,-0.0005246814612299204,-0.006608248291769996
1761467837838770000,2.23577001953125,-0.0004132569760084152,-0.002960621637571603,-0.012723881627852096
1761467837848724000,2.245723876953125,-0.01537643283009529,0.003899144596699625,-0.011966715718153864
1761467837858678000,2.255677978515625,0.004375146344304084,-0.0015958360903896391,-0.0034729185412637887
1761467837868632000,2.265632080078125,-0.010438391906023026,0.008712773689813911,0.0017600776082370428
1761467837878586000,2.275586181640625,-0.009689619365334511,-0.007918152713403105,-0.014751378000620752
1761467837888540000,2.285539794921875,-0.0020569325298070906,0.00837082838434726,-0.012982696960819884
1761467837898495000,2.295494873046875,-0.005199322208762168,-0.004065294943843036,-0.012834602860175072
1761467837908449000,2.305448974609375,-0.009538228195905685,-0.0033146227070130407,-0.0035836306404322385
1761467837918402800,2.31540283203125,0.000488075777888298,-0.006946750397980213,-0.012659913013549521
1761467837928356900,2.32535693359375,-0.0034019173979759213,0.005138878992106765,-0.0063648497236426915
1761467837938311200,2.335311279296875,-0.017167992421984673,0.005540536861866712,-0.0015059110509231686
1761467837948265000,2.345264892578125,-0.007441548177599906,0.00196457807123661,-0.005438099400699138
1761467837958220000,2.355219970703125,-0.00923953751027584,0.006088891459628939,-0.006889631649572402
1761467837968174000,2.365174072265625,-0.012529226705431938,0.0006145699680782854,-0.008535289097903296
1761467837978128000,2.3751279296875,-0.011333294919133185,-0.003691365331225097,0.003746620916109532
1761467837988082000,2.38508203125,-0.007294833183288574,0.002017440769635141,-0.012124536628369242
1761467837998036000,2.395035888671875,-0.010287585258483885,-0.0018892112800851463,-0.008078622238431126
1761467838007989800,2.40498974609375,-0.005049100083112716,0.0022447467194870114,-0.010595847490057349
1761467838017944000,2.414944091796875,-0.0060977323532104485,0.008880768934171647,-0.008034700898313894
1761467838027899100,2.424899169921875,-0.01447802268564701,0.002006170456949621,0.0030618169897235928
1761467838037853000,2.43485302734375,-0.0010118073910474776,-0.007827679684665054,0.006392221787758171
1761467838047807000,2.444806884765625,-0.0008650923967361449,0.00046109643941745157,-0.02027251604227349
1761467838057761000,2.454760986328125,-0.011041033974289894,0.0018327683851122854,-0.0057392103722784665
1761467838067714800,2.46471484375,-0.014783143112063407,0.00453477561911568,0.007072313006408512
1761467838077668900,2.4746689453125,-0.01837619916796684,0.0014507650638930498,-0.012321748834056779
1761467838087624000,2.4846240234375,-0.01628010367155075,0.011409702889900654,-0.00793732320475392
1761467838097577700,2.49457763671875,-0.005205751949548721,0.0020809709925204514,-0.006283975640311837
1761467838107531800,2.50453173828125,-0.009695464584231376,-0.00582419437514618,-0.010464932853076606
1761467838117485800,2.51448583984375,-0.002513444125652313,0.007385909000225364,-0.00811562064741738
1761467838127440000,2.52443994140625,-0.006404606345295906,0.016821206544619053,0.005204034916497766
1761467838137394000,2.534393798828125,-0.00475917722582817,0.005455214932281524,0.006750533706136048
1761467838147349000,2.544348876953125,-0.018525836771726607,0.01924098103744909,-0.006294780162116512
1761467838157302800,2.554302734375,0.0009276362389326095,-0.00023996450202539563,0.003572415126673877
1761467838167256800,2.5642568359375,-0.004757423660159111,-0.012394256947841494,-0.002713478476088494
1761467838177211000,2.5742109375,-0.00819908854663372,0.002434898996725678,-0.011725079848850146
1761467838187164700,2.58416455078125,-0.012388941451907156,-0.0015960004871711133,-0.008809411597857251
1761467838197118700,2.59411865234375,-0.0034101007044315336,-0.0086208941552788,-0.015736032523261383
1761467838207074000,2.604073974609375,0.001678162345290184,-0.009080072632245719,-0.014448897055862471
1761467838217027800,2.61402783203125,-0.006102993050217628,0.006797532919328659,-0.0035947548226453363
1761467838226982000,2.62398193359375,0.00018470891714096068,0.0016382321937009692,-0.012064102544868364
1761467838236936000,2.63393603515625,-0.014629998376965521,-0.004436557675339282,-0.0006421520947478711
1761467838246889700,2.6438896484375,-0.013435820156335829,-0.0022366547445766627,-0.005295256863906979
1761467838256843800,2.65384375,-0.004008651119470596,0.0017854221120476722,-0.013146052562678232
1761467838266797800,2.6637978515625,-0.010443068081140518,0.0014588753051124512,-0.0023292831977829334
1761467838276753000,2.6737529296875,-0.003562660917639732,-0.00023307810351252554,-0.011843975254474207
1761467838286707000,2.68370703125,-0.006703881552815437,0.001545183615386486,-0.017903868948481977
1761467838296661000,2.693660888671875,-0.008198504024744034,0.020954543489683418,-0.01455825744816102
1761467838306614800,2.70361474609375,-0.006252630653977393,-0.0009127126644365488,-0.008109556232811883
1761467838316568800,2.71356884765625,-0.007898059773445128,-0.0059039450804702935,-0.004451033725263551
1761467838326523000,2.72352294921875,-0.008946107521653176,0.0023750951008871196,-0.009416419313987717
1761467838336477700,2.733477783203125,0.0021259061127901074,0.0022433036810718477,-0.018074686337588353
1761467838346432000,2.743431884765625,-0.007452069571614265,0.007673183242697269,-0.006502093636710196
1761467838356386000,2.753385986328125,-0.005057283389568328,-0.009409560314938425,-0.0006744651954621076
1761467838366339800,2.76333984375,-0.016578794357180595,-0.0013690415971912443,-0.0009161375973839312
1761467838376294000,2.7732939453125,-0.01119067157804966,0.004689125930611044,-0.00023379048956558108
1761467838386248000,2.783248046875,-0.0053548050314188,-0.0002689531344920397,-0.00809876997731626
1761467838396202800,2.79320263671875,-0.0061047466158866874,-0.0096584935747087,-0.011633200314315036
1761467838406156800,2.80315673828125,-0.00042027123868465424,0.0064574507773853835,-0.004807948270998895
1761467838416111000,2.813111083984375,-0.0014677344650030136,-0.0027023908264935015,-0.01239143480309285
1761467838426065000,2.82306494140625,-0.008501286363601684,0.0019660576422698794,-0.007926043758913873
1761467838436019000,2.83301904296875,-0.011644845086336135,-0.0089135386926122,-0.0008938618334941565
1761467838445973000,2.842972900390625,0.0006271919876337051,-0.0005477700758725404,-0.021210810672538355
1761467838455927800,2.852927734375,-0.00341243879199028,-0.003432604797184467,-0.013105729685444384
1761467838465881900,2.8628818359375,-0.0010164835661649703,0.005599701436888426,-0.012142401078622788
1761467838475836000,2.8728359375,-0.011345569878816604,0.010097962704207748,-0.007010097957774996
1761467838485789700,2.882789794921875,0.0078080434024333945,0.008271423130482436,-0.01697809587307274
1761467838495744000,2.892743896484375,-0.0016208792001008987,0.008030837573949247,-0.00779984182966873
1761467838505698000,2.902697998046875,-0.004015080860257148,0.003549089050013572,-0.0010948277656920254
1761467838515651800,2.91265185546875,-0.022122399958968163,0.004497110489849001,-0.0066398672727402295
1761467838525607000,2.92260693359375,-0.004165887507796288,-0.0011830905710346997,-0.011271226000972091
1761467838535561000,2.93256103515625,-0.0029687866777181626,0.005838350764662027,-0.010188782792817801
1761467838545514800,2.9425146484375,-0.004018003469705582,0.0025881715959869323,-0.007429611144633964
1761467838555468800,2.95246875,-0.008958382481336593,0.004617777727451175,-0.0024901819810736925
1761467838565422800,2.9624228515625,-0.011502806267142295,0.005200874845031648,-0.010737493583606556
1761467838575377000,2.972376953125,0.007799275574088096,-0.005982526742015034,-0.01359997034263797
1761467838585332000,2.98233203125,-0.010007014751434326,0.001477269478328526,-0.0037333413094282147
1761467838595286000,2.9922861328125,-0.009705401456356047,-0.001768178716301918,-0.004747879513679072
1761467838605239800,3.00223974609375,-0.0014753332495689392,-0.003991499055270105,-0.017962266338523478
1761467838615193900,3.01219384765625,-0.020329671323299405,-0.00427000546939671,-0.004247273047780618
1761467838625148000,3.02214794921875,-0.004169394639134407,-0.0017181838284246623,-0.009266379851428792
1761467838635101700,3.032101806640625,-0.009556932896375655,0.005302051930874586,-0.003052172378543764
1761467838645057000,3.04205712890625,-0.0014753332495689392,0.0023927951543591913,0.0008912406181450932
1761467838655010800,3.0520107421875,0.0012175590962171553,0.0025726634996011853,-0.003437317504920065
1761467838664964900,3.06196484375,-0.01180149695277214,-0.00533832882065326,0.0022042503123171626
1761467838674919000,3.0719189453125,-0.0106049806445837,-0.002154127560276538,-0.013544267233181743
1761467838684873000,3.081873046875,-0.01180149695277214,-0.0017169234531000256,-0.008947157834423706
1761467838694826800,3.09182666015625,-0.00372223539352417,-0.0030099772046320136,-0.007603013216471299
1761467838704781800,3.10178173828125,0.00106616792678833,-0.00014287906941026448,-0.00048089711843058466
1761467838714735900,3.11173583984375,-0.003571428745985031,-0.0009417743621394038,-0.007647820472577586
1761467838724690000,3.12168994140625,-0.00461713840663433,0.007494557006470858,-0.0019188301002141088
1761467838734644000,3.13164404296875,-0.016287117934226988,-0.0024565445729531348,-0.0039734062761534
1761467838744598000,3.141597900390625,-0.012394202148914336,-0.010764536854159087,0.00034147038143128155
1761467838754551800,3.1515517578125,-0.00940203459560871,0.000024549919366836548,-0.002640751166595146
1761467838764507000,3.1615068359375,-0.0005734159737825394,0.007632394574582577,0.004724425572855398
1761467838774460700,3.171460693359375,-0.007306523621082306,-0.003758914142102003,-0.0014007793091703206
1761467838784414700,3.181414794921875,0.0016705635607242584,0.0030188728971406818,0.0036972014169674365
1761467838794369000,3.191369140625,-0.007011924588680267,0.0035909371640533206,-0.0033279205800034106
1761467838804323000,3.201322998046875,0.0021177228063344955,-0.00245570432273671,-0.001379151999251917
1761467838814276900,3.21127685546875,-0.013595394632220268,-0.004670037637650966,-0.0024048326520249245
1761467838824232000,3.22123193359375,-0.00027706337571144104,-0.010364048028178512,-0.01706179210115224
1761467838834185700,3.231185791015625,-0.02017886467576027,0.008783062447048724,-0.016594658646592868
1761467838844139800,3.241139892578125,-0.00611468348801136,-0.001163271625712514,-0.013331592596881091
1761467838854093800,3.25109375,0.003909866920113563,-0.000830386409536004,-0.012754002771480009
1761467838864047900,3.2610478515625,0.00106616792678833,-0.0028982421921566128,-0.0070686232119798655
1761467838874002000,3.271001953125,-0.01210252572596073,-0.002119293708913028,0.002517791507206857
1761467838883957000,3.28095703125,-0.009559855505824088,0.0024221125803887845,-0.01199740311736241
1761467838893910800,3.290910888671875,0.007946575090289116,-0.0059074704781174655,-0.013247174849594012
1761467838903864800,3.30086474609375,-0.017193126863241193,0.005471965137682855,-0.007199665713123977
1761467838913819000,3.31081884765625,-0.0065688569962978356,0.004847092971298843,0.0005191924353595823
1761467838923773000,3.32077294921875,-0.004773205751180649,0.002877984855417162,0.006677724198251962
1761467838933726700,3.330726806640625,0.0006131634622812271,-0.00099292002748698,0.004166800823248922
1761467838943682000,3.34068212890625,-0.0011842413485050201,0.006382686774432659,-0.01104870582409203
1761467838953635800,3.3506357421875,-0.011360182926058768,0.01329911509938538,-0.014619413050869478
1761467838963590000,3.36058984375,0.0046498716324567795,-0.0076109499277547,0.00002728986572474241
1761467838973544000,3.3705439453125,-0.02123801833987236,-0.0029349026744253932,-0.0015248440802562982
1761467838983498000,3.380498046875,-0.010166004705429077,-0.0007980002435855567,-0.0024031886842101812
1761467838993451800,3.39045166015625,0.0024041385322809217,0.011600056096538901,0.0062624670614022755
1761467839003406800,3.40040673828125,-0.008818681749701499,-0.0023204788368195294,0.0038849790740292517
1761467839013361000,3.41036083984375,-0.01749707824587822,0.00947055152086541,0.0036061164668761193
1761467839023315000,3.42031494140625,-0.023182722666859626,0.012438991138711572,-0.009098256742907688
1761467839033269000,3.43026904296875,-0.009714753806591033,-0.004626161963306367,-0.017200616049952804
1761467839043222800,3.440222900390625,-0.016746552139520643,0.017609233383461834,0.013203016047459095
1761467839053176800,3.4501767578125,-0.017044658303260803,0.005616853501088917,0.0002486683982890099
1761467839063132200,3.460132080078125,-0.0023819267004728316,0.0014760456356219945,-0.01164690917925909
1761467839073086200,3.470086181640625,-0.0019371055424213409,0.007450845728907734,0.010424728706851601
1761467839083040500,3.48004052734375,-0.0040332010388374325,0.00357979471553117,-0.000898738938011229
1761467839092994600,3.48999462890625,0.00030804303586483,-0.0011024630828760564,-0.014992182752862572
1761467839102948400,3.4999482421875,-0.0020867431461811066,0.002642824392672628,-0.014512116751493885
1761467839112902400,3.50990234375,0.007639701098203658,0.001604969244915992,-0.009886365780141204
1761467839122857200,3.519857177734375,-0.0041787469893693925,0.01063541231546551,0.0024666915076319127
1761467839132811300,3.529811279296875,-0.02288227841556072,0.007173435293324292,-0.005968215088872238
1761467839142765300,3.539765380859375,-0.0035766894429922103,-0.000839081172645092,-0.02008247336288914
1761467839152719400,3.54971923828125,-0.012555530190467833,0.006501125522330403,0.005069156490452587
1761467839162673400,3.55967333984375,-0.010309797090291976,0.011979885726980864,0.003791738699469715
1761467839172628500,3.56962841796875,-0.009862053322792053,0.0055615065846592185,-0.000912301672482863
1761467839182582300,3.579582275390625,0.0004652794241905212,0.008920114563871175,-0.011401062925718724
1761467839192536300,3.589536376953125,-0.003425298273563385,0.0030628399030305444,-0.004324329472519457
1761467839202490400,3.599490478515625,-0.012552023059129714,-0.005520681383926421,-0.003527151212841272
1761467839212444400,3.6094443359375,-0.009709493109583854,0.009893197379726916,-0.01579057572209276
1761467839222398200,3.619398193359375,-0.0034247137516736983,-0.0035799956449307497,-0.005293110572593286
1761467839232353500,3.629353515625,-0.013597732719779014,0.008155231138598174,-0.009625248892232775
1761467839242307300,3.639307373046875,-0.0047679450541734695,0.004212137802317739,-0.013794177740486338
1761467839252261400,3.649261474609375,0.00047054012119770045,0.0043066111527383325,-0.005874344526650384
1761467839262215400,3.65921533203125,-0.01075228016078472,-0.0038983408791013058,-0.007685394270299002
1761467839272169500,3.66916943359375,0.000020458266139030454,-0.0026667349912226196,0.015079002519790082
1761467839282123300,3.679123291015625,-0.009855039060115813,-0.0028321546860039233,-0.00019259996265172957
1761467839292078300,3.689078369140625,-0.007460837399959563,0.0010248130030930042,-0.0038435419519431886
1761467839302032400,3.699032470703125,0.0010667524486780166,-0.0019072766597382723,0.0033535390784498304
1761467839311986400,3.708986328125,-0.0016267244189977644,-0.0008583521286956965,-0.006829124500835314
1761467839321940500,3.7189404296875,-0.014343582651019095,-0.01039475369369611,-0.001087183315353468
1761467839331894300,3.728894287109375,-0.013146481820940971,-0.0005616707370616496,-0.005193741851346567
1761467839341848300,3.738848388671875,-0.01359656367599964,-0.012952986809145658,-0.0007878807083703577
1761467839351803400,3.748803466796875,-0.0026718495577573776,-0.0005551679310388863,-0.012676809349423274
1761467839361757200,3.758757080078125,-0.014492051210999488,0.01514236834589392,-0.006748962803557515
1761467839371711500,3.76871142578125,-0.021079028385877607,-0.010838807666767388,-0.009931629693973808
1761467839381665500,3.77866552734375,-0.016590484794974325,-0.009765771607775241,-0.017221348310727625
1761467839391619300,3.788619384765625,0.0036094226688146588,-0.008093673677090555,0.00001166303833015263
1761467839401573400,3.798573486328125,-0.00985913071334362,0.0033325054235756393,-0.022863336253073064
1761467839411528400,3.808528564453125,-0.017790508234500884,0.001961600662861019,-0.008244133264757692
1761467839421482200,3.818482177734375,-0.005521978291869163,-0.006969199691805988,-0.0068551996570080515
1761467839431436300,3.828436279296875,0.001813186901807785,0.005810805170610547,-0.012569869243074207
1761467839441390300,3.838390380859375,-0.003421206620335579,0.011236355616990476,-0.010033720095269382
1761467839451344400,3.848344482421875,-0.003573182311654091,0.00023099574428051708,-0.017643163052527232
1761467839461299500,3.858299560546875,-0.017640286108851433,-0.004990209502726793,-0.007692682527611031
1761467839471253500,3.86825341796875,-0.01345277129113674,0.00017765812184661626,-0.007640303886402398
1761467839481207300,3.878207275390625,-0.005523147335648537,-0.002349357871431857,-0.005042734274407848
1761467839491161300,3.888161376953125,-0.004621814581751823,0.005177183442190289,-0.008396465149102732
1761467839501115400,3.898115478515625,-0.00312660758793354,-0.0019898221103474495,-0.007744093054439872
1761467839511069200,3.908069091796875,0.0013619360029697416,0.0006962569021619855,0.002677320317318663
1761467839521024500,3.9180244140625,-0.007912672820687293,0.0032707470326684414,-0.00539206830188632
1761467839530978600,3.927978515625,-0.004918751701712608,0.009950644921697676,-0.007176750628417357
1761467839540932400,3.937932373046875,-0.012999766826629637,0.009978263580985367,-0.006689414636045694
1761467839550886400,3.947886474609375,-0.008660860839486122,0.006382083986233919,-0.010231726885400711
1761467839560840400,3.95784033203125,-0.010603811600804328,-0.005225589161179959,-0.01230544615322724
1761467839570795300,3.967795166015625,-0.0013227730363607406,-0.003456332732643932,-0.009524017007462679
1761467839580749300,3.977749267578125,-0.01808218465745449,0.004009381771832704,-0.005325852931570262
1761467839590703400,3.987703369140625,-0.017033552387356758,0.012505060378555208,0.007953187494166195
1761467839600657400,3.997657470703125,-0.011197685840725898,0.0008344963290728628,-0.006853172096703201
1761467839611233500,4.008233642578125,-0.008204349243640899,0.0034964638136327263,-0.0069356901478488
1761467839621187300,4.018187255859375,-0.015834697991609574,-0.0002941058420576155,-0.00306412767781876
1761467839631141400,4.028141357421875,-0.013442249897122383,-0.004147712530288845,0.003154244513530284
1761467839641096400,4.038096435546875,-0.005960954231023788,0.005740443348139524,-0.01743622403726913
1761467839651050200,4.04805029296875,-0.007607552394270896,-0.0017387699587270618,-0.009295478081749752
1761467839661004300,4.05800439453125,-0.00012450316250324248,-0.004047193031571805,-0.014649041004152968
1761467839670958300,4.067958251953125,-0.0016226327657699584,0.004536711847875267,0.0009150507519952952
1761467839680912400,4.077912353515625,0.001370119309425354,0.013068758675921707,-0.006098289475636556
1761467839690867500,4.087867431640625,-0.00192015440762043,0.00458696246407926,0.0007082943998277187
1761467839700821500,4.097821533203125,-0.01703296786546707,0.0019773644875735043,-0.005008576276479289
1761467839710775300,4.107775390625,-0.023166940575838086,-0.0033113347713835534,0.0026807726497296244
1761467839720729300,4.117729248046875,-0.012539748099446297,-0.010606405416689812,-0.004954215740738436
1761467839730683400,4.127683349609375,0.002422258710861206,0.018029778616782278,0.0035697665118612346
1761467839740637200,4.13763720703125,0.0030184710383415222,0.014967030045296996,-0.011784938543615862
1761467839750592500,4.147592529296875,-0.022120061871409413,0.003874631209950894,-0.004482625306770205
1761467839760546600,4.157546630859375,-0.0071586395829916,0.0036719665110111236,-0.014784092960134148
1761467839770500400,4.167500244140625,-0.010900748720765113,0.008774787809047847,-0.004111435640510171
1761467839780454400,4.177454345703125,-0.001322188514471054,0.002677274651546031,-0.013584078653762117
1761467839790408400,4.187408447265625,-0.015387538745999336,-0.0036372057248838245,-0.003652549424488097
1761467839800363300,4.19736328125,-0.025562895801663398,0.006389098248910158,-0.007123239476047456
1761467839810317300,4.2073173828125,-0.0025146131694316863,0.003232150321640074,-0.014162773590860888
1761467839820271600,4.217271728515625,-0.008348726150393485,0.007219923049863427,-0.006523109025275334
1761467839830225400,4.227225341796875,0.007064531558752059,0.014366817396134138,0.005612031195499002
1761467839840179500,4.237179443359375,-0.0023626374781131744,0.012251889335084705,-0.005546637809090316
1761467839850134300,4.24713427734375,-0.00849836375415325,0.0017962722996249794,0.003157450250769034
1761467839860088300,4.25708837890625,-0.017179098337888717,0.0051237362219020725,-0.018322094360552727
1761467839870042400,4.26704248046875,0.004520107772946358,0.0028480463748797773,-0.00344494368894957
1761467839879996400,4.276996337890625,0.010506196445226669,-0.0004795454115606844,0.000305093026952818
1761467839889950200,4.2869501953125,0.007062777993083,0.001253963850159198,-0.001091430232208222
1761467839899905500,4.296905517578125,-0.007000818672776222,-0.0025944552063010633,-0.0054104624751023945
1761467839909859300,4.306859375,-0.011636661779880523,-0.000910849500913173,-0.002124810134246945
1761467839919813400,4.3168134765625,-0.012830840000510215,-0.0008581511992961167,0.0059041551430244
1761467839929767400,4.326767333984375,-0.014326631516218184,-0.0032849947537295517,-0.011730842869356274
1761467839939721500,4.336721435546875,-0.008340542843937874,0.001444481453578919,-0.0003848985312040895
1761467839950298400,4.34729833984375,-0.0016050971090793608,-0.005526508336514234,0.007327831270592286
1761467839960252200,4.357252197265625,-0.002803366982936859,0.0030000220661982892,-0.003806981934374198
1761467839970206200,4.367206298828125,-0.008341711887717247,-0.0033650559863075613,-0.00006574044628068804
1761467839980161500,4.37716162109375,0.004376899909973145,0.00535412917798385,-0.010244906027382239
1761467839990115300,4.387115234375,0.002731470790505409,-0.008605057265330106,-0.00962859162678942
1761467840000069400,4.3970693359375,-0.008192074283957481,0.0008433737552724778,-0.011636177722690627
1761467840010023400,4.4070234375,-0.004449965146183967,-0.005930412962287664,0.002440890346094966
1761467840019977200,4.416977294921875,-0.01327683020234108,0.0026953217648901045,0.001664005955774337
1761467840029932300,4.426932373046875,-0.0016056816309690475,-0.0056658620082773265,-0.0019593265073839573
1761467840039886600,4.436886474609375,-0.007589432215690612,0.004310775871202349,0.0036537915335036813
1761467840049840400,4.44684033203125,-0.0029506664991378784,-0.011526844729855656,0.003045824836147949
1761467840059794700,4.456794677734375,-0.010732990938425063,0.005416143297217786,0.002286348238354549
1761467840069748700,4.466748779296875,-0.0083393738001585,-0.000243416834436357,-0.012349257895490153
1761467840079703800,4.476703857421875,-0.010883797585964201,0.012639445614255965,-0.002001521681295708
1761467840089657900,4.486657958984375,-0.010583937856554985,0.000058634852059185504,-0.004598095779446885
1761467840099611600,4.496611572265625,-0.003251110750436783,-0.01327164257057011,-0.002704783712979406
1761467840109565700,4.506565673828125,-0.005797288101911545,-0.0040327991800382735,0.008037459110980853
1761467840119519700,4.516519775390625,0.0015355390042066574,0.0025086766189895567,-0.011082973419874905
1761467840129474600,4.526474609375,-0.006994388931989669,-0.002978796615079045,-0.0042171153715346
1761467840139428600,4.5364287109375,-0.0044482115805149075,0.0045874739207327365,-0.0069838675379753105
1761467840149382700,4.546382568359375,-0.0156722009062767,-0.001846760377846658,-0.0006314297713339328
1761467840159336700,4.556336669921875,-0.005494505763053894,-0.011496102531719952,-0.0061671808602288365
1761467840169290800,4.566290771484375,-0.015070727881789207,0.010037008030898869,-0.007100370057113468
1761467840179245800,4.576245849609375,-0.013425298762321472,0.00812293630419299,-0.007290029144007712
1761467840189199600,4.58619970703125,-0.01267769526541233,-0.0005064882174134254,-0.014807638232503086
1761467840199153700,4.596153564453125,-0.0007078560084104537,0.0034279651546850797,-0.008515935943461955
1761467840209107700,4.606107666015625,-0.008637479963898659,0.00441845576306805,-0.006116272656898945
1761467840219061500,4.6160615234375,-0.008336451190710067,0.002688143105432391,0.0004850161711219698
1761467840229016800,4.626016845703125,-0.0035468788266181943,0.008929613044578582,-0.006694118210626766
1761467840238971000,4.635970947265625,-0.0045937575310468675,-0.010257135321293026,-0.015640033936034886
1761467840248924700,4.645924560546875,-0.015067220750451088,-0.0023981289166025814,-0.012003175271023065
1761467840258878700,4.655878662109375,-0.003993453550338745,0.001026621367689222,-0.010784027005918323
1761467840268832800,4.665832763671875,-0.0021972177833318707,-0.007381470287125557,-0.004024095283774658
1761467840278787600,4.67578759765625,0.0007949497699737549,-0.00033763445653021333,-0.005841867029154673
1761467840288741600,4.68574169921875,-0.007284311789274215,-0.00363305927272886,-0.006358538713864981
1761467840298695700,4.69569580078125,-0.00429214423596859,-0.0018030491002835331,0.0042454646831844
1761467840308649700,4.705649658203125,-0.01940495769381523,-0.0023124233945272864,-0.008398958500288427
1761467840318603800,4.715603759765625,-0.011174304965138434,0.0031464082669466734,-0.002586144035682082
1761467840328558600,4.72555859375,0.0007967033356428146,0.013447181800566612,-0.002198185897711664
1761467840338512600,4.7355126953125,-0.005937573355436325,0.004898695294372737,-0.014836846060678362
1761467840348466700,4.745466796875,-0.011472411128878594,0.0046996473246254025,-0.001103641259809956
1761467840358420700,4.755420654296875,-0.005036825123429298,-0.00043387963892892,-0.005415449177473783
1761467840368374800,4.765374755859375,0.00573649782538414,0.00828355195969343,-0.011923159704217687
1761467840378329900,4.775329833984375,-0.011321019959449768,0.0027038521312177178,-0.004272727149445563
1761467840388283600,4.78528369140625,-0.01880582275688648,-0.0063417519758455455,0.002209538408787921
1761467840398237700,4.79523779296875,-0.0017477204501628876,-0.010647468079440295,-0.009615832609916105
1761467840408191700,4.805191650390625,-0.009229016116261481,-0.005748644920904189,-0.004199223521817476
1761467840418145500,4.8151455078125,-0.013718728750944136,-0.005757394482940435,-0.0023072996948380023
1761467840428100900,4.825100830078125,-0.0069838675379753105,-0.009552147123403847,0.00042237186422571535
1761467840438055000,4.835054931640625,-0.016260814449191092,-0.0003098514004610479,0.0083824183574412
1761467840448008700,4.8450087890625,-0.013717559707164763,0.0074655866403132674,-0.008013009656313807
1761467840457962800,4.854962646484375,-0.0071329206198453895,0.00012148922150954603,-0.005952314266841858
1761467840467916800,4.864916748046875,-0.009826982009410857,-0.006423384111002088,0.00075346698211506
1761467840477871600,4.87487158203125,0.0024421324551105496,0.0033032610627822577,0.002342023948347196
1761467840487825700,4.88482568359375,-0.0032440964877605435,0.014497494571097193,-0.003999289636081084
1761467840497779700,4.89477978515625,-0.004141922110319138,-0.004910239601694047,-0.007670151035394519
1761467840507733800,4.904733642578125,0.004235445612668991,-0.0012731617409735918,-0.0017584793061949312
1761467840517688800,4.914688720703125,-0.011027589970827102,0.0010899141285568474,-0.003611231033410877
1761467840527642600,4.924642578125,0.00887654941678047,-0.007563822850398719,-0.0036877577351871874
1761467840537596700,4.9345966796875,-0.005336100330948829,0.0076028762191534035,0.011876087425788863
1761467840547550700,4.94455078125,-0.004588496834039688,0.014480269441660493,-0.008279661235865205
1761467840557504800,4.9545048828125,0.005288754057884216,-0.0018785802882164717,-0.007383260385412723
1761467840567459800,4.9644599609375,-0.012668342915177344,-0.003392802509758621,-0.0014534410781692712
1761467840577414000,4.974413818359375,-0.017457915279269216,-0.0008173625311814248,-0.0046964963863138105
1761467840587367700,4.98436767578125,-0.009077624946832657,-0.01009905868275091,-0.010245883274916559
1761467840597321700,4.99432177734375,-0.004138999500870704,0.006151617964915931,-0.005378843494132161
1761467840607275800,5.00427587890625,-0.0069838675379753105,-0.00040837987149134274,0.0041449634507764125
1761467840617230600,5.014230712890625,-0.013712883532047271,-0.007001366662047803,-0.006199831887660548
1761467840627184600,5.0241845703125,0.006489946541190147,-0.004247044718917459,0.007446891072997823
1761467840637138700,5.034138671875,-0.0005406827479600906,-0.0059847917643375695,0.008200869511766358
1761467840647092700,5.0440927734375,-0.009816460615396498,-0.0066814505252987145,0.00675385817438364
1761467840657046800,5.054046875,-0.010267126992344855,-0.004679609183594584,0.0005171100761275739
1761467840667001600,5.064001708984375,-0.000692073917388916,-0.0022075017153285444,-0.0014236669944133608
1761467840676955600,5.07395556640625,-0.00981996774673462,0.006022657823003828,-0.0029417251408565786
1761467840686909700,5.08390966796875,-0.008771335476636886,0.0007534304494969547,-0.003606627923529595
1761467840696863700,5.09386376953125,-0.008771335476636886,0.002093410348985344,-0.000719692576676607
1761467840706817500,5.103817626953125,0.0030512042641639707,-0.003019347821176052,-0.001204453019471839
1761467840716772900,5.11377294921875,-0.007871171766519545,0.006061729458067566,0.008817786700557917
1761467840726726700,5.1237265625,-0.000989011037349701,0.0005226173683069646,-0.0005228913629427552
1761467840736680700,5.1336806640625,-0.0011415712505578994,0.00693606460718438,-0.0006696337567176669
1761467840746634800,5.143634765625,-0.0023415946900844573,-0.009092986912745982,-0.008635260607348755
1761467840756589600,5.153589599609375,-0.00817687671482563,-0.0010373254247941076,-0.008788715869700536
1761467840766543600,5.163543701171875,0.005890811604261398,0.004889068949501961,-0.016577214321447535
1761467840776497700,5.17349755859375,-0.007425766086578369,0.009614197775255889,0.004676302981656044
1761467840786451700,5.18345166015625,-0.009818214181065559,-0.00045483109541237353,-0.009723585567018016
1761467840796405800,5.19340576171875,0.0014063596665859221,0.013852383334282785,-0.01305345150893554
1761467840806360800,5.20336083984375,-0.006375380250811576,-0.0018547427549026906,-0.019151686185644938
1761467840816314600,5.213314697265625,-0.003831540986895561,-0.008431636927183716,-0.0012037497665733099
1761467840826268700,5.2232685546875,-0.005776829835772514,-0.005157291431631893,-0.0034149960752576586
1761467840836222700,5.23322265625,-0.009069441640377044,0.0032385435298085213,-0.001144146800134331
1761467840846176500,5.243176513671875,-0.008919219514727591,0.0027749080734327434,0.0013918288177344948
1761467840856131800,5.2531318359375,-0.0077209496408700935,-0.005506798989046365,0.007059307394362986
1761467840866086000,5.2630859375,0.0005120411753654479,0.0012884506416507065,-0.01841712483339943
1761467840876039700,5.273039794921875,-0.01818973668515682,0.011175711470935493,-0.003138672485062852
1761467840885993700,5.28299365234375,-0.002776478976011276,-0.000667176938150078,-0.0028234690560493617
1761467840895948500,5.292948486328125,-0.01325111123919487,0.0018747260970063506,-0.001209293591370806
1761467840905902600,5.302902587890625,0.0026087211936712262,0.006119250065274536,0.00021607216978445647
1761467840915856600,5.312856689453125,-0.008015548673272132,0.014367328852787613,-0.01613701453958638
1761467840925810700,5.322810791015625,-0.021633739659190177,-0.004176335836574435,-0.005262331841839477
1761467840935764700,5.3327646484375,-0.010261866295337676,0.0025716588526032863,-0.0013601550378371029
1761467840945719800,5.3427197265625,-0.013851999741792678,0.00685525445593521,-0.008821741356467828
1761467840955673600,5.352673583984375,-0.005022212076187134,0.0035258725712075827,-0.0014969057605601847
1761467840965627600,5.362627685546875,-0.005022212076187134,-0.00201135808872059,-0.01095234191068448
1761467840975581700,5.372581787109375,0.0038069910675287244,0.002797156437858939,0.00273201877977699
1761467840985535700,5.38253564453125,-0.010108721560239791,0.006223568956274539,0.006742021606117487
1761467840995490800,5.39249072265625,-0.006067337214946746,0.002282393582444638,0.0013387195241637527
1761467841005444900,5.40244482421875,0.00949614261984825,0.0025401129368692633,-0.0046553606583271175
1761467841015398700,5.412398681640625,-0.0063648588567972175,-0.0018299553735181687,-0.013635726642608642
1761467841025352700,5.422352783203125,-0.008609422913193701,-0.014691044381819665,-0.0024265695597976444
1761467841035307500,5.4323076171875,-0.011001286485791205,-0.003395688586588949,0.013137595261586829
1761467841045261600,5.442261474609375,0.0014203881919384001,-0.0076377648694440714,0.00441187075865455
1761467841055215600,5.452215576171875,-0.013542787662148476,-0.015141948220785706,-0.0035364578973036257
1761467841065170000,5.462169921875,-0.002471358549594879,-0.0023589111510664224,-0.003707750210445374
1761467841075123700,5.472123779296875,-0.0021691607326269147,-0.005738360988907515,-0.0013532960387878119
1761467841085078800,5.482078857421875,-0.009800094002485275,-0.006836714152246713,-0.0025051968871150163
1761467841095032600,5.492032470703125,-0.013541034096479415,0.005409129034541547,-0.0036145281021948902
1761467841104986600,5.501986572265625,-0.008903437423706055,-0.0016071246693842112,0.014389906010776757
1761467841114940700,5.511940673828125,-0.005312719455361366,-0.011913213698938488,0.006657348130503669
1761467841124894700,5.521894775390625,-0.015938742887973784,-0.0042144210909493265,-0.00291820726795122
1761467841134849800,5.531849853515625,-0.009354688322544097,-0.0019535269542597235,-0.0060818771969527
1761467841144803800,5.541803955078125,0.0018687164813280105,0.0034001090333797036,-0.00965376260066405
1761467841154757600,5.551757568359375,-0.006060907474160194,0.011889577095024287,0.007226672451058402
1761467841164711700,5.561711669921875,-0.011447861209511757,0.00472339352639392,-0.0037421274040825665
1761467841174666800,5.571666748046875,-0.018180384334921834,0.006798373169545084,0.0011379819208290427
1761467841184620500,5.58162060546875,-0.0038157588958740232,0.005955145544745028,-0.008816087933816016
1761467841194574600,5.59157470703125,-0.0038163434177637097,0.010916567344404757,-0.0031473033160902557
1761467841204529000,5.60152880859375,-0.00621054507791996,0.0005868599772453308,0.003153824388422072
1761467841214482700,5.611482666015625,-0.017435703447461127,-0.009519322566036135,-0.009980145010817796
1761467841224437800,5.621437744140625,-0.00022504092752933502,-0.001526369317062199,0.001822146526398137
1761467841234391800,5.631391845703125,-0.0014209727138280869,-0.0033954511245712637,-0.008138791460450738
1761467841244345600,5.641345703125,-0.00935059666931629,-0.0014941292815841734,0.010414079448673874
1761467841254299600,5.651299560546875,-0.009497311663627625,-0.0014313845099881292,-0.0004065897732041776
1761467841264254700,5.661254638671875,-0.0018669629156589508,0.010124868977442383,0.0025884090580046175
1761467841274208800,5.671208740234375,-0.0003705868780612945,0.003378518256079405,-0.0012504384525120257
1761467841284162800,5.681162841796875,-0.0006704466074705124,-0.003755863668490201,-0.012957882179971784
1761467841294116600,5.69111669921875,-0.010696166059374809,-0.01334366662716493,-0.01926121097472496
1761467841304070700,5.701070556640625,-0.015635960549116135,-0.0033987755928188562,-0.0030786311272066086
1761467841314025700,5.711025634765625,0.00516132828593254,-0.00839959782110527,0.0020231763906776905
1761467841323979500,5.7209794921875,0.00037292496562004086,-0.011517675042711197,-0.015083587363362311
1761467841333933600,5.73093359375,-0.005612579184770584,0.004633651150017976,-0.0008549363289028406
1761467841343888000,5.740887939453125,-0.014588497322797775,-0.008453026775084435,-0.0012201255126390606
1761467841353842700,5.7508427734375,-0.02102232976257801,-0.008007895089779048,-0.0026073512204922733
1761467841363796700,5.760796630859375,-0.0005225625693798065,-0.015037300536222755,0.0035464769678190348
1761467841373750800,5.770750732421875,0.003217208480834961,-0.010206373248435556,-0.0007734959899913519
1761467841383704600,5.78070458984375,-0.008752630776166915,0.004301149526331574,-0.014010496505443006
1761467841393658600,5.79065869140625,-0.004413140267133712,-0.00259861992476508,-0.012816199553804471
1761467841403613700,5.80061376953125,-0.009352350234985351,-0.006443312654178589,-0.003389194913720712
1761467841413567700,5.810567626953125,-0.011296470040082931,-0.006173464470542967,0.002149624915095046
1761467841423521800,5.820521728515625,-0.010697919625043868,-0.012615407151542603,0.00048134464300237593
1761467841433475800,5.830475830078125,-0.0005213935256004333,-0.01952613638807088,-0.0031099213146138934
1761467841443430700,5.8404306640625,-0.0029167642295360565,-0.013464224266912787,-0.007854987816698848
1761467841453384700,5.850384765625,0.002168576210737228,-0.004675225269421935,-0.0005792520595248788
1761467841463338500,5.86033837890625,-0.004717676171660423,-0.01416950472574681,-0.006034603989124298
1761467841473292500,5.87029248046875,-0.011600421422719954,-0.003403853626735508,-0.013986521974811329
1761467841483246800,5.880246826171875,0.0023129531174898147,0.002384264788031578,-0.005580439613992348
1761467841493201700,5.89020166015625,-0.0012824410259723662,0.0019535269542597235,-0.0011046459068078547
1761467841503155700,5.90015576171875,-0.018044190734624863,-0.0071019774923101065,-0.01885020075473003
1761467841513109800,5.91010986328125,-0.00861994430720806,-0.00014375585224479437,-0.0005091642316896468
1761467841523063600,5.9200634765625,-0.006077274087071418,-0.010868198158033191,0.005660025922534987
1761467841533018600,5.9300185546875,-0.011612696382403373,-0.0001581862363964319,-0.0014872520162258296
1761467841542973000,5.939972900390625,-0.004132569760084152,-0.015977010805439205,-0.01038604066427797
1761467841552926700,5.9499267578125,-0.005779752445220947,-0.006658654171600937,-0.010809097515093163
1761467841562880800,5.959880859375,0.008134791138768195,0.0002690992649644613,-0.004602470560465008
1761467841572835600,5.969835693359375,-0.008624035960435867,0.0008419672494754195,0.005711482115136459
1761467841582789600,5.97978955078125,-0.010867430973052978,-0.002794507823046297,0.004369712117360904
1761467841592743700,5.98974365234375,-0.009369885891675948,-0.009568458937387912,-0.010473326222086325
1761467841602697700,5.99969775390625,-0.003384381741285324,0.0030006979196332394,-0.02561442505950108
1761467841612651800,6.00965185546875,-0.009369885891675948,0.0030021592243574557,-0.004323726684320718
1761467841622606800,6.01960693359375,-0.011318097350001334,0.002909384640678763,-0.004356916567869484
1761467841632560600,6.029560546875,-0.01895136870741844,0.0008786094654351473,-0.002216370008373633
1761467841642514700,6.0395146484375,-0.007879939594864846,-0.00726246528364718,-0.0004614800319075584
1761467841652468700,6.04946875,-0.009525953236222266,0.0011256978279910981,0.008451154478406534
1761467841662423600,6.059423583984375,-0.015659341424703595,0.0007997903418727218,-0.0015022029901854692
1761467841672377900,6.0693779296875,-0.014314941078424452,-0.00853602888341993,0.004645350720966234
1761467841682332000,6.079331787109375,-0.00429039067029953,-0.01480139115480706,0.006929296939680352
1761467841692285700,6.08928564453125,-0.00234451729953289,-0.012581103023141622,-0.005312217131862417
1761467841702239700,6.09923974609375,-0.01446457868218422,-0.002599935099016875,-0.005687525850813836
1761467841712194600,6.109194580078125,-0.015063713619112967,-0.002910224890895188,-0.0016091430965345353
1761467841722148600,6.119148681640625,-0.013566753059625625,-0.0069639207284897565,-0.02033497768607922
1761467841732102700,6.1291025390625,-0.008629296657443046,-0.015902849590685216,0.0005745119523257017
1761467841742056700,6.139056640625,-0.0030921207964420315,-0.005844762239139527,0.005998254034109413
1761467841752011800,6.14901171875,-0.0020469956576824187,-0.008006579915527254,0.0016524525152985005
1761467841761965800,6.1589658203125,-0.01281973408460617,-0.013262746878061444,-0.01753566582375206
1761467841771919600,6.168919677734375,-0.00384030881524086,0.0025492826240137217,-0.0027460473051294683
1761467841781873700,6.178873779296875,-0.018655016109347344,-0.0023826756191439925,0.004173851618543267
1761467841791827700,6.18882763671875,-0.013718728750944136,0.008286200574506073,-0.006991913847113028
1761467841801782500,6.198782470703125,-0.012372574838995933,0.005764463544543832,-0.009936890390980987
1761467841811736800,6.20873681640625,-0.019257658177614212,-0.017259835423901675,-0.010438172710314393
1761467841821691000,6.21869091796875,0.0015431377887725828,-0.002224525915365666,-0.0012324096054770052
1761467841831644700,6.228644775390625,-0.008930909952521323,0.008231383381038904,0.000002648614812642336
1761467841841599700,6.238599853515625,-0.009079963034391403,0.0015753778242506085,-0.003195170178962871
1761467841851553800,6.2485537109375,-0.0014484452426433562,-0.013712353809084742,0.0000397566216532141
1761467841861507600,6.258507568359375,0.0019920506000518797,-0.012482976410910486,-0.004144232798414305
1761467841871461600,6.268461669921875,-0.00234627086520195,-0.006494787113089114,0.003964318787399679
1761467841881415700,6.278415771484375,-0.018355156379938124,-0.005233882065489888,-0.008772467987798153
1761467841891370800,6.288370849609375,-0.009526537758111953,-0.009435772468429058,-0.010843319445103406
1761467841901324800,6.29832470703125,-0.006831891846656799,-0.00601173457019031,-0.003109190662251785
1761467841911278800,6.30827880859375,-0.007281389179825782,0.009381064872816204,-0.00797506139925681
1761467841921232600,6.318232666015625,-0.0018961890101432798,0.004980053434893488,-0.0024819256093818695
1761467841931187700,6.328187744140625,-0.00803133076429367,-0.005192965533211827,-0.004274891707068309
1761467841941141500,6.3381416015625,-0.004290975192189217,0.0027494448386132715,-0.0030082693047355858
1761467841951095800,6.348095703125,-0.011177227574586867,0.0013902122493833302,-0.005465699793677776
1761467841961049900,6.3580498046875,-0.003098550537228584,-0.004848225482460111,0.0004190930617507547
1761467841971004700,6.368004638671875,-0.008038929548859595,0.000771039171423763,-0.0010269958270248025
1761467841980958700,6.377958740234375,-0.012081482937932014,-0.005444803136121481,-0.0002582490773871541
1761467841990912800,6.387912841796875,0.012158055305480956,0.00435392089318484,0.00649064066093415
1761467842000866600,6.397866455078125,-0.006695113724470138,-0.00107838808754459,0.0019897307788021863
1761467842010820600,6.407820556640625,-0.017915595918893815,-0.004452065771725028,-0.009390261959424242
1761467842020775700,6.417775634765625,-0.00938683702647686,-0.007470792538393289,-0.006292579071875661
1761467842030729700,6.427729736328125,-0.012080898416042327,0.0018326222546398638,-0.011501746821217239
1761467842040683800,6.437683837890625,0.004077624702453613,-0.004683353776950389,-0.006531493261130526
1761467842050637800,6.447637939453125,-0.00894201586842537,0.0030060134155675765,-0.005510607514483854
1761467842060592400,6.45759228515625,-0.01926759504973888,-0.009395239528641105,0.002278977782651782
1761467842070546400,6.46754638671875,-0.009991817182302474,-0.0017303857228718697,-0.0027253789764363316
1761467842080500500,6.47750048828125,-0.0013134206861257552,-0.00306044701654464,0.005077175400126725
1761467842090454300,6.487454345703125,-0.016128127980232238,0.0017348061696626244,-0.005178882208932191
1761467842100408600,6.49740869140625,-0.017026538124680517,-0.008699347952660173,0.005224867641972377
1761467842110363400,6.50736328125,-0.0005681552767753601,-0.012362528369016945,0.000597244373941794
1761467842120317400,6.5173173828125,-0.008797638961672783,-0.0050585802975110705,-0.010936550686508416
1761467842130271500,6.527271484375,-0.0025128596037626264,0.0012242445653304456,-0.00690849161366932
1761467842140225500,6.5372255859375,-0.011643091520667075,0.003423051517549902,0.0066774776030797504
1761467842150180400,6.547180419921875,-0.011343816313147544,0.004436283680703491,-0.006399071653652936
1761467842160134700,6.557134765625,-0.007454407659173011,0.008208185168541967,-0.0041049511007964605
1761467842170088400,6.56708837890625,-0.0026671733826398847,-0.0032588739317841826,-0.0003512702562380582
1761467842180042500,6.57704248046875,-0.020028642550110817,-0.0019699666324071584,0.004695911864424124
1761467842189997300,6.586997314453125,0.004659223982691764,-0.002212287488300353,-0.004635916172340512
1761467842199951400,6.596951416015625,-0.005817161846160888,-0.007721479363832623,-0.005302873914781957
1761467842209905400,6.606905517578125,-0.006116437053680419,0.0014236761275678873,0.007103055204544216
1761467842219859500,6.616859375,-0.0035749358773231503,0.002979600332677364,0.0034581867630127817
1761467842229814500,6.626814453125,0.00405599739253521,0.004584533044975251,0.001542261005938053
1761467842239768600,6.6367685546875,-0.008662614405155181,0.0007938537914305925,-0.003957697250368073
1761467842249722400,6.646722412109375,-0.010458265650272369,-0.002029514799918979,0.004254259910993278
1761467842259676400,6.656676513671875,-0.015248422536253928,-0.0026911205138079822,0.0013462269771844148
1761467842269630500,6.66663037109375,-0.021685762107372282,0.006376731957681477,-0.008771043215692043
1761467842279585300,6.676585205078125,-0.005077741655707359,0.004205525398440659,0.0007827022097539157
1761467842289539600,6.68653955078125,-0.009567454290390014,0.0036548875120468436,0.002829277742328122
1761467842299493600,6.69649365234375,-0.019445289704203606,0.007881108638644219,-0.0011461560941301286
1761467842309447400,6.706447509765625,-0.01196399403810501,-0.004361629275605082,-0.012944474709127098
1761467842319402500,6.716402587890625,-0.0031371289819478987,0.003174483583960682,0.015345654099341481
1761467842329356500,6.7263564453125,-0.00957154594361782,-0.0007340864282101392,-0.010639284772984682
1761467842339310300,6.736310302734375,-0.008675473886728286,-0.008456515640113502,-0.006871502337837591
1761467842349264400,6.746264404296875,-0.01017068088054657,0.0058831214881502085,-0.001209576719161123
1761467842359219500,6.756219482421875,-0.012715689188241957,-0.01080196452140808,0.0024188337779138236
1761467842369173500,6.766173583984375,-0.014360533785820006,0.006395728919096291,0.000867914541484788
1761467842379127600,6.77612744140625,-0.006129881057143211,0.006220007026009261,-0.0037557266711723057
1761467842389081600,6.78608154296875,-0.014809446597099303,0.00681623761979863,-0.0029629871245939283
1761467842399036400,6.796036376953125,-0.014658055427670479,-0.0022345541190356014,-0.014301177414553239
1761467842408990500,6.805990478515625,-0.016156185030937194,-0.0018708901721052823,-0.010843520374502987
1761467842418944300,6.8159443359375,-0.010321487528085708,-0.000039089901372790336,0.004575226360512897
1761467842428898600,6.825898681640625,0.0022486557096242903,0.0005274031412787735,0.008500637909630312
1761467842438853400,6.835853271484375,0.004941548055410385,-0.004704396564979106,-0.004340467756567523
1761467842448807400,6.845807373046875,-0.002390110006928444,0.00562268045367673,0.0019075323880650102
1761467842458761500,6.855761474609375,-0.017653145590424538,-0.012935067559964954,0.006552042858814821
1761467842468715500,6.865715576171875,-0.011817279043793677,-0.006087430154904723,-0.0017447521749418228
1761467842478670300,6.87567041015625,0.0013479074776172636,-0.0035975861005485056,0.008000652498239651
1761467842488624600,6.885624755859375,-0.016309914287924766,0.0004611147057265043,0.002666150469332933
1761467842498578400,6.895578369140625,-0.013912790018320083,-0.0028078787612728774,-0.009150589718343689
1761467842508532500,6.905532470703125,-0.014509002345800399,0.001158102260250598,-0.00886958995303139
1761467842518486500,6.915486572265625,-0.0026876316487789154,-0.0009785261759534477,-0.009088155474001542
1761467842528441300,6.92544140625,-0.010318564918637274,-0.0005806859647855162,0.008974310702830552
1761467842538395400,6.9353955078125,0.001651274338364601,0.002601104142796248,0.0006082954909186809
1761467842548349400,6.945349365234375,-0.007778232786059379,-0.006896591113321483,0.0024279395329765974
1761467842558304500,6.955304443359375,-0.003740355572104454,-0.011755392788723111,0.00018487331392243503
1761467842568258600,6.965258544921875,-0.01092354507446289,-0.00005558437844738364,-0.008212368153315037
1761467842578212600,6.975212646484375,-0.0032902737170457837,-0.011934384351130574,-0.0032621801337227225
1761467842588166400,6.98516650390625,-0.012267360898852348,-0.016016301636211573,-0.004762118101585656
1761467842598120400,6.995120361328125,0.005392214432358741,0.0015531111935153602,-0.0068963993170764295
1761467842608075300,7.0050751953125,0.0004541735082864761,-0.002494830756727606,-0.006880617226054891
1761467842618029300,7.015029296875,-0.01824994243979454,-0.0019088658286258576,-0.00017095438642427324
1761467842627983600,7.024983642578125,0.001803250029683113,-0.0009122012077830732,-0.006050577876390889
1761467842637937700,7.034937744140625,-0.005679214680194855,-0.0059886642218567425,-0.009316210342524573
1761467842647892500,7.044892578125,-0.016004793861508368,-0.009999324635323137,-0.000506606948422268
1761467842657846500,7.054846435546875,-0.0014899462968111037,-0.005489738256391138,-0.0045937483978923405
1761467842667800300,7.06480029296875,0.003595394143462181,0.004163567686546594,-0.0041230347467586395
1761467842677754400,7.07475439453125,-0.013611761245131491,-0.0059459210586734115,0.007220882031088695
1761467842687709700,7.084709716796875,-0.011814356434345245,-0.017282960571162402,-0.0015072536246385423
1761467842697663500,7.09466357421875,-0.011813187390565872,-0.010316884418204426,0.006658124448638409
1761467842707617500,7.104617431640625,-0.010767477729916573,-0.0006945398691110313,0.0019347491885535419
1761467842717571600,7.114571533203125,-0.0004424830704927444,0.009315068698208778,0.005383592734485864
1761467842727526400,7.1245263671875,-0.014208558094501495,0.002898479654174298,-0.00890124546661973
1761467842737480400,7.13448046875,-0.006875730988383293,-0.003432988389674574,-0.011414159869309513
1761467842747434500,7.1444345703125,-0.010317395874857901,-0.00018037980189546942,0.0043881976221222425
1761467842757388300,7.15438818359375,-0.011513327661156654,-0.009484287785273045,-0.006277189706498757
1761467842767343600,7.164343505859375,-0.010763386076688766,-0.0023451200877316293,-0.0008131338806357234
1761467842777297400,7.17429736328125,-0.002381342178583145,-0.009596625585947186,-0.004777516600117087
1761467842787251500,7.18425146484375,0.005697919380664825,-0.009816752876341343,0.006969291023351251
1761467842797205500,7.19420556640625,-0.010013444492220878,-0.0011239442623220384,0.00585211442853324
1761467842807160300,7.204160400390625,-0.0025309797823429105,-0.004285075174365193,0.004027154890540987
1761467842817114400,7.2141142578125,-0.012258593070507048,0.003241721867583692,0.0064405727078206835
1761467842827068700,7.224068603515625,-0.007471943315863609,0.0004287833387032151,-0.008898268058244138
1761467842837022500,7.2340224609375,-0.01704991900026798,-0.0007504713074304163,0.005398680705763399
1761467842846977500,7.2439775390625,-0.004779050970077514,0.0016588365903124212,0.007380419974355026
1761467842856931300,7.253931396484375,-0.015102292063832281,-0.0030337051400914786,-0.004587254725024104
1761467842866885400,7.263885498046875,0.0031511575073003765,-0.002796023926697671,-0.004726087806979194
1761467842876839400,7.27383935546875,-0.009417816686630248,-0.0011909085513092576,0.0012583203648682682
1761467842886794500,7.28379443359375,-0.0017886369824409484,-0.005297942011337727,-0.0007983107708394527
1761467842896748500,7.29374853515625,-0.008671966755390167,0.002204926165752113,-0.0007024948467034846
1761467842906702600,7.30370263671875,-0.0010398644417524336,-0.008569766756240278,-0.0010326401165220887
1761467842916657400,7.313657470703125,-0.0034369887113571166,0.004407148917764425,0.0048110261440742754
1761467842926611500,7.323611572265625,-0.00837561415731907,0.004150817802827805,0.005516060007736087
1761467842936565500,7.3335654296875,-0.013015548917651176,-0.00474640907580033,0.0010933573278132825
1761467842946519300,7.343519287109375,-0.01855447834432125,-0.008443601359613239,-0.007953589352965354
1761467842956474600,7.353474609375,-0.006881576207280159,-0.00906387041611597,0.0003807429458945989
1761467842966428400,7.363428466796875,0.0032949498921632766,0.005701097718439996,-0.007412102887406945
1761467842976382500,7.373382568359375,-0.014360533785820006,0.009113682640902697,-0.002101073065632954
1761467842986336500,7.38333642578125,-0.014810615640878676,-0.006114756553247571,-0.002997455649776384
1761467842996291300,7.393291259765625,-0.00852583628296852,0.001257178720552474,-0.0017404961249325424
1761467843006245400,7.403245361328125,-0.017802783194184303,0.010947875798121095,-0.011155481533659622
1761467843016199400,7.413199462890625,-0.013612930288910864,0.0006298954013735055,-0.011596220171637833
1761467843026153500,7.423153564453125,-0.003140636113286018,-0.000616834990400821,-0.0065057377653662115
1761467843036108500,7.433108642578125,-0.012568974193930625,-0.002550433401484042,-0.011103577816486358
1761467843046062600,7.4430625,0.006435001483559608,-0.004629376833699643,-0.007505142332566901
1761467843056016400,7.453016357421875,0.0013467384338378906,0.0009064107878133654,-0.00567604547557421
1761467843065970200,7.46297021484375,0.003740355572104454,0.0000624342443421483,0.005029527732962742
1761467843075925200,7.47292529296875,-0.014065350231528282,0.0006301876623183489,-0.0016115268498659134
1761467843085879300,7.48287939453125,-0.01945288848876953,0.00243862532377243,-0.004100494121387601
1761467843095833300,7.492833251953125,-0.017058102306723593,0.005146349912509322,-0.005383985460130498
1761467843105787400,7.502787353515625,-0.006433247917890549,-0.007547456237487494,0.0013351119281258433
1761467843115742200,7.5127421875,-0.010326748225092887,-0.002972476472146809,-0.004428474833583459
1761467843125696300,7.5226962890625,-0.007183774024248123,0.0007327164550311864,-0.0046596623741090295
1761467843135650000,7.532650146484375,-0.013469137904047966,-0.0001433174608275294,-0.01367750169141218
1761467843145605400,7.54260546875,-0.006734276691079139,0.007000435080286115,-0.006641063715983182
1761467843155559400,7.552559326171875,-0.00868015006184578,-0.006034768385905772,-0.012090095502650364
1761467843165513200,7.56251318359375,-0.002246317622065544,0.006294497034326195,-0.007987820416130125
1761467843175467300,7.57246728515625,-0.0028436989933252332,-0.002832045088149607,0.005966826849384233
1761467843185422000,7.582422119140625,-0.009129062873125076,-0.0116543983659707,-0.0008501414227765053
1761467843195376000,7.592376220703125,0.0083785367667675,-0.0003122442869469523,-0.005159748250199481
1761467843205330200,7.602330078125,-0.000751110628247261,-0.010094711301196366,-0.0008877882857341319
1761467843215284200,7.6122841796875,-0.0055395139485597605,0.0035213607928715643,-0.00533677618438378
1761467843225239300,7.6222392578125,-0.0025444237858057023,-0.00034355274066329,0.0028309399764519182
1761467843235193300,7.632193359375,-0.019601357048749924,-0.003550258093792945,0.005199523138161749
1761467843245147100,7.642147216796875,-0.008076923471689224,-0.0008027312176302075,0.00535538042015396
1761467843255101200,7.65210107421875,-0.006132219144701957,-0.006931187502667307,-0.013739187017083166
1761467843265056300,7.66205615234375,-0.011667056918144226,-0.0007246792790479957,-0.005972014481155201
1761467843275010300,7.67201025390625,-0.010319733962416647,0.0010747713583521543,0.006837280407827347
1761467843284964400,7.68196435546875,-0.004783727145195007,-0.003816964472271502,-0.00038161059557460244
1761467843294919200,7.691919189453125,0.0007534487158060073,-0.01205094166919589,0.00001508797127753496
1761467843304873200,7.701873291015625,-0.0013408932149410247,0.00244969470705837,-0.000607829700037837
1761467843314827300,7.7118271484375,0.0010503858357667922,-0.00956060442449525,0.004171212136885151
1761467843324781000,7.721781005859375,-0.0019411971956491468,0.007155844837706536,0.00010386223327368497
1761467843334736400,7.731736328125,0.0028460370808839797,-0.005058251503948122,-0.009743176183477044
1761467843344690400,7.7416904296875,-0.005233809000253677,0.003121858347579837,-0.007470144084421917
1761467843354644200,7.751644287109375,-0.005681552767753601,0.0008452003861777484,-0.012754897820623591
1761467843364598300,7.761598388671875,-0.01645604476034641,-0.0043642778904177245,-0.007653610892547294
1761467843374553000,7.771552978515625,-0.026333295652270317,0.002726739816460758,-0.005568867907207459
1761467843384507100,7.781507080078125,0.007934300130605696,-0.00190840917089954,-0.007904690443631261
1761467843394461200,7.791461181640625,-0.009418985730409621,-0.00535082297604531,0.002952210002252832
1761467843404415200,7.801415283203125,-0.008521160107851028,-0.015983093486353753,0.00323691782830283
1761467843414370300,7.811370361328125,0.004346504771709442,-0.0027731727740727364,-0.0031609847815707325
1761467843424324400,7.821324462890625,-0.018996961414813995,0.0021784948165528475,-0.006930712578631937
1761467843434278100,7.831278076171875,-0.01570668769776821,0.000582001139037311,-0.009279896920127794
1761467843444233200,7.841233154296875,-0.007176759761571884,-0.0007969042650423944,0.00882621660218574
1761467843454187300,7.851187255859375,-0.006726677906513214,0.009183058082684874,0.0021111469350755213
1761467843464141000,7.86114111328125,-0.004932195705175399,-0.0021761932616122066,-0.005763221435528248
1761467843474095400,7.871095458984375,-0.002389525485038757,-0.000629804069828242,-0.007869820059649646
1761467843484050200,7.88105029296875,-0.0011924246549606323,0.0013304266198538243,-0.01150151849235408
1761467843494004200,7.891004150390625,0.002847790646553039,0.0026770006569102403,-0.0031018202065490183
1761467843503958300,7.900958251953125,-0.004484451937675476,0.006681651454698294,-0.0025674393352121115
1761467843513912300,7.910912353515625,-0.010470540609955788,0.00010356997232884168,0.004206137319793924
1761467843523867100,7.9208671875,-0.004483867415785789,-0.0028881957221776246,0.00993109997101128
1761467843533821400,7.930821533203125,-0.010769231295585631,0.00040885479552671313,-0.007803111498989164
1761467843543775200,7.940775146484375,-0.0010445406168699263,-0.002699303820263594,-0.010452858822792769
1761467843553730300,7.950730224609375,-0.004334229812026024,-0.0026307138297706843,-0.011651676685921847
1761467843563684400,7.960684326171875,-0.005381108516454697,0.01009953360678628,-0.01037514481092803
1761467843573638100,7.97063818359375,-0.008673720321059227,-0.002805595472641289,-0.007244947893265634
1761467843583592200,7.98059228515625,0.005540098470449447,0.006973510540742427,0.00779248050712049
1761467843593547300,7.99054736328125,-0.004933949270844459,0.0003757014445960521,0.008195809744158759
1761467843603501300,8.000501220703125,-0.007778232786059379,-0.006897285233065486,0.005469599650660529
1761467843615321000,8.012321044921874,-0.022145196312665937,-0.00010957958800718187,-0.005707070801500231
1761467843625276400,8.0222763671875,-0.004639350238442421,-0.01008408030932769,-0.0007098835687153041
1761467843635230200,8.032230224609375,-0.013765490502119063,0.004045823058392853,0.0038233211478218435
1761467843645184300,8.042184326171874,-0.005984919628500938,0.008686999927740543,0.0010082271944731474
1761467843655138300,8.05213818359375,-0.014814122772216796,0.005360010929498821,-0.008269943559449166
1761467843665093000,8.062093017578125,-0.010922376030683517,0.004876373864710331,-0.015448118959972635
1761467843675047200,8.072047119140626,0.010176526099443434,-0.011007332634087652,-0.0037324005945120003
1761467843685001200,8.082001220703125,-0.009425999993085861,-0.006223715086746961,0.003153943119430914
1761467843694955300,8.091955322265624,-0.0076303487479686734,0.0007929587422870099,-0.00366498878095299
1761467843704910300,8.101910400390626,-0.01630932976603508,-0.012848065129946917,0.0025119828209280966
1761467843714864000,8.111864013671875,-0.007781155395507812,-0.008805804001819342,-0.0026324399959761647
1761467843724818200,8.121818115234374,-0.003592471534013748,-0.005643248317670077,-0.004797289879666641
1761467843734773200,8.131773193359376,-0.0133195003002882,-0.0014092092107981442,0.0017544059192761779
1761467843744727000,8.14172705078125,-0.013767244067788124,0.010975476191099733,0.0008197736839763819
1761467843754681300,8.151681396484374,-0.013768997633457182,-0.004218056086450815,-0.005294992002425715
1761467843764635400,8.161635498046875,-0.017210662519931794,-0.004655424590408802,0.0013936645817942917
1761467843774590200,8.171590087890625,-0.0074824647098779675,-0.005327990089729428,0.00843438600669615
1761467843784544300,8.181544189453126,0.0010457096606492995,0.0046110191931016745,-0.001950777874747291
1761467843794498300,8.191498291015625,-0.004490881678462028,0.008508830349240451,0.0022074377832468598
1761467843804453000,8.201453125,-0.005986088672280311,0.0062389491884969174,0.010835291402274742
1761467843814407400,8.211407470703126,-0.00434007503092289,-0.001687660825997591,-0.0027605690208263693
1761467843824361200,8.221361328125,-0.006284194836020469,0.0031939372031018136,0.005489820454781875
1761467843834315300,8.231315185546874,-0.002992752075195312,-0.005311751340981573,0.00009902166137471794
1761467843844270300,8.241270263671876,-0.0113718733638525,0.0029132205655798315,-0.010555981270549818
1761467843854224100,8.25122412109375,-0.007331658062338829,-0.001284194591641426,-0.0031011169536504894
1761467843864178200,8.26117822265625,-0.0010468787044286727,-0.0026256175295449793,-0.007563466657372191
1761467843874132200,8.27113232421875,-0.007930208477377892,-0.003078768124524504,-0.0017624796278774737
1761467843884087300,8.28108740234375,-0.0034381577551364896,-0.005716587548516691,-0.005108337723370641
1761467843894041300,8.291041259765626,-0.005680968245863914,-0.007713624850939959,-0.004532227469002828
1761467843903995400,8.300995361328125,-0.002835515686869621,-0.007943268888350575,-0.003211007068911567
1761467843913950200,8.3109501953125,-0.00867313579916954,-0.00010658391332253813,-0.011843710392992942
1761467843924526300,8.3215263671875,-0.012566051584482192,-0.0027475999413989483,-0.01010747031806968
1761467843934481200,8.331481201171876,-0.008823942446708678,0.007693056986946612,-0.004728444160846993
1761467843944435500,8.341435546875,-0.012118307816982268,-0.001692373533733189,0.0122788504072465
1761467843954389200,8.35138916015625,-0.006879238119721413,-0.0019386216460727155,0.0005594970462843775
1761467843964344300,8.36134423828125,-0.007478373056650161,-0.0005775806922465563,-0.005749339040648191
1761467843974298000,8.371298095703125,-0.007927285867929458,-0.0026462036598473787,-0.0038510220055002716
1761467843984252200,8.381252197265624,-0.025433131942152975,0.0068066112749278545,0.003602773732319474
1761467843994206200,8.391206298828125,-0.007176175239682197,-0.007725753680150956,-0.018268345746165142
1761467844004161300,8.401161376953125,-0.0007417582780122757,-0.007248053165804594,0.004707392239663749
1761467844014115300,8.411115234375,0.00015665186643600462,0.0017174897086806595,0.0008840254260692745
1761467844024069400,8.4210693359375,-0.008521744629740714,0.011428462389297782,-0.008083152283076196
1761467844034024200,8.431024169921875,-0.013012626308202742,-0.006314973566774278,-0.004360688560688868
1761467844043978200,8.440978271484376,-0.011364274579286574,0.001402962133102119,-0.0008220295731443912
1761467844053932300,8.450932373046875,-0.004483282893896103,-0.005114109877031296,0.003285597541928291
1761467844063886300,8.46088623046875,-0.004485036459565162,-0.0035699126423336565,-0.009497265997854993
1761467844073841400,8.47084130859375,-0.007329319974780082,-0.006240300895366817,-0.0033504977379925547
1761467844083795200,8.480795166015625,-0.010469371566176415,-0.0010606149688363075,-0.0022139497224241494
1761467844093749200,8.490749267578124,-0.008074585384130478,-0.0010794840660877526,-0.01344338240828365
1761467844103704300,8.500704345703125,-0.010917115333676338,-0.0022764387656934557,-0.010348795660119503
1761467844113658400,8.510658447265625,-0.01810147387981415,-0.0040229536394588645,-0.0012137140381615608
1761467844123612400,8.5206123046875,0.0019476269364356994,-0.0018421755342744289,0.00298399338000454
1761467844133566500,8.53056640625,-0.006283025792241096,0.0032973610449582337,0.002327410901105031
1761467844143521300,8.540521240234375,0.004040799823403358,0.0013688406677916645,0.0000050415012985467904
1761467844153475300,8.550475341796876,-0.019003975677490233,-0.004596771472040563,0.00977055738074705
1761467844163429400,8.560429443359375,-0.016011808124184606,-0.0022231376758776603,0.005356540330778807
1761467844173384400,8.570384521484375,-0.008831541231274604,-0.004368369543645531,0.0038413408617023375
1761467844183338500,8.58033837890625,-0.0008995791882276535,0.009362049645092338,0.005353097131522372
1761467844193292300,8.590292236328125,0.0019435352832078933,0.002473532240372151,0.0010354805275797844
1761467844203246300,8.600246337890624,-0.015563479834794997,-0.0008295826919376849,0.009240478225192054
1761467844213201400,8.610201416015625,-0.0008995791882276535,-0.0005275127391330897,-0.004818780192267149
1761467844223155200,8.6201552734375,-0.007932546564936638,-0.0005567023009993135,0.0023097108476329595
1761467844233109200,8.630109130859376,-0.004939794489741325,-0.008625497265160082,0.0006482895745895803
1761467844243064300,8.640064208984375,-0.009277531433105468,-0.0005896181899122893,0.0007429729875642806
1761467844253018400,8.650018310546875,-0.01346504625082016,-0.0014084420258179307,-0.005342630536435172
1761467844262972400,8.659972412109376,-0.010174188011884688,-0.01002358229374513,0.0022450663798954337
1761467844272926200,8.66992626953125,0.0007499415844678879,0.005082472629752009,-0.00839209036808461
1761467844282881300,8.67988134765625,-0.006132803666591644,0.008958528611809015,0.000701417134469375
1761467844292835300,8.68983544921875,-0.005833528459072113,0.0037532150536775588,-0.015403421301720663
1761467844302789400,8.699789306640625,-0.005981412497162819,-0.004533917102590203,0.005515667282091454
1761467844312744400,8.709744384765624,-0.02214168918132782,-0.0033640696056187152,0.001796911620441824
1761467844322698200,8.7196982421875,-0.019746902999281883,-0.0020212949608452617,-0.0007977993141859769
1761467844332652300,8.72965234375,-0.0005956278055906295,-0.003451711356453597,-0.0004573883786797523
1761467844342606300,8.7396064453125,-0.008376198679208755,0.003559117253683507,-0.0013094842965248972
1761467844352561200,8.74956103515625,-0.009570376899838447,0.010775113047100602,0.003768385223345831
1761467844362515500,8.759515380859375,-0.0008908113598823546,0.00595779415955767,-0.00013506108913570642
1761467844372469500,8.769469482421876,-0.01285889705121517,-0.011362795008253306,-0.005964589226525276
1761467844382424300,8.77942431640625,-0.01899462332725525,0.009298482889588922,0.003950701254000887
1761467844392378400,8.78937841796875,-0.0016378303349018097,0.0003470598720014095,-0.014253904206724836
1761467844402332400,8.79933251953125,-0.007923194214701652,-0.0006980835330672562,0.003722244526678696
1761467844412286200,8.8092861328125,-0.0028337621212005614,-0.0007508731662295758,-0.000042825361574068664
1761467844422241500,8.819241455078124,-0.01450549521446228,0.0064398420554585755,-0.013506410307670011
1761467844432195300,8.8291953125,-0.00043722237348556514,0.0003612710604444146,-0.00994281780826859
1761467844442149400,8.8391494140625,-0.0020808979272842407,-0.0022552133145742116,-0.008320678232843055
1761467844452104400,8.8491044921875,-0.012706921359896659,0.0015467910505831241,-0.009950069532962515
1761467844462058200,8.859058349609375,-0.006122866794466972,-0.0036962789683602747,0.01083469774723053
1761467844472012300,8.86901220703125,-0.012705752316117286,-0.008083572408184409,0.0010019161846954376
1761467844481967400,8.87896728515625,-0.00312660758793354,0.004423205003421754,0.0022766579614020882
1761467844491921400,8.88892138671875,-0.005371171644330024,-0.004138250582199543,-0.016400670444453133
1761467844501875500,8.89887548828125,-0.0013309563428163527,-0.001913560270052403,-0.0019406948721501975
1761467844511829500,8.90882958984375,-0.005219780474901199,0.0005357143118977547,0.00541292842682451
1761467844521784300,8.918784423828125,-0.0005804302364587784,-0.0018528795913793146,-0.004807729075290262
1761467844531738400,8.92873828125,-0.013598901763558387,-0.0016851948742754757,-0.009168655097996815
1761467844541692200,8.938692138671875,-0.011805588605999945,-0.007744805440492927,0.003090084102982655
1761467844551647500,8.9486474609375,-0.017939561316370964,-0.0044752639842219645,0.0017069043825846165
1761467844561601300,8.958601318359374,-0.009258826732635497,-0.00605257803723216,0.0027628797089215367
1761467844571555300,8.968555419921875,-0.017637948021292687,-0.009690550947096198,-0.00270825431169942
1761467844581509400,8.97850927734375,-0.008360416588187217,0.0055940206147730345,0.0017534652043599635
1761467844591464200,8.988464111328126,-0.0049205052673816675,-0.005422134646587073,-0.009892347996355966
1761467844601418200,8.998418212890625,-0.016890344524383545,0.0018780140326358377,-0.004104421377833932
1761467844611372300,9.008372314453124,-0.008210778984427451,-0.009659571286942809,-0.009955056235333904
1761467844621327400,9.018327392578126,-0.002374327915906906,-0.0248010628500022,0.0002432433045003563
1761467844631281400,9.028281494140625,-0.016290040543675423,0.0029981406363658604,-0.0010628891243133693
1761467844641235500,9.0382353515625,-0.018835633373260496,-0.003675163115095347,-0.0025552009081467983
1761467844651189200,9.048189208984375,-0.009707155022025108,0.0035026195597834884,-0.01873399962969124
1761467844661144300,9.058144287109375,-0.0034200375765562055,-0.004082757535297423,-0.006895376403769478
1761467844671098000,9.06809814453125,-0.0022229367464780807,0.008311261950526385,0.0052500477490015325
1761467844681052400,9.078052490234375,-0.011650690305233,0.005064900440443307,0.004046864238008856
1761467844691007500,9.088007568359375,-0.0071615621924400324,0.00282274753684178,-0.0018064375006128103
1761467844700961300,9.097961181640626,0.009897124636173248,-0.0067551916149444875,-0.006448582484340295
1761467844710915300,9.107915283203125,-0.0005763385832309722,-0.004555142553709447,-0.0053920135029591615
1761467844720869400,9.117869384765624,-0.004468085324764251,-0.0028939130769111213,-0.0023494492029771208
1761467844730824200,9.12782421875,-0.009703647890686989,-0.009094411684852094,-0.002787648823997006
1761467844740778500,9.137778564453125,-0.008657353708148002,-0.0032202589544467627,0.004835585196595639
1761467844750732500,9.147732666015624,-0.021227496945858,-0.002422368308715522,-0.00436363856960088
1761467844760687400,9.157687255859376,0.001969254246354103,0.0006268083951435983,-0.0012781484433449803
1761467844770641400,9.167641357421875,-0.01418868435025215,0.006352163772005587,0.007528240080364048
1761467844780595200,9.17759521484375,-0.014785481199622154,-0.002249441160913557,-0.006939398208586499
1761467844790550300,9.18755029296875,-0.0055061962008476255,-0.017442352383956312,-0.0037747510320506987
1761467844800504300,9.19750439453125,-0.013286182552576064,-0.0008979534867219626,-0.008096879414329305
1761467844810458400,9.207458251953126,-0.018673136287927626,-0.005949318592157214,-0.00934947329130955
1761467844820412400,9.217412353515625,-0.01358662680387497,-0.009666658614855259,-0.004070007651578634
1761467844830367200,9.2273671875,-0.0053594812065362925,-0.005213387266732752,-0.012321009048540145
1761467844840321300,9.2373212890625,0.0012257424026727675,0.008817165646050125,-0.004522144466405734
1761467844850275300,9.247275390625,-0.005209843602776527,0.0018237082958221435,0.003986859412770718
1761467844860230400,9.25723046875,-0.009252396991848945,0.011343268323875963,-0.0016774225597735494
1761467844870184400,9.267184326171876,-0.016736615267395973,0.01155570549815893,0.00900402085450478
1761467844880138500,9.277138427734375,-0.0222732066065073,0.001367945618648082,-0.010706678320234642
1761467844890092300,9.28709228515625,0.004212649258971214,0.009151439101714641,0.002321894475771114
1761467844900047400,9.29704736328125,0.0063064066678285595,-0.00462422573454678,-0.013118908827425911
1761467844910001200,9.307001220703125,-0.0028238252490758895,-0.010230850102566183,-0.007234600029187277
1761467844919955200,9.316955078125,-0.004618307450413704,-0.010310710405744612,0.0036493162877857684
1761467844929910500,9.32691064453125,-0.010156652355194092,0.003829988350626081,-0.0010080810640007256
1761467844939864300,9.3368642578125,-0.0064162967830896376,-0.011856734271347522,-0.0036991650451906025
1761467844949818400,9.346818359375,-0.0011789806514978407,-0.0007712948997505008,-0.008388473638892174
1761467844959773200,9.356773193359375,-0.0020773907959461212,-0.013180274492688476,-0.004610462070675566
1761467844969727200,9.366727294921875,-0.022428689429163932,-0.010765011778194456,-0.00733706488981843
1761467844979681300,9.376681396484376,-0.015548282265663146,-0.008282072388660163,-0.00452535933679901
1761467844989635300,9.38663525390625,-0.01165770456790924,0.0036568237408064305,-0.002196003073779866
1761467844999590400,9.39659033203125,-0.013005612045526504,0.003409077791124582,0.003322404154669493
1761467845009544400,9.40654443359375,-0.002681201907992363,-0.0047840011398307975,-0.0028820947749540206
1761467845019498200,9.416498291015625,-0.008665537014603614,-0.019930461138952523,-0.004217224969388917
1761467845029453300,9.426453369140624,-0.013455109378695488,0.010296828010864555,0.00019252689741551876
1761467845039407400,9.436407470703125,-0.005074819046258926,0.002181874083727598,-0.006639812473813071
1761467845049361200,9.446361083984375,-0.013304302731156348,-0.0029745405650697648,-0.0053367305186111475
1761467845059315500,9.4563154296875,-0.008666706058382987,-0.00009306684462353587,-0.01355707191582769
1761467845069270300,9.466270263671875,0.0012087912678718567,-0.006813826467003673,-0.01262292373771779
1761467845079224300,9.476224365234375,-0.005225625693798065,0.008582827167212963,-0.0009146214937325567
1761467845089178400,9.486178466796876,-0.0008843816190958022,-0.013366901372279971,-0.0018307316916529087
1761467845099133200,9.49613330078125,0.0034539398461580274,0.0007093538457527757,-0.000740525302151218
1761467845109087200,9.506087158203124,-0.005672200417518616,-0.0006765110220760107,0.0002857764051295817
1761467845119041500,9.51604150390625,0.000014028525352478027,-0.005764171283598989,-0.004365519999433309
1761467845128995300,9.525995361328125,-0.018693594554066658,-0.002057608383242041,0.00008081928440369665
1761467845138950400,9.535950439453124,-0.00926701003909111,-0.005327825692947954,-0.0030431305555626747
1761467845148904400,9.545904541015625,-0.009420154774188994,-0.004757606323249638,-0.002547958316607401
1761467845158858200,9.555858154296875,-0.000741173756122589,-0.003866740164440125,0.0009209325035102665
1761467845168813300,9.565813232421876,-0.01480477042198181,-0.0015770035257562994,0.0027253241775091735
1761467845178767400,9.575767333984375,-0.01480477042198181,0.012193345814570784,0.0009570906622800976
1761467845188721400,9.585721435546875,-0.0025350714355707165,-0.008016151461470871,-0.003615770211210474
1761467845198676200,9.59567626953125,-0.017198387560248374,-0.0004152480036951601,-0.002727689664531499
1761467845208630300,9.60563037109375,-0.002682370951771736,-0.000775514417141676,-0.00045461189970374103
1761467845218584300,9.615584228515624,0.0049479777961969375,0.0023737433940172192,0.0012523381486535072
1761467845228538400,9.625538330078125,-0.003583703705668449,-0.012634166650939731,-0.007869363401923329
1761467845238493400,9.635493408203125,-0.005530746120214462,-0.0052386495721526444,-0.0031006328964605927
1761467845248447500,9.645447509765624,-0.009722352591156959,0.001996324916370213,0.0019038973925635217
1761467845258401300,9.6554013671875,-0.005084171396493912,0.00334141938239336,-0.005348028230760246
1761467845268356400,9.6653564453125,-0.014212065225839614,0.0007816701632924378,-0.0003960227134171873
1761467845278310400,9.675310302734376,0.008981763356924057,0.0006495682162232696,0.0025458028921391813
1761467845288264200,9.68526416015625,-0.0035872108370065686,-0.00022487653074786067,0.004967924605682492
1761467845298219500,9.695219482421875,-0.015858078867197034,-0.004805792846530676,0.010425185364577918
1761467845308173300,9.70517333984375,-0.01196750116944313,-0.00018775939075276255,0.001971300072968006
1761467845318127400,9.71512744140625,-0.014362287351489067,-0.013199746378138661,-0.004139602289069444
1761467845328081400,9.725081298828124,0.0029939211189746857,-0.008030563579313456,-0.002192578140832484
1761467845338036200,9.7350361328125,-0.006882745251059532,-0.017876359887048603,0.003461849157977849
1761467845347990300,9.744990234375,-0.0032891046732664107,-0.0158399404223077,-0.00426068965177983
1761467845357944300,9.7549443359375,-0.005833528459072113,-0.002078578106034547,-0.0036059977358672765
1761467845367899400,9.7648994140625,-0.009575053074955939,0.001362483992241323,-0.00698028734140098
1761467845377853400,9.774853515625,-0.010472878697514534,-0.0049228798875585195,0.005278835452068597
1761467845387807500,9.784807373046876,-0.001346153911948204,-0.006205832370184362,0.003472553215082735
1761467845397761300,9.79476123046875,0.0010474632263183592,0.00364811071138829,-0.002443538960907608
1761467845407716400,9.80471630859375,-0.014663316124677658,0.0013900295862928032,0.011435586249828338
1761467845417670100,9.814670166015626,-0.007031213811039924,0.00349324894323945,0.0034072237607557323
1761467845427624200,9.824624267578125,-0.0028425299495458602,-0.0042438298485241825,0.004736106877494603
1761467845437579500,9.83457958984375,-0.00912497121989727,0.0019933657743036745,0.00632260888395831
1761467845447533300,9.844533203125,-0.0182516960054636,0.0005431852323003113,-0.006612349078152328
1761467845457487400,9.8544873046875,-0.0005927051961421966,-0.006169939072895795,0.010629612762341275
1761467845467442200,9.864442138671874,-0.015106383717060088,0.004323781483247876,-0.011364174114586784
1761467845477396200,9.874396240234375,-0.0032820904105901718,0.004928304981347173,0.0019406492063775657
1761467845487350300,9.884350341796875,-0.01719897208213806,0.0013508483533747494,0.006406003717938437
1761467845497304300,9.89430419921875,-0.012558452799916266,-0.003940700449794531,-0.005405274843331426
1761467845507259400,9.90425927734375,0.0034498481929302214,-0.003788249834440648,-0.0014110723743215202
1761467845517213400,9.91421337890625,0.0006032265901565551,0.002490666038263589,0.0018541217003948986
1761467845527167200,9.924167236328126,0.001346153911948204,-0.0014104330535046755,0.003039322030125186
1761467845537122300,9.934122314453125,0.001045125138759613,-0.006289199804700911,-0.0017227138730697333
1761467845547076400,9.944076416015625,-0.010630699607729912,0.003934910029824823,0.004967422282183542
