time,seconds_elapsed,z,y,x
1761467835668766500,0.065766357421875,-0.0014175164978951216,0.00039760139770805836,-0.0006597007159143686
1761467835678720500,0.075720458984375,-0.00014020985690876842,0.0010186105500906706,0.000633489340543747
1761467835688674800,0.0856748046875,-0.0003892154200002551,0.0005427036667242646,-0.0006874385289847851
1761467835698628600,0.095628662109375,-0.0013193254126235843,-0.0011237736325711012,0.0004554474726319313
1761467835708582700,0.105582763671875,0.0003249101573601365,0.0006142053171060979,0.0009135112632066011
1761467835718536700,0.11553662109375,-0.0008054515346884727,0.0005798636702820659,-0.0010944928508251905
1761467835728490500,0.125490478515625,-0.0006997240125201643,-0.0008957938989624381,0.0008133957162499428
1761467835738445600,0.135445556640625,0.0011255517601966858,-0.0007279746932908893,-0.000880333362147212
1761467835748399600,0.145399658203125,-0.00016714655794203281,-0.0008704538340680301,-0.0003085527569055557
1761467835758353400,0.155353515625,0.00023071380564942956,-0.0007944295066408813,0.0003752035554498434
1761467835768307700,0.1653076171875,0.0002235232968814671,0.0006178448093123734,-0.0010658330284059048
1761467835778261800,0.17526171875,-0.00048371884622611105,-0.0007331324159167707,0.000031164148822426796
1761467835788215600,0.185215576171875,0.0001296071568503976,-0.0010532443411648273,0.0016466376837342978
1761467835798169600,0.195169677734375,-0.00005957076791673899,0.00021996855502948165,0.0003176792524755001
1761467835808124400,0.20512451171875,-0.0008707696106284857,-0.000005867499567102641,-0.0004748774226754904
1761467835818078500,0.215078369140625,0.0005529086338356137,-0.00025556545006111264,-0.0009304415434598923
1761467835828032500,0.225032470703125,0.0002562325680628419,0.0013455268926918507,-0.0011493535712361336
1761467835837986600,0.234986572265625,-0.0012567320372909307,0.0007967071142047644,0.000024629058316349983
1761467835847940600,0.244940673828125,-0.00080852210521698,-0.0003886659105774015,0.00013435143046081066
1761467835857894700,0.254894775390625,0.000979132717475295,-0.0005538440309464931,0.0005500090774148703
1761467835867848700,0.2648486328125,-0.00030530986259691417,0.0002208695514127612,-0.0013613414485007524
1761467835877803500,0.274803466796875,-0.0019266970921307802,0.00010213258792646229,-0.0012569045647978783
1761467835887757600,0.284757568359375,-0.0007959189242683351,-0.00012476873234845698,0.0006334073841571808
1761467835897711600,0.294711669921875,0.0003082824405282736,0.0007817312725819647,-0.0004609266761690378
1761467835907665400,0.30466552734375,0.0004904426168650389,0.0006799984839744866,0.0009755822829902172
1761467835917619500,0.314619384765625,0.00048479519318789244,0.0004970793961547315,-0.0004481023643165827
1761467835927573800,0.32457373046875,0.00028532452415674925,0.00021238744375295937,-0.0002755294553935528
1761467835937527600,0.334527587890625,0.0002805307740345597,0.0001825600629672408,-0.00018578092567622662
1761467835947482600,0.344482666015625,0.000009953626431524754,-0.0005191828822717071,0.00016735424287617207
1761467835957436700,0.354436767578125,0.0010722886072471738,0.0003860255819745362,-0.00020255893468856812
1761467835967390500,0.364390380859375,0.0004557667998597026,0.0009908294305205345,-0.0001743293832987547
1761467835977344500,0.374344482421875,-0.0007961621740832925,0.0003699888475239277,-0.0003142068162560463
1761467835987298600,0.384298583984375,0.0003202349180355668,0.00042378471698611975,-0.0007387145888060331
1761467835997252400,0.39425244140625,0.0005408944562077522,0.00009463173046242446,0.000727109843865037
1761467836007206700,0.40420654296875,0.00038403423968702555,-0.001228426699526608,-0.00016425014473497868
1761467836017161700,0.41416162109375,-0.0009698233334347606,0.001015596790239215,-0.0002523600123822689
1761467836027115500,0.424115478515625,0.00027334026526659727,-0.00025100255152210593,-0.0009437166154384613
1761467836037069600,0.434069580078125,0.0009420897113159299,0.00003130151890218258,-0.0003239985089749098
1761467836047023600,0.444023681640625,0.0005892209010198712,-0.00010744918108684942,0.0014856193447485566
1761467836056976600,0.4539765625,-0.0008686708169989288,-0.0006026996998116374,-0.00032363017089664936
1761467836066930400,0.463930419921875,0.0004029886331409216,0.0016186429420486093,0.00010833446867763996
1761467836076885500,0.473885498046875,0.001102617010474205,0.0000975873990682885,-0.0007053841836750507
1761467836086839600,0.483839599609375,-0.0007714494713582098,-0.001210557296872139,-0.0014558627735823393
1761467836096793300,0.49379345703125,0.0010296391556039453,0.0003968604141846299,-0.0007512520533055067
1761467836106747400,0.503747314453125,-0.0006790449260734022,0.0008687725057825446,0.0011651585809886456
1761467836116701400,0.513701416015625,-0.0002989818749483675,0.00098223180975765,-0.0004167584702372551
1761467836126655200,0.5236552734375,0.0007258024998009205,0.00021657295292243361,0.0015220228815451264
1761467836136609500,0.533609619140625,0.001276223105378449,0.0011095709633082151,0.0006751781329512596
1761467836146564600,0.543564697265625,0.00017793558072298765,-0.00011974425433436409,-0.0004164515994489193
1761467836156518400,0.553518310546875,-0.0008711293921805918,0.0004031499265693128,-0.0003569405525922775
1761467836166472400,0.563472412109375,-0.00012464536121115088,0.00008223899931181222,-0.0005404322873800993
1761467836176426500,0.573426513671875,0.000668193562887609,0.0004778606235049665,0.0003217766061425209
1761467836186380300,0.58338037109375,-0.0003496666031423956,0.0004480332136154175,0.0006860971916466951
1761467836196334300,0.593334228515625,0.00010620307875797153,-0.00011712551349774003,-0.0005698909517377615
1761467836206288600,0.60328857421875,0.00010194204514846206,-0.000027643298381008208,0.0008679497987031937
1761467836216243500,0.613243408203125,0.0004984322004020214,-0.0007328084320761263,0.0010445581283420324
1761467836226197500,0.623197509765625,0.00018497812561690807,0.0004325908375903964,-0.000004993518814444542
1761467836236151600,0.633151611328125,-0.001250982517376542,-0.0002612867974676192,-0.00014040502719581127
1761467836246105300,0.643105224609375,0.001132280332967639,0.0009091725223697722,-0.0014221842866390944
1761467836256059400,0.653059326171875,0.000016595644410699606,-0.000033564378099981695,-0.00033106678165495396
1761467836266013400,0.663013427734375,0.00033777288626879454,0.00009213681914843619,0.0005278026219457388
1761467836275968500,0.672968505859375,0.0007441253401339054,0.00007840449688956141,-0.0013394830748438835
1761467836285922600,0.682922607421875,0.0005742156645283103,0.000386532221455127,0.00003311014734208584
1761467836295876600,0.692876708984375,0.00022866978542879224,-0.0001899140770547092,0.00034615444019436836
1761467836305830400,0.702830322265625,0.0006952555850148201,-0.0001731361699057743,0.00017011957243084908
1761467836315784400,0.712784423828125,-0.0000820894492790103,-0.00028816668782383204,0.000523808179423213
1761467836325738500,0.722738525390625,0.0005253775743767619,-0.00018110760720446706,0.0008103642612695694
1761467836335692300,0.7326923828125,-0.0009839150588959455,0.00021792235202156007,-0.0009176791645586491
1761467836345647600,0.742647705078125,0.0012321013491600752,0.000003271576133556664,-0.0007174094207584858
1761467836355601700,0.7526015625,0.000950582092627883,-0.00016924351803027093,0.00018333317711949348
1761467836365555500,0.762555419921875,0.0003564308863133192,-0.0008451538160443306,-0.00045982026495039463
1761467836375509500,0.772509521484375,0.0009628167608752847,-0.0011624784674495459,-0.0015979325398802757
1761467836385463600,0.782463623046875,0.0005090141203254461,-0.00023223619791679084,-0.0004972480237483978
1761467836395417300,0.792417236328125,0.0003268381115049124,-0.001050235005095601,0.0002624085173010826
1761467836405372400,0.802372314453125,-0.0021754680201411247,0.0013929489068686962,0.00033884146250784397
1761467836415326500,0.812326416015625,-0.0009545110515318811,0.0010127960704267025,-0.0013230941258370876
1761467836425280500,0.822280517578125,-0.0012868735939264297,0.00025512679712846875,0.00001860666088759899
1761467836435234600,0.832234619140625,-0.0019590076990425587,-0.00031489634420722723,-0.00045367470011115074
1761467836445188600,0.842188720703125,-0.0003959984169341624,-0.00023473519831895828,-0.0017708740197122097
1761467836455142400,0.852142333984375,-0.0015989081002771854,-0.00043411177466623485,-0.0016080520581454039
1761467836465096400,0.862096435546875,0.00047809118404984474,-0.0007342500030063093,0.0009645612444728613
1761467836475051500,0.872051513671875,-0.0008745368104428053,-0.001835543429479003,-0.0016555387992411852
1761467836485005300,0.88200537109375,0.00008180428994819522,0.00023985799634829164,-0.0003093108534812927
1761467836494959400,0.89195947265625,-0.001365678384900093,0.00020261388272047043,0.0013248457107692957
1761467836504913700,0.90191357421875,0.0013741817092522979,0.0007573503535240889,-0.0010988970752805471
1761467836514867500,0.911867431640625,0.000636188080534339,0.00036824450944550335,0.00011069024913012981
1761467836524821500,0.921821533203125,-0.00009564851643517613,0.00023428749409504235,-0.0017828173004090786
1761467836534775600,0.931775634765625,0.0018273423193022609,0.0007747409981675446,-0.000779501860961318
1761467836544730400,0.94173046875,-0.00010824308265000582,-0.0004694878589361906,0.0004673902876675129
1761467836554684400,0.951684326171875,0.0012708351714536548,-0.0010667908936738968,-0.0003847808111459017
1761467836564638500,0.961638427734375,-0.00010308960918337107,0.00123817496933043,0.000099115539342165
1761467836574592300,0.97159228515625,-0.0006448312778957188,0.0006981260376051068,-0.00003533298149704933
1761467836584546600,0.981546630859375,-0.0003833088558167219,0.0009404737502336502,0.0001401691697537899
1761467836594500600,0.99150048828125,0.00030571280512958765,0.00029814569279551506,-0.00005182391032576561
1761467836604455400,1.001455322265625,-0.0009417118853889406,0.0006313071353361011,-0.0012664918322116137
1761467836614409500,1.011409423828125,0.00026691704988479614,0.0011173118837177753,-0.0005285502411425114
1761467836624363500,1.021363525390625,0.0008813083404675126,-0.0009168106480501592,-0.0011490669567137957
1761467836634317300,1.0313173828125,0.000024617009330540895,-0.0002194350236095488,-0.001530267996713519
1761467836644271400,1.041271240234375,-0.00004355993587523699,0.0003544761857483536,0.00020771101117134094
1761467836654225400,1.051225341796875,0.0001127833966165781,0.0008369167917408049,0.00007682712748646736
1761467836664179500,1.061179443359375,0.0011737868189811707,0.000498162698931992,0.00023768190294504166
1761467836674134500,1.071134521484375,-0.00003923726035282016,-0.00110304553527385,-0.0009819024708122015
1761467836684088600,1.081088623046875,-0.0003329839382786304,0.0003909878432750702,-0.0009462160523980856
1761467836694042400,1.09104248046875,0.000472082756459713,-0.0011632994282990694,-0.0003161737695336342
1761467836703996400,1.100996337890625,-0.0006499070441350341,0.00048359937500208616,0.00032431655563414097
1761467836713950500,1.110950439453125,0.00011912733316421509,0.0005786963738501072,0.00003778096288442612
1761467836723904300,1.120904296875,-0.0008342842920683324,0.000637285877019167,0.0006734775379300117
1761467836733858300,1.1308583984375,-0.00044805530342273414,-0.001315241795964539,0.0000336221419274807
1761467836743813600,1.140813720703125,-0.00007441377965733409,0.0002192716347053647,0.0008253799751400948
1761467836753767400,1.150767333984375,0.0004120750818401575,0.0000015893456293269992,-0.0015473323874175549
1761467836763721500,1.160721435546875,-0.00018713617464527488,0.0005198405124247074,0.0009933232795447111
1761467836773675500,1.170675537109375,-0.00010284635936841369,-0.0007852366543374956,-0.00013198517262935638
1761467836783629300,1.18062939453125,-0.00026716338470578194,0.0009090664680115879,0.0004874661099165678
1761467836793583400,1.190583251953125,-0.0006291890167631209,0.0003768467577174306,0.001035155262798071
1761467836803538700,1.20053857421875,-0.0016992471646517515,-0.00011290857946733013,0.00004499196074903011
1761467836813492500,1.210492431640625,-0.0007666629389859736,0.0016695851227268577,0.0004985693376511335
1761467836823446500,1.220446533203125,0.0005020670359954238,-0.000795969448518008,0.0000048193614929914474
1761467836833400600,1.230400634765625,-0.0002354328753426671,-0.0003428015043027699,-0.0017918518278747797
1761467836843354400,1.240354248046875,0.0010218454990535975,0.00004016105958726257,0.0000928675290197134
1761467836853308400,1.250308349609375,0.0013901290949434042,0.000803138711489737,0.00018419348634779453
1761467836863262500,1.260262451171875,-0.00032787618692964315,-0.0007585389539599419,-0.0004301976878196001
1761467836873217300,1.27021728515625,0.0004269499331712723,0.0002308032417204231,-0.0018241170328110456
1761467836883171600,1.280171630859375,0.00021576130529865623,0.0003165570378769189,0.0004411679692566395
1761467836893125600,1.290125732421875,-0.0006963785272091627,0.0014651124365627766,-0.0010246974416077137
1761467836903079400,1.300079345703125,0.000972091918811202,0.00028533212025649846,0.0007942416705191135
1761467836913033500,1.310033447265625,0.000026685360353440046,0.0007691044011153281,0.0005195471458137035
1761467836922987500,1.319987548828125,0.00012176018208265305,0.0003304817946627736,-0.001347595127299428
1761467836932942300,1.3299423828125,-0.00016599212540313601,-0.00003796971577685326,0.0010814000852406025
1761467836942896400,1.339896484375,0.0010316313710063696,-0.0009367865277454257,0.0004920423962175846
1761467836952850400,1.349850341796875,0.0020865227561444044,-0.0003283931582700461,0.0001615956425666809
1761467836962804500,1.359804443359375,-0.0006831648061051965,0.0004628320166375488,0.0006569437682628632
1761467836972758500,1.369758544921875,0.0008381695370189846,0.0007571399910375476,-0.00016233325004577637
1761467836982712600,1.379712646484375,-0.0003954067069571465,0.0003091962425969541,0.0005700360052287579
1761467836992666400,1.389666259765625,-0.00026534489006735384,0.0008040204411372542,-0.0001635630615055561
1761467837002621400,1.399621337890625,-0.0013039776822552085,0.00043490633834153414,-0.0011883475817739964
1761467837012575500,1.409575439453125,-0.0011237566359341145,-0.0014240490272641182,0.0008010719902813435
1761467837022529300,1.419529296875,0.00001714163227006793,0.0002750477578956634,0.0009973468258976936
1761467837032483300,1.4294833984375,0.00034996354952454567,0.000802441849373281,0.0005134500097483397
1761467837042437600,1.439437744140625,0.0010160200763493776,-0.0002841278910636902,0.0003693730104714632
1761467837052391400,1.449391357421875,0.0009193475125357509,-0.00036090778303332627,-0.0015772068873047829
1761467837062345000,1.459344970703125,0.0013494479935616255,0.0015773407649248838,0.0005874105263501406
1761467837072300000,1.469300048828125,0.0010254653170704842,0.00033677835017442703,-0.000813402933999896
1761467837082253800,1.47925390625,-0.0006161072524264455,-0.00006242948438739404,0.001269721775315702
1761467837092207900,1.489207763671875,-0.0010766152990981936,0.0013490894343703985,-0.0005516344681382179
1761467837102162000,1.499161865234375,0.0006073014228604734,-0.0001366881770081818,0.0018308294238522649
1761467837112116200,1.5091162109375,0.0015124997589737177,-0.0001741029554978013,-0.00028214254416525364
1761467837122070000,1.519070068359375,-0.001065706484951079,0.0007300402503460646,-0.0005878733936697245
1761467837132025000,1.529025146484375,-0.0015339304227381945,-0.000568726914934814,-0.0012896612752228975
1761467837141979000,1.538978759765625,0.00006662943633273244,0.0008526021265424788,-0.0006518340669572353
1761467837151933000,1.548932861328125,0.00044796691508963704,-0.0007219270337373018,0.0003010709770023823
1761467837161887000,1.558886962890625,-0.00002501043491065502,-0.0003658624191302806,0.00063369981944561
1761467837171841000,1.568841064453125,-0.00008471962064504623,0.0009738638764247298,0.0011615852126851678
1761467837181794800,1.578794921875,0.0009658974013291299,0.0012247336562722921,0.00042175897397100925
1761467837191749000,1.5887490234375,-0.0006680965307168663,0.0012138615129515529,-0.001174096018075943
1761467837201704000,1.598703857421875,0.0000815833336673677,-0.0005302426288835704,0.00002725585363805294
1761467837211658000,1.608657958984375,-0.001699248794466257,0.00041588069871068,0.0005020154640078545
1761467837221612000,1.618612060546875,0.000880821724422276,0.00023398676421493292,0.000006134854629635811
1761467837231566000,1.628566162109375,0.0011178026907145977,0.001363625517114997,-0.0001246610190719366
1761467837241519900,1.638519775390625,-0.00016397680155932903,0.0016677584499120712,-0.00010069250129163265
1761467837251474000,1.648473876953125,0.0014995436649769545,-0.0011060836259275675,0.0010337780695408583
1761467837261429000,1.658428955078125,0.0008936745580285788,0.0016018184833228588,0.0014606827171519399
1761467837271383000,1.668383056640625,0.001763917156495154,0.0006632248405367136,-0.0011349215637892485
1761467837281337000,1.678337158203125,-0.0001831197878345847,0.000016343023162335157,-0.0002672635018825531
1761467837291291000,1.688290771484375,-0.00022263906430453062,0.0008035496575757861,0.0011199540458619595
1761467837301245000,1.698244873046875,-0.0005312993889674544,-0.0013181907124817371,-0.0006403953302651644
1761467837311199000,1.708198974609375,-0.00046226283302530646,-0.000647891138214618,0.00048744119703769684
1761467837321153000,1.718153076171875,-0.00031046263757161796,0.0005681082257069647,0.0015638908371329308
1761467837331108000,1.728108154296875,0.00002652726834639907,0.0008719660108909011,0.0005606876220554113
1761467837341062100,1.738062255859375,-0.0014211670495569706,-0.0003544196952134371,-0.0018561312463134527
1761467837351016000,1.748015869140625,0.0003786239540204406,-0.0009450983488932252,-0.0009000571444630623
1761467837360970000,1.757969970703125,-0.0007902373909018934,-0.0008958298712968826,0.0007138184737414122
1761467837370924000,1.767924072265625,0.000015728583093732595,-0.0005418893415480852,-0.0011014416813850403
1761467837380878000,1.777878173828125,0.0004966955166310072,-0.00006571612175321206,0.0003033760003745556
1761467837390833000,1.7878330078125,-0.0006720360834151506,0.00014318127068690956,0.001438900362700224
1761467837400787200,1.797787109375,-0.0009463416645303369,0.0018313589971512556,0.0003728370647877455
1761467837410741000,1.807740966796875,0.0002348671550862491,-0.0001978702493943274,0.0014009025180712342
1761467837420695000,1.817695068359375,-0.0006010991055518389,-0.0012303777039051056,-0.0010872886050492525
1761467837430649000,1.827649169921875,-0.001185704255476594,0.00005370352300815284,0.00044849165715277195
1761467837440603100,1.83760302734375,-0.0010866347001865506,-0.00030981795862317085,0.0002756526228040457
1761467837450557000,1.847556884765625,-0.00024051516084000468,-0.0010595344938337803,-0.000313302269205451
1761467837460512000,1.857511962890625,-0.001059437170624733,0.0013354462571442127,-0.0009202365763485432
1761467837470465800,1.8674658203125,0.0003909817896783352,-0.0011272027622908354,-0.0007826946675777435
1761467837480420000,1.877420166015625,-0.00006255455082282424,-0.001488593639805913,-0.00038375332951545715
1761467837490374100,1.8873740234375,0.0007174173952080309,0.00001687565236352384,0.000009728362783789635
1761467837500328000,1.897327880859375,-0.00023679318837821484,0.0009151599369943142,0.000305072870105505
1761467837510282000,1.907281982421875,0.0003539482713676989,0.0007558446377515793,0.0010679634287953377
1761467837520237000,1.917237060546875,-0.0019254512153565884,0.0002636924327816814,0.002034957055002451
1761467837530190800,1.92719091796875,0.0003177142352797091,-0.0009339089738205075,-0.00012439466081559658
1761467837540145000,1.937144775390625,-0.0009454230894334614,-0.000607938040047884,0.001394139719195664
1761467837550099000,1.947098876953125,0.00041364243952557445,0.0005189874209463596,0.0014328280230984092
1761467837560053000,1.957052978515625,-0.00019542250083759427,-0.0006368244648911059,0.00024905288591980934
1761467837570007000,1.967007080078125,-0.0008876660722307861,0.00018360390095040202,0.0006155774462968111
1761467837579961000,1.976961181640625,-0.0005491782794706523,-0.0002885745489038527,-0.000019320286810398102
1761467837589916000,1.986916015625,-0.0010953543242067099,-0.0011211654637008905,0.0015565387438982725
1761467837599870000,1.996869873046875,0.0009672638261690736,-0.0008417998906224966,0.0009080590680241585
1761467837609824000,2.006823974609375,0.0005712968413718045,0.0006511572864837945,0.000045851338654756546
1761467837619777800,2.01677783203125,0.0023652019444853067,0.0008905754657462239,0.0006927330978214741
1761467837629731800,2.02673193359375,0.0004352381220087409,0.00012807984603568912,0.00007026037201285362
1761467837639686100,2.03668603515625,0.00036919175181537867,-0.0007542254170402884,0.00033737532794475555
1761467837649641000,2.046640869140625,0.0009708363795652986,0.0005125280003994703,0.00043658772483468056
1761467837659595000,2.056594970703125,-0.0005090822232887149,-0.0013615384232252836,0.0009100977331399918
1761467837669549000,2.066549072265625,-0.0017294185236096382,-0.00025363615714013577,-0.0008158145938068628
1761467837679502800,2.0765029296875,0.00022401020396500826,-0.0007891978602856398,0.00002441275864839554
1761467837689457000,2.086456787109375,-0.0010860119946300983,0.0006823381409049034,-0.0006889244541525841
1761467837699411000,2.096410888671875,-0.0011019909288734198,0.00028179874061606824,0.00041495589539408684
1761467837709366000,2.106365966796875,0.00017463997937738895,-0.00039583974285051227,0.0008199629373848438
1761467837719320000,2.116320068359375,-0.0013297797413542867,-0.000469609338324517,0.0001379272434860468
1761467837729274000,2.126274169921875,-0.00010850530816242099,0.0016086717369034886,-0.0012645686510950327
1761467837739228000,2.136227783203125,0.00045581854647025466,0.001687234966084361,-0.000029394403100013733
1761467837749182000,2.146181884765625,0.00041951984167099,0.000025383662432432175,0.00046908785589039326
1761467837759136000,2.156135986328125,0.0012317838845774531,-0.0008494647918269038,0.00008319574408233166
1761467837769090000,2.166090087890625,0.00028138188645243645,-0.000942501297686249,-0.0004135186318308115
1761467837779045000,2.176045166015625,0.0003476944984868169,0.0002908085589297116,0.0008136660326272249
1761467837788999200,2.185999267578125,-0.0001333320396952331,-0.0004860354820266366,-0.0015625690575689077
1761467837798953000,2.195952880859375,-0.001055584754794836,0.00013687790487892926,-0.0008254062850028276
1761467837808907000,2.205906982421875,-0.0005277000018395483,0.0008175293914973736,0.0009963307529687881
1761467837818861000,2.215861083984375,-0.0008012066246010363,0.0003285729617346078,-0.0008212768007069826
1761467837828815000,2.225815185546875,0.0012775557115674019,-0.00011848864960484207,-0.00018830737099051476
1761467837838770000,2.23577001953125,0.00035796622978523374,0.0007800619350746274,-0.0004399761091917753
1761467837848724000,2.245723876953125,0.001563649158924818,-0.0004024865629617125,-0.00023207231424748898
1761467837858678000,2.255677978515625,-0.00030855307704769075,-0.00006746090366505086,0.002032147254794836
1761467837868632000,2.265632080078125,-0.00007831846596673131,0.0005892870249226689,-0.0016779224388301373
1761467837878586000,2.275586181640625,-0.000704960257280618,0.0006726440042257309,0.000049403635784983635
1761467837888540000,2.285539794921875,0.00011436815839260817,0.00019362784223631024,0.0005431449972093105
1761467837898495000,2.295494873046875,0.0009215722675435245,-0.0007512617157772183,0.000449934508651495
1761467837908449000,2.305448974609375,-0.00019465881632640958,0.001171135576441884,-0.00003315135836601257
1761467837918402800,2.31540283203125,0.0018578394083306193,-0.0006014644168317318,-0.0007500741630792618
1761467837928356900,2.32535693359375,0.001060333102941513,-0.00022805850312579423,-0.0016383551992475986
1761467837938311200,2.335311279296875,-0.0005628634826280177,0.00043426966294646263,-0.0004287471529096365
1761467837948265000,2.345264892578125,0.0006858214037492871,-0.0008036157814785838,0.00032894196920096874
1761467837958220000,2.355219970703125,-0.0008012877078726888,-0.0006305102724581957,-0.000533389626070857
1761467837968174000,2.365174072265625,-0.0003088723460678011,0.001491560717113316,-0.0005680876784026623
1761467837978128000,2.3751279296875,0.00036224426003172994,-0.0006578766042366624,0.0005179494619369507
1761467837988082000,2.38508203125,-0.0003128888492938131,-0.0006433115340769291,0.0002728917170315981
1761467837998036000,2.395035888671875,-0.000026865338440984488,0.0006318099331110716,-0.0011423120740801096
1761467838007989800,2.40498974609375,-0.00018413277575746179,-0.0006870604120194912,-0.00043064262717962265
1761467838017944000,2.414944091796875,0.0011405235854908824,0.001580354874022305,0.00013474631123244762
1761467838027899100,2.424899169921875,-0.00034811923978850245,-0.00032589916372671723,0.0011354953749105334
1761467838037853000,2.43485302734375,-0.0009324167622253299,-0.0009490788215771317,0.0017253855476155877
1761467838047807000,2.444806884765625,-0.0006721139652654529,-0.0008621877641417086,0.000566928181797266
1761467838057761000,2.454760986328125,-0.0001839565229602158,0.00030960311414673924,-0.0002509285695850849
1761467838067714800,2.46471484375,-0.0010829661041498184,0.00009471527300775051,0.001405717572197318
1761467838077668900,2.4746689453125,-0.0004832222475670278,-0.0011428557336330414,-0.00014850334264338017
1761467838087624000,2.4846240234375,-0.00030761893140152097,0.0009977860609069467,-0.0018351655453443527
1761467838097577700,2.49457763671875,0.0015826928429305553,0.00004916801117360592,0.0004450329579412937
1761467838107531800,2.50453173828125,-0.00021746533457189798,0.000040031096432358027,0.00014809402637183666
1761467838117485800,2.51448583984375,-0.0005951015627942979,0.0009841216960921884,-0.0002124980092048645
1761467838127440000,2.52443994140625,-0.0004301280714571476,0.00011759612243622541,0.00030135270208120346
1761467838137394000,2.534393798828125,-0.0001435719314031303,-0.00014019786613062024,-0.00041370606049895287
1761467838147349000,2.544348876953125,0.0005737746832892299,0.0006237444467842579,-0.00084441970102489
1761467838157302800,2.554302734375,0.0018020245479419827,-0.0007461856584995985,0.0010908993426710367
1761467838167256800,2.5642568359375,0.0012032920494675636,0.0011103465221822262,0.00018508732318878174
1761467838177211000,2.5742109375,-0.002045231871306896,0.0003947551012970507,-0.00047297985292971134
1761467838187164700,2.58416455078125,-0.0008707826491445303,0.0009371056221425533,-0.0005332559812813997
1761467838197118700,2.59411865234375,-0.002977343276143074,-0.00008395033364649862,0.0005522484425455332
1761467838207074000,2.604073974609375,-0.0006805980228818953,0.0004193100903648883,0.0002714612055569887
1761467838217027800,2.61402783203125,-0.0010771426605060697,0.0012273131869733334,0.00013830303214490414
1761467838226982000,2.62398193359375,0.0017631961964070797,0.001239861361682415,0.0004575657658278942
1761467838236936000,2.63393603515625,-0.0005494927754625678,0.0010888602118939161,0.0011254865676164627
1761467838246889700,2.6438896484375,-0.0007717731641605496,-0.001179949613288045,0.0008862321265041828
1761467838256843800,2.65384375,-0.0006998677854426205,-0.0012119074817746878,-0.00043869041837751865
1761467838266797800,2.6637978515625,0.0007227653986774385,0.0008510580519214272,-0.0009803944267332554
1761467838276753000,2.6737529296875,0.00004445825470611453,-0.0010467105312272906,0.0006728959269821644
1761467838286707000,2.68370703125,-0.0001224057632498443,0.001005505328066647,-0.0005338552873581648
1761467838296661000,2.693660888671875,0.0007127615972422063,0.0010893949074670672,-0.0003658097703009844
1761467838306614800,2.70361474609375,-0.0006930357194505632,-0.0005261977203190327,-0.001156744547188282
1761467838316568800,2.71356884765625,0.0006563880015164614,-0.0004151439352426678,-0.0003058647271245718
1761467838326523000,2.72352294921875,-0.0012250652071088552,0.0015175285516306758,-0.0006828075274825096
1761467838336477700,2.733477783203125,0.000283615430817008,-0.00031286204466596246,0.000795247033238411
1761467838346432000,2.743431884765625,-0.00014461000682786107,0.00022303254809230566,0.00009693345054984093
1761467838356386000,2.753385986328125,-0.00047723884927108884,-0.00037218397483229637,-0.0007608707528561354
1761467838366339800,2.76333984375,0.00009458517888560891,0.0000014348479453474283,-0.00012098136357963085
1761467838376294000,2.7732939453125,0.0009334809728898108,-0.0000744652352295816,-0.000993432942777872
1761467838386248000,2.783248046875,0.0005807699635624886,-0.0007030842825770378,-0.0017621959559619427
1761467838396202800,2.79320263671875,-0.0009140623151324689,0.0007619205862283707,0.0009499674197286367
1761467838406156800,2.80315673828125,-0.0005007773288525641,0.000951393274590373,0.0005667295772582293
1761467838416111000,2.813111083984375,0.00009497179416939616,0.0011583209270611405,0.0007012190762907267
1761467838426065000,2.82306494140625,0.00018741859821602702,-0.0007303906604647636,-0.00001711561344563961
1761467838436019000,2.83301904296875,-0.0003886231570504606,0.00046456968993879855,-0.00016758404672145844
1761467838445973000,2.842972900390625,-0.0017461334355175495,0.0001369020319543779,0.00047421897761523724
1761467838455927800,2.852927734375,0.001183610176667571,-0.0007922748336568475,-0.000654162373393774
1761467838465881900,2.8628818359375,0.0001240697456523776,0.0012374862562865019,0.0011109054321423173
1761467838475836000,2.8728359375,-0.00023705489002168179,-0.0012190134730190039,0.0008275450672954321
1761467838485789700,2.882789794921875,0.0015468169003725052,-0.0002661342441570014,-0.0005842819809913635
1761467838495744000,2.892743896484375,0.0009558613528497517,0.0008819545619189739,-0.00038507767021656036
1761467838505698000,2.902697998046875,-0.0006282094982452691,0.00006754553760401905,0.0013047881657257676
1761467838515651800,2.91265185546875,-0.0008300771005451679,0.00018792040646076202,0.0007601717952638865
1761467838525607000,2.92260693359375,-0.0012470314977690578,0.0010609823511913419,0.0004141842946410179
1761467838535561000,2.93256103515625,0.00004247110337018967,-0.0007025629747658968,-0.00009474577382206917
1761467838545514800,2.9425146484375,-0.0013569211587309837,0.0003462681488599628,0.0008083959110081196
1761467838555468800,2.95246875,-0.0012562538031488657,0.00010605101124383509,0.001865937141701579
1761467838565422800,2.9624228515625,0.0006309581804089248,0.00044847256503999233,-0.0003166168462485075
1761467838575377000,2.972376953125,-0.001459889579564333,0.0010037415195256472,0.0010940595529973507
1761467838585332000,2.98233203125,0.00037352932849898934,-0.000446924299467355,-0.0010252012871205807
1761467838595286000,2.9922861328125,0.0012116259895265102,0.0002598786377348006,0.00016150320880115032
1761467838605239800,3.00223974609375,0.0015759605448693037,0.0009871862130239606,0.0010778733994811773
1761467838615193900,3.01219384765625,-0.0009833374060690403,-0.0005433325422927737,0.0014565748861059546
1761467838625148000,3.02214794921875,-0.000665988540276885,-0.0005919786635786295,0.0006401683203876019
1761467838635101700,3.032101806640625,0.00034627894638106227,-0.00044177641393616796,-0.0003441357985138893
1761467838645057000,3.04205712890625,0.0005423728143796325,0.0008687241934239864,-0.0010968183632940054
1761467838655010800,3.0520107421875,0.00016926397802308202,-0.0004008047399111092,-0.000493878498673439
1761467838664964900,3.06196484375,0.0012096862774342299,0.0009235518518835306,-0.0006648583803325891
1761467838674919000,3.0719189453125,0.0005585434264503419,0.0005552367074415088,0.00013116048648953438
1761467838684873000,3.081873046875,-0.0008879169472493231,0.0008925498696044087,0.000028335023671388626
1761467838694826800,3.09182666015625,-0.0006066871574148536,-0.0005692592239938676,-0.0008062997367233038
1761467838704781800,3.10178173828125,0.00016953283920884132,0.0016517710173502564,0.0010780224110931158
1761467838714735900,3.11173583984375,-0.00016123178647831082,-0.000506454729475081,-0.0005009658634662628
1761467838724690000,3.12168994140625,0.0017035931814461946,0.0007268516346812248,-0.0013516400940716267
1761467838734644000,3.13164404296875,-0.001083404989913106,-0.00156666268594563,-0.0014347308315336704
1761467838744598000,3.141597900390625,-0.0011906257132068276,0.0010559579823166132,-0.0012550507672131062
1761467838754551800,3.1515517578125,-0.0007757052080705762,-0.0005113123916089535,-0.000023072585463523865
1761467838764507000,3.1615068359375,0.00022970419377088547,-0.00044198048999533057,-0.0004383828490972519
1761467838774460700,3.171460693359375,-0.0002840195666067302,-0.0007003070786595345,-0.000536919804289937
1761467838784414700,3.181414794921875,0.0007017295574769378,0.0001518624776508659,0.0010904837399721146
1761467838794369000,3.191369140625,-0.00173719332087785,0.00019660359248518944,-0.0005385717377066612
1761467838804323000,3.201322998046875,0.0005596111295744777,-0.001082905801013112,0.0003854776732623577
1761467838814276900,3.21127685546875,-0.0007719694403931499,0.0013791865203529596,-0.00005580810829997063
1761467838824232000,3.22123193359375,0.0008344582747668028,-0.0011446299031376839,-0.00045774970203638077
1761467838834185700,3.231185791015625,0.00038704718463122845,0.0007957491907291114,0.0006482612807303667
1761467838844139800,3.241139892578125,-0.00005027279257774353,0.00010898648179136217,0.001301001524552703
1761467838854093800,3.25109375,-0.001235912088304758,-0.0001804991188691929,0.000209371792152524
1761467838864047900,3.2610478515625,0.0007969825528562069,-0.0005054263165220618,-0.000510381069034338
1761467838874002000,3.271001953125,-0.0001138185616582632,-0.000398899894207716,0.000986049184575677
1761467838883957000,3.28095703125,-0.0004760968731716275,0.0001420438929926604,-0.000987836392596364
1761467838893910800,3.290910888671875,-0.00028834404656663537,-0.0008534457301720977,-0.00017876806668937206
1761467838903864800,3.30086474609375,0.00026747595984488726,-0.00001792644616216421,-0.0005806037224829197
1761467838913819000,3.31081884765625,-0.001128286705352366,-0.00031620048684999347,0.0006481788586825132
1761467838923773000,3.32077294921875,-0.0003641346120275557,0.00035961519461125135,0.00002155848778784275
1761467838933726700,3.330726806640625,0.000033741642255336046,-0.00004358738078735769,0.00044260406866669655
1761467838943682000,3.34068212890625,0.00003541650949046016,-0.0007715144893154502,0.0003535950090736151
1761467838953635800,3.3506357421875,0.00013022508937865496,-0.0006921523017808795,0.0010769094806164503
1761467838963590000,3.36058984375,0.00023025640984997153,0.00022667244775220752,0.0007015867158770561
1761467838973544000,3.3705439453125,0.00011574052041396499,0.0010240229312330484,0.00023872940801084042
1761467838983498000,3.380498046875,-0.00032041326630860567,0.0007645689183846116,-0.00023314566351473331
1761467838993451800,3.39045166015625,-0.0001947120763361454,-0.00021174593712203205,-0.0006805567536503077
1761467839003406800,3.40040673828125,0.0009150613914243877,-0.0010563865071162581,0.000873188953846693
1761467839013361000,3.41036083984375,0.00021997635485604405,0.00016094441525638103,-0.00004533538594841957
1761467839023315000,3.42031494140625,0.00042604305781424046,0.00037977314786985517,-0.0009513937402516603
1761467839033269000,3.43026904296875,0.0005895611830055714,-0.0005981395952403545,0.0003354456275701523
1761467839043222800,3.440222900390625,-0.0012527008075267076,-0.0001817698503145948,-0.0016868584789335728
1761467839053176800,3.4501767578125,-0.00022978062042966485,-0.0007378378650173545,0.0006340860854834318
1761467839063132200,3.460132080078125,-0.000536279403604567,-0.00021451598149724305,0.001990476856008172
1761467839073086200,3.470086181640625,0.00021233514416962862,-0.0007897587493062019,0.00035875802859663963
1761467839083040500,3.48004052734375,0.00035717972787097096,-0.0005434708436951041,-0.0005948361940681934
1761467839092994600,3.48999462890625,-0.0016188856679946184,0.00007544780964963138,0.00008134054951369762
1761467839102948400,3.4999482421875,0.00010262441355735064,0.00013456144370138645,-0.00013184105046093464
1761467839112902400,3.50990234375,-0.001969847595319152,0.00021072785602882504,-0.000299353851005435
1761467839122857200,3.519857177734375,-0.0001632798812352121,0.00023552088532596827,0.00042381882667541504
1761467839132811300,3.529811279296875,0.00027454382507130504,0.00007413330604322255,0.0002991827204823494
1761467839142765300,3.539765380859375,-0.0002196429413743317,0.0004389710375107825,-0.00026034959591925144
1761467839152719400,3.54971923828125,0.0008288435637950897,-0.0012100583408027887,0.0007631031330674887
1761467839162673400,3.55967333984375,0.0006772261695005,0.00004537284257821739,-0.00017188419587910175
1761467839172628500,3.56962841796875,0.0006458007846958935,0.0007423220667988062,0.0005988345947116613
1761467839182582300,3.579582275390625,0.0006062182364985347,-0.000028798909625038505,-0.0015159393660724163
1761467839192536300,3.589536376953125,-0.0008276276639662683,-0.0004381267644930631,-0.0013348441570997238
1761467839202490400,3.599490478515625,0.0017154806992039084,-0.0009984405478462577,0.0007406470831483603
1761467839212444400,3.6094443359375,-0.0005679135210812092,0.0009496617130935192,0.0005789932329207659
1761467839222398200,3.619398193359375,-0.0010392051190137863,0.00011416664347052574,0.000037413788959383965
1761467839232353500,3.629353515625,0.0007895875605754554,-0.0010517652845010161,-0.0003647236153483391
1761467839242307300,3.639307373046875,-0.0026833999436348677,-0.0010452006245031953,-0.0007555510383099318
1761467839252261400,3.649261474609375,-0.0007440859917551279,0.00036307895788922906,0.0003882765304297209
1761467839262215400,3.65921533203125,0.001006784150376916,-0.0003208767157047987,0.0006300921086221933
1761467839272169500,3.66916943359375,0.0008171671652235091,-0.0007278077537193894,-0.0006673999596387148
1761467839282123300,3.679123291015625,0.0005534967058338225,0.0005196277634240687,-0.0008796330075711012
1761467839292078300,3.689078369140625,-0.0004387970839161426,-0.0007179431850090623,0.0013443727511912584
1761467839302032400,3.699032470703125,0.0002629832015372813,0.000956433592364192,-0.000523583497852087
1761467839311986400,3.708986328125,0.0009854987729340792,-0.00010297182598151267,-0.0005454213824123144
1761467839321940500,3.7189404296875,0.0006295337807387114,0.0006741723045706749,-0.0019404704216867685
1761467839331894300,3.728894287109375,0.00040849135257303715,-0.0011785888345912099,0.000030534807592630386
1761467839341848300,3.738848388671875,-0.0008225540514104068,-0.0003798411344178021,-0.0010831165127456188
1761467839351803400,3.748803466796875,-0.00090937310596928,0.0009362931014038622,-0.0006719243247061968
1761467839361757200,3.758757080078125,-0.000625185202807188,-0.0004530445148702711,-0.000026540597900748253
1761467839371711500,3.76871142578125,-0.0005886999424546957,-0.0009265545522794127,0.0014246158534660935
1761467839381665500,3.77866552734375,-0.0004001028137281537,-0.0003836533287540078,-0.000015029450878500938
1761467839391619300,3.788619384765625,-0.0010014446452260017,-0.00015062674356158823,0.0004952321760356426
1761467839401573400,3.798573486328125,0.0010972254676744342,-0.00043513806303963065,0.0011901480611413717
1761467839411528400,3.808528564453125,-0.00041544996201992035,0.00014676264254376292,-0.00047379499301314354
1761467839421482200,3.818482177734375,0.0011690969113260508,0.0000714114576112479,-0.00024730945006012917
1761467839431436300,3.828436279296875,0.00043246656423434615,-0.0005104892188683152,-0.0012358748354017735
1761467839441390300,3.838390380859375,0.0016048999968916178,-0.00048673982382752,-0.0001260712742805481
1761467839451344400,3.848344482421875,-0.0014417562633752823,-0.0005591778317466378,-0.0002299346961081028
1761467839461299500,3.858299560546875,0.0007919397321529686,-0.000176843095687218,0.0008232176769524813
1761467839471253500,3.86825341796875,-0.0014959818217903376,0.0001653730869293213,0.0007654272485524416
1761467839481207300,3.878207275390625,-0.000053147319704294205,0.0014519317774102092,-0.000886896625161171
1761467839491161300,3.888161376953125,0.001161520485766232,0.0008793522138148546,-0.0009540081955492496
1761467839501115400,3.898115478515625,-0.0005690238322131336,-0.0001539847580716014,-0.0003604413941502571
1761467839511069200,3.908069091796875,-0.00006568641401827335,0.00001778913429006934,0.00010161707177758217
1761467839521024500,3.9180244140625,0.0005833395407535136,-0.00027170099201612175,-0.0016559611540287733
1761467839530978600,3.927978515625,0.00007281155558302999,0.00044202618300914764,-0.0009773874189704657
1761467839540932400,3.937932373046875,-0.0010125976987183094,0.000044570828322321177,0.0008382629603147507
1761467839550886400,3.947886474609375,-0.00036678111064247787,0.0004797313595190644,-0.001088534016162157
1761467839560840400,3.95784033203125,-0.0004976019263267517,-0.0004212506173644215,-0.0024802887346595526
1761467839570795300,3.967795166015625,-0.0004909440176561475,-0.0004127285210415721,-0.0016387298237532377
1761467839580749300,3.977749267578125,-0.0004489254206418991,0.00018927428754977882,-0.0008121521677821875
1761467839590703400,3.987703369140625,0.00040222081588581204,0.0003005944599863142,0.00008959416300058365
1761467839600657400,3.997657470703125,0.00020668585784733295,-0.0016396683640778065,0.001071841805242002
1761467839611233500,4.008233642578125,0.0006183992372825742,0.00004825208452530205,-0.0005604836624115705
1761467839621187300,4.018187255859375,-0.0006282264366745949,0.00021762913092970848,-0.000829729251563549
1761467839631141400,4.028141357421875,-0.0009538616868667305,-0.0004958649515174329,0.0010647723684087396
1761467839641096400,4.038096435546875,-0.00011177017586305737,-0.0006394093506969512,-0.00020875129848718643
1761467839651050200,4.04805029296875,0.001643805531784892,-0.000712699955329299,-0.0008371795993298292
1761467839661004300,4.05800439453125,0.00004218053072690964,-0.0010509213898330927,-0.0002669969107955694
1761467839670958300,4.067958251953125,-0.0006532552069984376,0.0002781474613584578,0.0009929874213412404
1761467839680912400,4.077912353515625,-0.0010894809383898973,-0.0007948401616886258,-0.001581490272656083
1761467839690867500,4.087867431640625,-0.0009423017036169767,-0.0002546145115047693,-0.0012159266043454409
1761467839700821500,4.097821533203125,0.000752800318878144,-0.0003632715088315308,-0.0007626565638929605
1761467839710775300,4.107775390625,0.000335905235260725,-0.001208788133226335,-0.00048033520579338074
1761467839720729300,4.117729248046875,-0.00009952159598469734,0.00035794955329038203,-0.0007117639761418104
1761467839730683400,4.127683349609375,0.0009225117391906679,-0.000635411823168397,0.0017554418882355094
1761467839740637200,4.13763720703125,0.0012785764411091805,-0.0002039797545876354,0.00005235034041106701
1761467839750592500,4.147592529296875,-0.00010402867337688804,-0.000008369359420612454,-0.0000024901237338781357
1761467839760546600,4.157546630859375,0.0010214231442660093,0.0001863077050074935,0.0010968628339469433
1761467839770500400,4.167500244140625,0.0009076867718249559,0.00011438847286626697,-0.00045056059025228024
1761467839780454400,4.177454345703125,-0.0019735870882868767,-0.00025898669264279306,-0.002080681500956416
1761467839790408400,4.187408447265625,0.0013811432290822268,-0.0005853800103068352,0.0006100025493651628
1761467839800363300,4.19736328125,0.0006306645809672773,0.0006639088387601078,-0.001970333978533745
1761467839810317300,4.2073173828125,0.00027041317662224174,0.0003720841195899993,0.000666086096316576
1761467839820271600,4.217271728515625,-0.0001538283540867269,0.00008792479638941586,-0.0005531089846044779
1761467839830225400,4.227225341796875,0.0003709146985784173,-0.00019435392459854484,0.0006561570335179567
1761467839840179500,4.237179443359375,0.0004145904676988721,0.0010943496599793434,-0.0006969950627535582
1761467839850134300,4.24713427734375,0.001011945540085435,-0.0018964408664032817,0.00002484372816979885
1761467839860088300,4.25708837890625,0.00044762162724509835,0.0004173135675955564,0.0010829175589606166
1761467839870042400,4.26704248046875,0.00010123278480023146,0.00023143267026171088,-0.00006188079714775085
1761467839879996400,4.276996337890625,0.00027433823561295867,-0.0002537952968850732,0.0006113662384450436
1761467839889950200,4.2869501953125,-0.001288494560867548,-0.0006642278749495745,0.001046226592734456
1761467839899905500,4.296905517578125,0.000037759600672870874,0.00002872658660635352,-0.0007338302675634623
1761467839909859300,4.306859375,-0.0016652372432872653,0.0008816696936264634,-0.0004943886306136847
1761467839919813400,4.3168134765625,-0.0005166158662177622,0.0011874005431309342,-0.0006336721125990152
1761467839929767400,4.326767333984375,0.0002701173652894795,-0.0011904069688171148,-0.0007718524429947138
1761467839939721500,4.336721435546875,0.00021818571258336306,-0.0004942567320540547,-0.0005838333163410425
1761467839950298400,4.34729833984375,0.001330854371190071,-0.0018980088643729687,-0.0005987470503896475
1761467839960252200,4.357252197265625,-0.0010052956640720367,-0.0009228065609931946,0.00038218405097723007
1761467839970206200,4.367206298828125,0.0016860950272530317,-0.00040668598376214504,0.001414691680110991
1761467839980161500,4.37716162109375,0.0011704509379342198,0.000650188943836838,-0.0010969419963657856
1761467839990115300,4.387115234375,0.0004695069510489702,-0.0003663396928459406,-0.0016641952097415924
1761467840000069400,4.3970693359375,0.0006253079627640545,0.0012126622023060918,0.00011543603613972664
1761467840010023400,4.4070234375,0.0015425006859004498,0.0002070525661110878,-0.0009594156872481108
1761467840019977200,4.416977294921875,0.000054945703595876694,-0.0006537178996950388,0.00034334417432546616
1761467840029932300,4.426932373046875,-0.00004012914723716676,0.0015196878230199218,-0.0004398913588374853
1761467840039886600,4.436886474609375,-0.00011382545926608145,0.0011059173848479986,0.0013920837081968784
1761467840049840400,4.44684033203125,0.001139191910624504,-0.00020515674259513617,0.0008594514802098274
1761467840059794700,4.456794677734375,0.0005970639758743346,0.0006980061298236251,0.0003394130617380142
1761467840069748700,4.466748779296875,-0.00045435200445353985,0.0002620466984808445,-0.0009455622639507055
1761467840079703800,4.476703857421875,0.00035474152537062764,0.00003399272100068629,0.0002769108396023512
1761467840089657900,4.486657958984375,-0.000108382198959589,0.00008086432353593409,0.000043884152546525
1761467840099611600,4.496611572265625,0.0006704076076857746,-0.0003184623783454299,0.0007359064184129238
1761467840109565700,4.506565673828125,-0.0008949984912760556,0.0009484033798798919,0.00032498082146048546
1761467840119519700,4.516519775390625,0.0005719983601011336,0.00024708249839022756,0.0006533211562782526
1761467840129474600,4.526474609375,-0.0002692942216526717,0.0008143358281813562,-0.0001775852870196104
1761467840139428600,4.5364287109375,0.001076865941286087,0.0005675468710251153,0.0005252878181636333
1761467840149382700,4.546382568359375,-0.0011279650498181581,-0.00029771411209367216,-0.0016923262737691402
1761467840159336700,4.556336669921875,-0.0005294434959068894,0.0007002581260167062,-0.0005655454006046057
1761467840169290800,4.566290771484375,0.0006300968816503882,-0.00022519032063428313,-0.0005919106770306826
1761467840179245800,4.576245849609375,-0.000017438898794353008,-0.00027574202977120876,-0.000502102542668581
1761467840189199600,4.58619970703125,0.00040866684867069125,-0.0002922536223195493,0.0011096425587311387
1761467840199153700,4.596153564453125,-0.001586372498422861,0.00037646599230356514,-0.00072901276871562
1761467840209107700,4.606107666015625,-0.00057170819491148,-0.0007290121866390109,-0.0010235586669296026
1761467840219061500,4.6160615234375,0.00019120186334475875,0.0004514827742241323,-0.001280700322240591
1761467840229016800,4.626016845703125,-0.0005891043692827225,0.000051209673983976245,-0.0001832114066928625
1761467840238971000,4.635970947265625,0.001858569448813796,0.000023431959562003613,0.0009707246208563447
1761467840248924700,4.645924560546875,-0.00011110445484519005,-0.0008274479769170284,0.0013603450497612357
1761467840258878700,4.655878662109375,-0.0009531250689178705,0.0006912938551977277,-0.0008892815094441175
1761467840268832800,4.665832763671875,0.0007992349565029144,-0.000016574369510635734,0.0004710610955953598
1761467840278787600,4.67578759765625,-0.00009818442049436271,0.001095120096579194,0.0001540682278573513
1761467840288741600,4.68574169921875,0.00030208867974579334,0.0006415837560780346,-0.0006861591245979071
1761467840298695700,4.69569580078125,0.0004956804914399981,-0.0004896838800050318,0.00032008509151637554
1761467840308649700,4.705649658203125,0.0014956975355744362,-0.001415398670360446,-0.0014828750863671303
1761467840318603800,4.715603759765625,0.0006827149190939963,-0.0008903330890461802,-0.0005325637757778168
1761467840328558600,4.72555859375,0.002688874024897814,-0.001279420917853713,0.0007265787571668625
1761467840338512600,4.7355126953125,0.00016099325148388743,-0.0005705872899852693,-0.0002729829866439104
1761467840348466700,4.745466796875,-0.00213118945248425,-0.0001261057041119784,0.00037523056380450726
1761467840358420700,4.755420654296875,-0.0005774112651124597,0.0010999087244272232,-0.0010965955443680286
1761467840368374800,4.765374755859375,-0.0008226883946917951,-0.000640999642200768,0.00028638378717005253
1761467840378329900,4.775329833984375,0.00007961469236761332,-0.00018107412324752659,-0.0006136978045105934
1761467840388283600,4.78528369140625,-0.00011160026770085096,0.000722802709788084,0.0012278780341148376
1761467840398237700,4.79523779296875,0.0007018130854703486,-0.00012131332186982036,0.00011755735613405704
1761467840408191700,4.805191650390625,-0.0005131210200488567,-0.0002699177130125463,-0.0000483575277030468
1761467840418145500,4.8151455078125,0.0003891180967912078,-0.0012566570658236742,-0.000343831954523921
1761467840428100900,4.825100830078125,-0.0007664274889975786,-0.001071301056072116,0.0003323445562273264
1761467840438055000,4.835054931640625,0.0011789988493546844,0.00034612492891028523,-0.0005819918587803841
1761467840448008700,4.8450087890625,-0.000004509871359914541,-0.0006914426339790225,0.0009810174815356731
1761467840457962800,4.854962646484375,-0.0003160479536745697,-0.0002221515023848042,-0.00010849814862012863
1761467840467916800,4.864916748046875,0.0005697194137610495,-0.00032068847212940454,-0.0004246153403073549
1761467840477871600,4.87487158203125,0.000049663998652249575,-0.0004543023242149502,0.0002584338653832674
1761467840487825700,4.88482568359375,-0.00029628066113218665,-0.0006236793706193566,-0.0005037628579884768
1761467840497779700,4.89477978515625,-0.0008762676734477282,-0.0004325313202571124,-0.0009563092608004808
1761467840507733800,4.904733642578125,0.0013075243914499879,-0.0016810211818665266,-0.0013414022978395224
1761467840517688800,4.914688720703125,0.0005206537898629904,-0.000784204457886517,-0.0005802200175821781
1761467840527642600,4.924642578125,-0.0003256987838540226,-0.000676879077218473,-0.0009165771771222353
1761467840537596700,4.9345966796875,-0.00015291169984266162,-0.0001501457008998841,0.00004089483991265297
1761467840547550700,4.94455078125,-0.0006570480763912201,0.00032496225321665406,0.0006558187305927277
1761467840557504800,4.9545048828125,0.0004486907855607569,-0.00018012980581261218,0.00007222662679851055
1761467840567459800,4.9644599609375,0.0009155430016107857,-0.000983871752396226,-0.0008625430054962635
1761467840577414000,4.974413818359375,0.0005254325806163251,0.00016460934421047568,-0.0008151580113917589
1761467840587367700,4.98436767578125,-0.0005989540368318558,-0.00003965513315051794,-0.0002279309555888176
1761467840597321700,4.99432177734375,0.0006239853100851178,-0.0008816920453682542,0.00129519694019109
1761467840607275800,5.00427587890625,-0.0002434062771499157,0.0002536135143600404,-0.0006491770036518574
1761467840617230600,5.014230712890625,-0.00044933916069567204,-0.000008822855306789279,-0.0015576703008264303
1761467840627184600,5.0241845703125,0.0016694716177880764,-0.0005587656050920486,0.0008711327100172639
1761467840637138700,5.034138671875,0.0007665834273211658,0.000047154491767287254,-0.0012225599493831396
1761467840647092700,5.0440927734375,0.0011407574638724327,-0.0002018510567722842,0.00034497654996812344
1761467840657046800,5.054046875,0.00006934884004294872,-0.00004107964923605323,0.0004641427658498287
1761467840667001600,5.064001708984375,-0.0016779510769993067,-0.0005963487201370299,0.0012588300742208958
1761467840676955600,5.07395556640625,-0.0018097665160894394,0.0008325851522386074,-0.0011338384356349707
1761467840686909700,5.08390966796875,-0.0010062908986583352,-0.0009940770687535405,0.0014478298835456371
1761467840696863700,5.09386376953125,-0.000914438278414309,-0.0008338582701981068,-0.0019589224830269814
1761467840706817500,5.103817626953125,-0.0018137877341359854,-0.0004285251197870821,0.0007146249990910292
1761467840716772900,5.11377294921875,-0.001036535482853651,-0.00041479410720057786,-0.00026489258743822575
1761467840726726700,5.1237265625,0.0010686933528631926,-0.0006395649397745728,0.0005407135467976332
1761467840736680700,5.1336806640625,0.000333378033246845,0.0002653328119777143,0.0018199377227574587
1761467840746634800,5.143634765625,0.001002896809950471,-0.000648930377792567,0.000937099801376462
1761467840756589600,5.153589599609375,0.00018107250798493624,0.0019174108747392893,0.00005608261562883854
1761467840766543600,5.163543701171875,0.0004838738823309541,0.0011453605256974697,0.0006512992549687624
1761467840776497700,5.17349755859375,0.0011130841448903084,0.0004897190956398845,-0.0003615918103605509
1761467840786451700,5.18345166015625,-0.00039666195516474545,-0.00008525743032805622,-0.0013605435378849506
1761467840796405800,5.19340576171875,-0.00020496215438470244,0.00004709840868599713,-0.0000468322541564703
1761467840806360800,5.20336083984375,0.0011324773076921701,-0.0010245575103908777,-0.0008324647787958384
1761467840816314600,5.213314697265625,0.0009139677276834846,0.0011880352394655347,0.00027608824893832207
1761467840826268700,5.2232685546875,0.0009334087371826172,-0.00039521403959952295,-0.00150396884419024
1761467840836222700,5.23322265625,0.0002809097641147673,0.001343951211310923,0.0006249365396797657
1761467840846176500,5.243176513671875,-0.0008794295135885477,-0.0006060153245925903,-0.0011995951645076275
1761467840856131800,5.2531318359375,0.0009360847761854529,0.00015963008627295494,-0.00046016392298042774
1761467840866086000,5.2630859375,-0.000048485875595360994,0.0014704379718750715,-0.0019499361515045166
1761467840876039700,5.273039794921875,0.0004950783913955092,-0.0008391711162403226,-0.001383374910801649
1761467840885993700,5.28299365234375,0.0008439525263383985,0.000026622554287314415,-0.00011491123586893082
1761467840895948500,5.292948486328125,0.0005388847785070539,0.00014776995521970093,-0.0009970495011657476
1761467840905902600,5.302902587890625,-0.00009015388786792755,-0.00005596184928435832,-0.0000031578820198774338
1761467840915856600,5.312856689453125,0.0009479339350946248,0.0001790497626643628,-0.00028926017694175243
1761467840925810700,5.322810791015625,-0.0017639631405472755,-0.0008888777811080217,0.00008518015965819359
1761467840935764700,5.3327646484375,-0.0007425683434121311,-0.00043600855860859156,-0.0005874589551240206
1761467840945719800,5.3427197265625,-0.0004903670051135123,-0.0010378829902037978,-0.00027560279704630375
1761467840955673600,5.352673583984375,-0.0012237968621775508,0.00020511948969215155,-0.0008334135636687279
1761467840965627600,5.362627685546875,-0.0004919601487927139,0.0010770384687930346,-0.00006349361501634121
1761467840975581700,5.372581787109375,0.0006388223846442997,0.0009742829133756459,0.0006633743178099394
1761467840985535700,5.38253564453125,0.0001868839026428759,-0.000028397204005159438,0.000492665683850646
1761467840995490800,5.39249072265625,0.00004035345045849681,-0.00031891383696347475,-0.0005106346216052771
1761467841005444900,5.40244482421875,-0.0007143864058889449,-0.00024008427863009274,-0.00041316309943795204
1761467841015398700,5.412398681640625,-0.0011128451442345977,0.0007830097456462681,-0.00018860632553696632
1761467841025352700,5.422352783203125,-0.0014382833614945412,0.0004152271430939436,0.0006995578296482563
1761467841035307500,5.4323076171875,0.0009644016972742975,-0.00004784706106875092,-0.00026075937785208225
1761467841045261600,5.442261474609375,-0.000834297330584377,0.00017479321104474366,0.00011474639177322388
1761467841055215600,5.452215576171875,-0.0010107688140124083,0.0009638537303544581,-0.0003374037332832813
1761467841065170000,5.462169921875,0.0014782215002924204,-0.00021779081725981086,-0.0004545829724520445
1761467841075123700,5.472123779296875,-0.0007458635373041034,-0.00021529568766709417,-0.0004384005442261696
1761467841085078800,5.482078857421875,0.00020887970458716154,-0.0005311465938575566,-3.105960786342621e-7
1761467841095032600,5.492032470703125,-0.0007688800105825067,0.00007208304305095226,-0.0003014625981450081
1761467841104986600,5.501986572265625,-0.0013161594979465008,-0.0009492392418906093,0.00008203275501728058
1761467841114940700,5.511940673828125,-0.0011944958241656423,-0.000992153538390994,-0.0007955909240990877
1761467841124894700,5.521894775390625,0.0005165851907804608,0.000718927476555109,0.0005117547698318958
1761467841134849800,5.531849853515625,0.0005221907049417496,0.0001974667247850448,0.0007208844181150198
1761467841144803800,5.541803955078125,-0.00044480309588834643,0.0008938834071159363,0.0005238105077296495
1761467841154757600,5.551757568359375,0.0009605634841136634,-0.00047305988846346736,-0.0008266735821962357
1761467841164711700,5.561711669921875,0.0011222173925489187,0.0019757167901843786,-0.0007758073043078184
1761467841174666800,5.571666748046875,0.0007172505720518529,0.0010242097778245807,0.0006737723015248775
1761467841184620500,5.58162060546875,0.0007161852554418147,0.0008529685437679291,0.00005565257743000984
1761467841194574600,5.59157470703125,-0.0015209789853543043,0.00013065882376395166,0.0004961576778441668
1761467841204529000,5.60152880859375,0.0009171449346467853,0.00008511876512784511,0.00043943244963884354
1761467841214482700,5.611482666015625,-0.00015571367111988366,0.000394326401874423,-0.00007668579928576946
1761467841224437800,5.621437744140625,0.0014299324247986078,-0.0012525724014267325,-0.0009315605275332928
1761467841234391800,5.631391845703125,0.00038031931035220623,-0.0002229281235486269,-0.001150195486843586
1761467841244345600,5.641345703125,0.00048471521586179733,0.00014671863755211234,-0.00034565478563308716
1761467841254299600,5.651299560546875,0.0015199622139334679,0.001710035023279488,0.00042786914855241776
1761467841264254700,5.661254638671875,0.0016525876708328724,-0.00009185967064695433,-0.0003052989486604929
1761467841274208800,5.671208740234375,0.0002769326092675328,0.0008453336777165532,0.00019558309577405453
1761467841284162800,5.681162841796875,-0.0003260070807300508,0.0009020590223371983,-0.0001767268404364586
1761467841294116600,5.69111669921875,-0.000016387435607612133,-0.0008938193204812706,-0.0002920192200690508
1761467841304070700,5.701070556640625,-0.00021932029630988836,-0.0005547988694161177,0.0006992095150053501
1761467841314025700,5.711025634765625,0.00022089463891461492,0.0008618470747023821,0.0010985828703269362
1761467841323979500,5.7209794921875,0.0007766963099129498,0.0008163070306181908,-0.0003986463416367769
1761467841333933600,5.73093359375,0.00024205597583204508,0.0003670337609946728,0.00031801871955394745
1761467841343888000,5.740887939453125,-0.0008429158478975296,0.0003060474118683487,0.0006205537356436253
1761467841353842700,5.7508427734375,0.0008082258864305913,-0.0005420554662123322,-0.00042483280412852764
1761467841363796700,5.760796630859375,0.0006708067958243191,0.00007659685797989368,0.0008020855020731688
1761467841373750800,5.770750732421875,0.0011190352961421013,0.0010997796198353171,0.0002742696087807417
1761467841383704600,5.78070458984375,-0.0002274590515298769,0.0005317273316904902,-0.0015832851640880108
1761467841393658600,5.79065869140625,0.00025745172752067447,0.0002335577446501702,0.0004014850128442049
1761467841403613700,5.80061376953125,0.00008567783515900373,-0.00029001972870901227,-0.0007077215705066919
1761467841413567700,5.810567626953125,-0.00015615846496075392,-0.00008943519060267136,-0.0006251404993236065
1761467841423521800,5.820521728515625,0.0013831485994160175,0.00007967554847709835,-0.0003140831831842661
1761467841433475800,5.830475830078125,-0.0002088552137138322,0.00034632618189789355,0.0004582465626299381
1761467841443430700,5.8404306640625,-0.00007463191286660731,0.0019042753847315907,-0.0002703943755477667
1761467841453384700,5.850384765625,0.0015818632673472166,-0.00018182373605668545,0.0007001829799264669
1761467841463338500,5.86033837890625,0.00021539529552683234,0.0006964867934584618,0.00037687504664063454
1761467841473292500,5.87029248046875,0.0021916707046329975,-0.0007052749861031771,0.0005685349460691214
1761467841483246800,5.880246826171875,-0.00011063204146921635,0.0008089984185062349,0.0019853366538882256
1761467841493201700,5.89020166015625,0.002075820229947567,-0.0011849375441670418,0.0010005375370383263
1761467841503155700,5.90015576171875,0.00005208409857004881,-0.0009644278325140476,0.0014170559588819742
1761467841513109800,5.91010986328125,0.0006589149124920368,-0.00045353526365943253,-0.0010862755589187145
1761467841523063600,5.9200634765625,0.00019978595082648098,0.00047191319754347205,-0.000990934669971466
1761467841533018600,5.9300185546875,-0.00027347251307219267,-0.0005830749869346619,-0.0009736968204379082
1761467841542973000,5.939972900390625,0.00068659707903862,-0.00011915230425074697,0.001128070056438446
1761467841552926700,5.9499267578125,0.0017636842094361782,-0.002244609175249934,0.00047072162851691246
1761467841562880800,5.959880859375,0.0000012042291928082705,0.00041588852764107287,0.001207618392072618
1761467841572835600,5.969835693359375,0.0006548768142238259,0.00032342836493626237,-0.0016575686167925596
1761467841582789600,5.97978955078125,0.0007672621868550777,0.0007026625098660588,-0.0006514263805001974
1761467841592743700,5.98974365234375,-0.0009488713112659752,-0.00016383390175178647,-0.0015250355936586857
1761467841602697700,5.99969775390625,-0.00009852400398813188,0.0010079570347443223,0.0007687453180551529
1761467841612651800,6.00965185546875,0.0003660285728983581,-0.0018707714043557644,0.0003851794172078371
1761467841622606800,6.01960693359375,-0.00004995716153644025,-0.0005405224510468543,-0.00038447417318820953
1761467841632560600,6.029560546875,-0.0003639141796156764,0.0003640804789029062,0.0007050849962979555
1761467841642514700,6.0395146484375,-0.0001841507910285145,-0.0003086340148001909,0.0004688624758273363
1761467841652468700,6.04946875,-0.0006259357323870063,-0.00008562869334127754,-0.0012608750257641077
1761467841662423600,6.059423583984375,0.00023666216293349862,0.0010550031438469887,0.0007226474117487669
1761467841672377900,6.0693779296875,0.0005710054538212717,0.0003413116210140288,0.0007484832312911749
1761467841682332000,6.079331787109375,-0.0005054442444816232,-0.00034178918576799333,-0.0016622103285044432
1761467841692285700,6.08928564453125,-0.0009060559095814824,0.00017012489843182266,-0.00023758248426020145
1761467841702239700,6.09923974609375,0.0005829174187965691,-0.0011529335752129555,-0.000519611407071352
1761467841712194600,6.109194580078125,0.0012878027046099305,-0.0008670645765960217,-0.00017087138257920742
1761467841722148600,6.119148681640625,0.0003351900668349117,0.0012384305009618402,-0.0005572959780693054
1761467841732102700,6.1291025390625,0.000039508595364168286,0.0007732579833827913,-0.0006345096044242382
1761467841742056700,6.139056640625,-0.0016486692475154996,0.00010107611888088286,0.0008004014380276203
1761467841752011800,6.14901171875,-0.00026924608391709626,-0.00021861483401153237,0.000005195848643779755
1761467841761965800,6.1589658203125,0.001357412664219737,0.0005539681878872216,-0.0010811076499521732
1761467841771919600,6.168919677734375,-0.0010529370047152042,0.00010262150317430496,-0.0013283728621900082
1761467841781873700,6.178873779296875,-0.00024120551825035363,-0.0007234910735860467,0.0011664766352623701
1761467841791827700,6.18882763671875,0.0008745008963160217,0.00013104116078466177,-0.0007055310998111963
1761467841801782500,6.198782470703125,-0.00010927082621492445,-0.0001890707790153101,0.0005525460001081228
1761467841811736800,6.20873681640625,0.0004131255263928324,-0.001653518294915557,-0.0018430124036967754
1761467841821691000,6.21869091796875,0.0013308507623150945,-0.0006119559984654188,-0.0004738816060125828
1761467841831644700,6.228644775390625,0.0013891971902921796,-0.0010157907381653786,-0.0005142791196703911
1761467841841599700,6.238599853515625,-0.0005831398884765804,-0.0011611992958933115,-0.0010218776296824217
1761467841851553800,6.2485537109375,0.0007315737311728299,-0.0016276852693408728,-0.0003821668215095997
1761467841861507600,6.258507568359375,-0.0001344862685073167,0.0012107117800042033,-0.00011904630810022354
1761467841871461600,6.268461669921875,-0.0010948902927339077,0.0026794057339429855,-0.0003563046921044588
1761467841881415700,6.278415771484375,-0.00034947152016684413,0.00018455641111359,-0.0009200961794704199
1761467841891370800,6.288370849609375,-0.001150108641013503,-0.00009597139433026314,-0.0006566457450389862
1761467841901324800,6.29832470703125,0.00010184332495555282,0.00009684145334176719,-0.00030883681029081345
1761467841911278800,6.30827880859375,0.00028709997422993183,-0.0008142676670104265,0.00015051988884806633
1761467841921232600,6.318232666015625,-0.0006074558477848768,-0.0002193174441345036,0.0007393448613584042
1761467841931187700,6.328187744140625,-0.00020862487144768238,-0.0006574065191671252,-0.000635914271697402
1761467841941141500,6.3381416015625,0.00021268718410283327,-0.00013569329166784883,0.0008543906733393669
1761467841951095800,6.348095703125,-0.00003886895137839019,-0.000619138649199158,0.0022647171281278133
1761467841961049900,6.3580498046875,0.0005046821897849441,-0.0007373830303549767,0.0002521662972867489
1761467841971004700,6.368004638671875,-0.00072170898783952,0.0007732548983767629,0.001237248769029975
1761467841980958700,6.377958740234375,0.000762736948672682,-0.000722908996976912,0.001410087919794023
1761467841990912800,6.387912841796875,0.00027432467322796583,-0.0006814813241362572,-0.0000786914024502039
1761467842000866600,6.397866455078125,-0.0009837525431066751,0.0006809919141232967,0.0003503439947962761
1761467842010820600,6.407820556640625,0.0006322468398138881,-0.0000891542003955692,-0.0007537929341197014
1761467842020775700,6.417775634765625,-0.0008985381573438644,-0.0011562828440219164,-0.00024539558216929436
1761467842030729700,6.427729736328125,0.0008322391076944768,-0.00020860903896391392,0.0009983689524233341
1761467842040683800,6.437683837890625,0.0010990877635776997,0.00005238072481006384,0.001236189273186028
1761467842050637800,6.447637939453125,-0.00031684746500104666,-0.0004622763954102993,0.00042023533023893833
1761467842060592400,6.45759228515625,0.0015470989746972919,-0.0004678690165746957,-0.0001707200426608324
1761467842070546400,6.46754638671875,0.001181464409455657,-0.0005984449526295066,0.00020773755386471748
1761467842080500500,6.47750048828125,0.0012453802628442645,0.0000380505807697773,0.00015420815907418728
1761467842090454300,6.487454345703125,-0.000772496045101434,-0.000004790577804669738,0.0008055332582443953
1761467842100408600,6.49740869140625,-0.00048487461754120886,0.0013217299710959196,0.0011038073571398854
1761467842110363400,6.50736328125,-0.0005620750016532838,-0.0006514108390547335,0.000564362620934844
1761467842120317400,6.5173173828125,0.0011258365120738745,0.0005912201595492661,-0.000230058329179883
1761467842130271500,6.527271484375,-0.0003611473075579852,0.0009232384618371725,0.0006223854143172503
1761467842140225500,6.5372255859375,0.0006487233913503587,0.0007639814866706729,0.0005898948293179274
1761467842150180400,6.547180419921875,0.0006168184336274862,-0.0011746073141694069,-0.0003660176880657673
1761467842160134700,6.557134765625,0.0011092368513345718,0.00003872893285006285,-0.0001822595950216055
1761467842170088400,6.56708837890625,-0.000615291646681726,-0.0007708225166425109,0.0015196624444797635
1761467842180042500,6.57704248046875,-0.0006150253466330469,-0.0012698988430202007,-0.00036985031329095364
1761467842189997300,6.586997314453125,-0.0006454266258515418,-0.001416580518707633,-0.0002669461537152529
1761467842199951400,6.596951416015625,0.00011117744725197554,-0.00009005994070321321,0.000334395794197917
1761467842209905400,6.606905517578125,-0.001247398555278778,-0.0006851566722616553,0.0003315636422485113
1761467842219859500,6.616859375,0.00018351787002757192,-0.0014185912441462278,0.0004524711985141039
1761467842229814500,6.626814453125,0.0002882473054341972,-0.00019562168745324016,-0.0005103352013975382
1761467842239768600,6.6367685546875,0.00019423768389970064,-0.00025980386999435723,-0.0010067485272884369
1761467842249722400,6.646722412109375,0.0002842421527020633,-0.0007336382986977696,-0.0005857867654412985
1761467842259676400,6.656676513671875,0.000542302499525249,-0.00040606947732158005,0.0028148035053163767
1761467842269630500,6.66663037109375,-0.0010848146630451083,0.0007850496913306415,-0.0006820596754550934
1761467842279585300,6.676585205078125,0.00011786882532760501,0.0006183357327245176,0.0016175799537450075
1761467842289539600,6.68653955078125,-0.000024993496481329203,0.00018968593212775886,0.0016219067620113492
1761467842299493600,6.69649365234375,0.00022001733304932714,-0.0003333588829264045,-0.0005347211845219135
1761467842309447400,6.706447509765625,-0.0007126457057893276,-0.000010165793355554342,0.00009687477722764015
1761467842319402500,6.716402587890625,0.00045648199738934636,-0.00018007546896114945,0.00010140216909348965
1761467842329356500,6.7263564453125,0.0015538886655122042,0.0003362468269187957,0.0008351034484803677
1761467842339310300,6.736310302734375,-0.0014709295937791467,-0.00040650879964232445,0.0002785027027130127
1761467842349264400,6.746264404296875,0.00019678269745782018,0.0007988453144207597,-0.00008396711200475693
1761467842359219500,6.756219482421875,-0.00006900075823068619,0.0021735690534114838,0.0007016654126346111
1761467842369173500,6.766173583984375,0.0002463863347657025,0.00032712347456254065,-0.0022317657712846994
1761467842379127600,6.77612744140625,0.0005361382500268519,0.0007377829169854522,0.0008915895596146584
1761467842389081600,6.78608154296875,0.0011157413246110082,-0.0006313785561360419,-0.0005044329445809126
1761467842399036400,6.796036376953125,0.00046140269841998816,-0.002221019472926855,-0.000027460744604468346
1761467842408990500,6.805990478515625,0.0018236645264551044,0.001322072115726769,0.0007606321014463902
1761467842418944300,6.8159443359375,-0.00014015042688697577,0.00010900228517130017,-0.0001813278067857027
1761467842428898600,6.825898681640625,0.0005725065129809082,-0.0005980746354907751,-0.0011048221495002508
1761467842438853400,6.835853271484375,-0.0003870304499287158,0.00006558507448062301,0.0009157180320471525
1761467842448807400,6.845807373046875,0.0006704746629111469,0.0008208773797377944,-0.0010301254224032164
1761467842458761500,6.855761474609375,-0.00020517269149422646,-0.0010891417041420937,0.0002862748224288225
1761467842468715500,6.865715576171875,0.001358376583084464,0.00006027010385878384,0.0007318479474633932
1761467842478670300,6.87567041015625,0.0007312021334655583,0.0007569529698230326,0.00043277512304484844
1761467842488624600,6.885624755859375,0.0005657649016939104,0.0004747905768454075,-0.000588124617934227
1761467842498578400,6.895578369140625,-0.00013331492664292455,-0.00040085677755996585,-0.002066445304080844
1761467842508532500,6.905532470703125,0.0007513302261941135,-0.00019683886785060167,-0.0006997131276875734
1761467842518486500,6.915486572265625,0.0002503896248526871,-0.0016184342093765736,-0.0015838826075196266
1761467842528441300,6.92544140625,0.0003999121836386621,0.0002228597877547145,0.0001621008850634098
1761467842538395400,6.9353955078125,0.0006622336222790182,-0.000974763766862452,0.0010678420076146722
1761467842548349400,6.945349365234375,0.0011962895514443517,0.0008567444165237248,0.0005332238506525755
1761467842558304500,6.955304443359375,-0.001640509581193328,0.00007643824210390449,0.0014128659386187792
1761467842568258600,6.965258544921875,0.0012171173002570868,0.00021081414888612926,-0.0005562857259064913
1761467842578212600,6.975212646484375,0.0010802308097481728,-0.00005443667760118842,-0.0005781236104667187
1761467842588166400,6.98516650390625,0.0007932348526082933,0.000035808043321594596,-0.000954032177105546
1761467842598120400,6.995120361328125,0.000004406552761793137,-0.00002704255166463554,-0.0002576156985014677
1761467842608075300,7.0050751953125,0.0006035261321812868,0.0004030051059089601,0.0000747116282582283
1761467842618029300,7.015029296875,-0.0006614754092879593,-0.0002958083641715348,0.00033383723348379135
1761467842627983600,7.024983642578125,-0.0003865965991280973,0.000027151836548000574,-0.0015162990894168615
1761467842637937700,7.034937744140625,-0.00025583538808859885,0.00011982984142377973,0.0005255462601780891
1761467842647892500,7.044892578125,-0.00010911677964031696,0.00010530761210247874,0.0006228424608707428
1761467842657846500,7.054846435546875,-0.0010859642643481493,0.0004547143471427262,0.0006268371362239122
1761467842667800300,7.06480029296875,-0.0021298015490174294,0.0010327468626201153,0.0008049209136515856
1761467842677754400,7.07475439453125,0.0008742440259084105,-0.0017292173579335213,-0.001095511019229889
1761467842687709700,7.084709716796875,-0.0006259024376049638,-0.002135009504854679,-0.0019363360479474068
1761467842697663500,7.09466357421875,-0.0014988866169005632,0.00017208707868121564,0.0007966000121086836
1761467842707617500,7.104617431640625,0.00006623851368203759,0.0007108306745067239,0.000022703316062688828
1761467842717571600,7.114571533203125,0.00038688303902745247,-0.0011163641465827823,0.00019314559176564217
1761467842727526400,7.1245263671875,-0.0010904010850936174,0.0003075697459280491,-0.00048330635763704777
1761467842737480400,7.13448046875,-0.00034072124981321394,-0.0006871209479868412,-0.0006095403805375099
1761467842747434500,7.1444345703125,-0.00012737361248582602,-0.0005618013674393296,-0.00013229995965957642
1761467842757388300,7.15438818359375,0.00011018035002052784,0.0007351581007242203,-0.0006572089623659849
1761467842767343600,7.164343505859375,-0.0005014715134166181,0.0006618048064410686,-0.0020117221865803003
1761467842777297400,7.17429736328125,0.0003661863738670945,0.001049561076797545,0.00011214870028197765
1761467842787251500,7.18425146484375,-0.00038245314499363303,-0.0002859133528545499,0.0003767383750528097
1761467842797205500,7.19420556640625,0.00040557619649916887,0.000790802703704685,-0.0005007730796933174
1761467842807160300,7.204160400390625,0.00007501774234697223,-0.0006282262038439512,-0.00048437737859785557
1761467842817114400,7.2141142578125,0.0004904709057882428,-0.001080431044101715,-0.0003027496859431267
1761467842827068700,7.224068603515625,0.0024014022201299667,-0.000718760013114661,-0.0003364237491041422
1761467842837022500,7.2340224609375,0.0009691541781648993,-0.0009083770564757288,0.00004573981277644634
1761467842846977500,7.2439775390625,0.0006654789322055876,0.0009119549067690969,-0.00027709780260920525
1761467842856931300,7.253931396484375,0.0009278003708459437,-0.0012199055636301637,0.00039694830775260925
1761467842866885400,7.263885498046875,0.00013490294804796576,0.0006105772918090224,0.00014536618255078793
1761467842876839400,7.27383935546875,0.000015327008441090584,-0.0009012992959469557,-0.0007872728165239096
1761467842886794500,7.28379443359375,0.00010062131332233548,0.0003170142008457333,0.0010329808574169874
1761467842896748500,7.29374853515625,-0.0010261621791869402,0.001448324997909367,0.0005679929163306952
1761467842906702600,7.30370263671875,0.0004043708322569728,0.0010236002271994948,0.0008804616518318653
1761467842916657400,7.313657470703125,0.0005630952073261142,-0.0011372886365279555,0.0011576968245208263
1761467842926611500,7.323611572265625,-0.0001226270105689764,0.001303245546296239,0.0013253313954919577
1761467842936565500,7.3335654296875,-0.0012475461699068546,0.0007434490835294127,0.00006405822932720184
1761467842946519300,7.343519287109375,0.00007549027213826776,-0.00028800562722608447,-0.00023700273595750332
1761467842956474600,7.353474609375,0.0005202381871640682,-0.0003481930762063712,-0.0008870805613696575
1761467842966428400,7.363428466796875,-0.00010509800631552935,0.0008463111007586122,-0.0014460771344602108
1761467842976382500,7.373382568359375,0.0004871890414506197,-0.0005518484977073967,0.00009935535490512848
1761467842986336500,7.38333642578125,-0.0011064100544899702,0.0008010882302187383,-0.0004009802360087633
1761467842996291300,7.393291259765625,-0.000040080398321151733,0.00006525687058456242,0.00017932243645191193
1761467843006245400,7.403245361328125,-0.00047090338193811476,-0.0000744567732908763,-0.0006217083428055048
1761467843016199400,7.413199462890625,-0.0003350821789354086,0.00039399327943101525,-0.0002209027297794819
1761467843026153500,7.423153564453125,0.0002510654740035534,-0.0010006767697632313,0.0002755126915872097
1761467843036108500,7.433108642578125,0.0006348269525915384,0.00029495108174160123,0.0004928265698254108
1761467843046062600,7.4430625,0.0007587175932712853,-0.0002704951330088079,0.0008409121073782444
1761467843056016400,7.453016357421875,-0.00013850134564563632,-0.0009365517180413008,-0.00022754818201065063
1761467843065970200,7.46297021484375,-0.0014350772835314274,0.0011979677947238088,1.6600824892520905e-7
1761467843075925200,7.47292529296875,-0.0005943173891864717,-0.0012311014579609036,0.00033599045127630234
1761467843085879300,7.48287939453125,0.0021194773726165295,-0.0000852861994644627,-0.0008034214843064547
1761467843095833300,7.492833251953125,0.00013275898527354002,0.003091065911576152,0.00012868479825556278
1761467843105787400,7.502787353515625,0.001615005312487483,0.0005823612445965409,0.0005445114802569151
1761467843115742200,7.5127421875,-0.00006544939242303371,-0.0010016869055107236,-0.0013726979959756136
1761467843125696300,7.5226962890625,-0.0008858449291437864,0.0004286998591851443,0.00012695090845227242
1761467843135650000,7.532650146484375,0.000993015244603157,0.00039168194052763283,-0.000029643066227436066
1761467843145605400,7.54260546875,-0.0014449632726609707,-0.0012707251589745283,0.0004706750623881817
1761467843155559400,7.552559326171875,-0.000006323738489300013,-0.00019534067541826516,0.0012520465534180403
1761467843165513200,7.56251318359375,-0.0004609724855981767,-0.00007316369010368362,0.00011025113053619862
1761467843175467300,7.57246728515625,-0.0007675022934563458,0.0006946256617084146,0.00012942589819431305
1761467843185422000,7.582422119140625,-0.0009191586286760867,-0.0012302066897973418,0.00009095622226595879
1761467843195376000,7.592376220703125,-0.0006400593556463718,0.0008803483797237277,-0.00004699546843767166
1761467843205330200,7.602330078125,-0.00017291359836235642,0.00029482331592589617,0.0005740579217672348
1761467843215284200,7.6122841796875,-0.0026965250726789236,-0.0008950770134106278,-0.0013945507816970348
1761467843225239300,7.6222392578125,-0.00047407482634298503,-0.0005173162207938731,-0.0009071789681911469
1761467843235193300,7.632193359375,0.0011155660031363368,0.00007177502266131341,-0.001254987670108676
1761467843245147100,7.642147216796875,-0.0019839685410261154,-0.000899706850759685,0.0005613029934465885
1761467843255101200,7.65210107421875,-0.0003684950352180749,0.00008459747186861932,-0.00023098732344806194
1761467843265056300,7.66205615234375,0.0005979140405543149,0.000344098691130057,0.00014891941100358963
1761467843275010300,7.67201025390625,0.00018539041047915816,0.0008402455132454634,-0.0002537504769861698
1761467843284964400,7.68196435546875,0.000020308943931013346,0.0013743725139647722,0.00009428896009922028
1761467843294919200,7.691919189453125,-0.00012323545524850488,0.0015019378624856472,-0.0017701899632811546
1761467843304873200,7.701873291015625,0.00014764454681426287,-0.0013963304227218032,0.0008181629236787558
1761467843314827300,7.7118271484375,-0.0004955088370479643,0.000028727110475301743,-0.00021061627194285393
1761467843324781000,7.721781005859375,0.0013680653646588326,0.0005184797337278724,-0.0007169414311647415
1761467843334736400,7.731736328125,-0.0005222464678809047,0.00042473647044971585,0.0013153166510164738
1761467843344690400,7.7416904296875,0.00004185223951935768,-0.0008253160631284118,-0.0018587480299174786
1761467843354644200,7.751644287109375,-0.0003331208135932684,0.0009094669949263334,0.0003609966952353716
1761467843364598300,7.761598388671875,0.001199386897496879,-0.00042842671973630786,0.00031509576365351677
1761467843374553000,7.771552978515625,0.0003620890202000737,0.0005257838638499379,0.0008615765254944563
1761467843384507100,7.781507080078125,-0.0014335376909002662,0.0015053775859996676,-0.0018801277037709951
1761467843394461200,7.791461181640625,0.0004530456499196589,0.00002119797863997519,0.0002051275223493576
1761467843404415200,7.801415283203125,-0.00007816485594958067,-0.00005306628008838743,0.0009507574141025543
1761467843414370300,7.811370361328125,-0.0007801741594448686,0.0011445572599768639,0.00040853768587112427
1761467843424324400,7.821324462890625,-0.0009260911610908806,0.0000984497310128063,0.0016208559973165393
1761467843434278100,7.831278076171875,-0.0008733605500310659,0.0004459922492969781,0.0002847481518983841
1761467843444233200,7.841233154296875,-0.0007203874411061406,0.00000729347812011838,-0.0003833719529211521
1761467843454187300,7.851187255859375,0.0002902821870520711,-0.0003770006587728858,0.000697605311870575
1761467843464141000,7.86114111328125,-0.0015438121045008302,-0.0002353390445932746,-0.00008915388025343418
1761467843474095400,7.871095458984375,0.00048232084373012185,0.0000743865966796875,0.0005002038087695837
1761467843484050200,7.88105029296875,-0.0007801023893989623,0.0009011364891193807,-0.0002988399937748909
1761467843494004200,7.891004150390625,0.0012417694088071585,-0.0008437666692771018,-0.00005622603930532932
1761467843503958300,7.900958251953125,-0.0009901276789605618,-0.0014091463526710868,-0.0004132152535021305
1761467843513912300,7.910912353515625,-0.000006622285582125187,0.0010289775673300028,-0.0004473037552088499
1761467843523867100,7.9208671875,0.0004526320844888687,0.0008258810266852379,0.0002548589836806059
1761467843533821400,7.930821533203125,-0.0011468625161796808,-0.0007134260376915336,0.000895349308848381
1761467843543775200,7.940775146484375,0.00010499003110453486,0.00036744558019563556,0.0004700087010860443
1761467843553730300,7.950730224609375,-0.0002958156983368099,-0.00027890357887372375,-0.0008554465603083372
1761467843563684400,7.960684326171875,0.000038968806620687246,0.0007811437244527042,-0.000007414491847157478
1761467843573638100,7.97063818359375,-0.000027343921829015017,-0.001144321751780808,-0.0016444597858935595
1761467843583592200,7.98059228515625,0.0005477871163748205,-0.0004922299995087087,0.0006022925954312086
1761467843593547300,7.99054736328125,0.0014266304206103086,0.0002971309586428106,-0.0006416700780391693
1761467843603501300,8.000501220703125,0.00032190990168601274,-0.0008483664132654667,0.0020853709429502487
1761467843615321000,8.012321044921874,-0.0015620102640241385,-0.0007226651650853455,0.0009119822643697262
1761467843625276400,8.0222763671875,0.00029778521275147796,0.0008099493570625782,-0.0005682280752807856
1761467843635230200,8.032230224609375,0.0003939252928830683,-0.0010715739335864782,-0.0010723643936216831
1761467843645184300,8.042184326171874,-0.0013824368361383677,-0.0011811562580987811,-0.00014151842333376408
1761467843655138300,8.05213818359375,-0.0006426107138395309,-0.0013500007335096598,0.0003034956753253937
1761467843665093000,8.062093017578125,-0.0006753409979864955,0.0003884828183799982,-0.00035476451739668846
1761467843675047200,8.072047119140626,-0.001304379664361477,-0.0007359037990681827,0.0007544420659542084
1761467843685001200,8.082001220703125,-0.0005365379620343447,0.00029590088524855673,0.00006176065653562546
1761467843694955300,8.091955322265624,0.00039184000343084335,-0.00027215140289627016,-0.0003387785982340574
1761467843704910300,8.101910400390626,0.0005907713202759624,-0.0009822194697335362,-0.00025766645558178425
1761467843714864000,8.111864013671875,0.00019742234144359827,-0.0012069903314113617,0.0003015974070876837
1761467843724818200,8.121818115234374,-0.0011595888063311577,0.0002898898092098534,0.00046876189298927784
1761467843734773200,8.131773193359376,-0.0008695705910213292,0.0013881775084882975,-0.00039649917744100094
1761467843744727000,8.14172705078125,0.0009255601326003671,-0.00022402420290745795,-0.00003734184429049492
1761467843754681300,8.151681396484374,-0.0012723467079922557,0.00016479732585139573,-0.000153722008690238
1761467843764635400,8.161635498046875,-0.0006575712468475103,0.0004001637571491301,-0.0022057113237679005
1761467843774590200,8.171590087890625,-0.0007792777032591403,0.0000294517376460135,0.00046890159137547016
1761467843784544300,8.181544189453126,-0.0021293838508427143,-0.0003093476698268205,0.00039278692565858364
1761467843794498300,8.191498291015625,-0.00030352070461958647,0.0003529805107973516,-0.0009086998179554939
1761467843804453000,8.201453125,0.0002477077068760991,-0.00026639964198693633,-0.0003919538576155901
1761467843814407400,8.211407470703126,0.0016285566380247474,-0.0006331169279292226,0.0004618554376065731
1761467843824361200,8.221361328125,0.00016964401584118605,0.0008045968716032803,0.0004091819282621145
1761467843834315300,8.231315185546874,0.0009491512319073081,-0.00010726953041739762,0.0010960110230371356
1761467843844270300,8.241270263671876,0.0004123637336306274,0.0005463461857289076,-0.0005864137783646584
1761467843854224100,8.25122412109375,0.0005487176240421832,0.00031145542743615806,0.0002466228324919939
1761467843864178200,8.26117822265625,-0.000659303623251617,-0.00007561955135315657,-0.0008761496283113956
1761467843874132200,8.27113232421875,0.00048239354509860277,0.0012192094000056386,0.00011348119005560875
1761467843884087300,8.28108740234375,-0.00035159802064299583,0.00007869958062656224,-0.0011826609261333942
1761467843894041300,8.291041259765626,-0.0008927523158490658,0.00045953161315992475,-0.0006947696674615145
1761467843903995400,8.300995361328125,-0.0003160902124363929,0.001108773984014988,0.00038998969830572605
1761467843913950200,8.3109501953125,0.00008285132935270667,-0.0015256251208484173,0.0016893460415303707
1761467843924526300,8.3215263671875,-0.0007028779364190996,-0.0003651137521956116,-0.0011736622545868158
1761467843934481200,8.331481201171876,0.000833765952847898,-0.0009134586434811354,0.0005392828024923801
1761467843944435500,8.341435546875,0.0007230202318169177,-0.0011667084181681275,-0.0003924344200640917
1761467843954389200,8.35138916015625,-0.002352664479985833,-0.0001946546253748238,-0.0009748674929141998
1761467843964344300,8.36134423828125,0.0007720699068158865,0.0016583299729973078,0.0007142000831663609
1761467843974298000,8.371298095703125,0.0011097586248070002,-0.0010309299686923623,-0.0003262970130890608
1761467843984252200,8.381252197265624,-0.000830030650831759,0.0008585520554333925,-0.000498366542160511
1761467843994206200,8.391206298828125,-0.00013973930617794394,-0.000133741763420403,-0.0011231440585106611
1761467844004161300,8.401161376953125,-0.0009916137205436826,0.0005960554117336869,0.0007822318002581596
1761467844014115300,8.411115234375,-0.00004645792068913579,-0.0007355251582339406,-0.000896891113370657
1761467844024069400,8.4210693359375,-0.00047354260459542274,-0.0012195094022899866,0.0008067728485912085
1761467844034024200,8.431024169921875,-0.0006325333379209042,-0.00020963865972589701,0.00030583213083446026
1761467844043978200,8.440978271484376,0.0005782086518593132,-0.00007620509131811559,-0.0003299769014120102
1761467844053932300,8.450932373046875,0.00035104103153571486,-0.0009827450849115849,0.0016543444944545627
1761467844063886300,8.46088623046875,0.0002735902089625597,0.00006973810377530754,0.00008937600068747997
1761467844073841400,8.47084130859375,0.000056276272516697645,0.0006316651124507189,0.000027590664103627205
1761467844083795200,8.480795166015625,-0.00022975826868787408,0.000030385679565370083,-0.0016478325705975294
1761467844093749200,8.490749267578124,0.00046399515122175217,0.000442110380390659,-0.00012130872346460819
1761467844103704300,8.500704345703125,-0.0009770351462066174,-0.00048123791930265725,0.00015953066758811474
1761467844113658400,8.510658447265625,0.0002863684785552323,-0.0006839045090600848,0.00022078328765928745
1761467844123612400,8.5206123046875,0.0001380820176564157,-0.000638272613286972,0.0008246162906289101
1761467844133566500,8.53056640625,0.0011255821445956826,0.0008397817146033049,-0.0003122873604297638
1761467844143521300,8.540521240234375,0.00023364578373730183,-0.000012901102309115231,-0.0005806083790957928
1761467844153475300,8.550475341796876,-0.0014127204194664955,-0.0003884067991748452,0.00023831380531191826
1761467844163429400,8.560429443359375,0.0009140701149590313,0.00005478523962665349,0.0011409218423068523
1761467844173384400,8.570384521484375,0.00061233394080773,-0.00013696234964299947,0.000967816449701786
1761467844183338500,8.58033837890625,-0.0008127172477543354,-0.0010465766536071897,-0.0005525765009224415
1761467844193292300,8.590292236328125,0.00014309125253930688,0.0014440115774050355,-0.0005800072103738785
1761467844203246300,8.600246337890624,-0.0020057272631675005,-0.00028553552692756057,0.00005222042091190815
1761467844213201400,8.610201416015625,0.0010819416493177414,-0.00003040469891857356,-0.00027934322133660316
1761467844223155200,8.6201552734375,0.00003442633897066116,0.00037183825043030083,0.00010954751633107662
1761467844233109200,8.630109130859376,-0.0013429606333374977,0.0001175063953269273,0.0006152817513793707
1761467844243064300,8.640064208984375,0.0009097633883357048,0.0007848710520192981,-0.0020518465898931026
1761467844253018400,8.650018310546875,-0.0010077125625684857,0.0007931268191896379,0.00043767644092440605
1761467844262972400,8.659972412109376,0.0017749161925166845,0.00023270893143489957,-0.0009077086579054594
1761467844272926200,8.66992626953125,0.0009021983714774251,0.0003837101685348898,0.0012201570207253098
1761467844282881300,8.67988134765625,-0.0009150092955678701,0.0007242210558615625,0.00022764760069549084
1761467844292835300,8.68983544921875,-0.0004686635220423341,0.0011375437024980783,0.0006598785985261202
1761467844302789400,8.699789306640625,0.0011259136954322457,-0.00043964365613646805,-0.00034126779064536095
1761467844312744400,8.709744384765624,0.0010697210673242807,0.0005537153920158744,-0.0003657687921077013
1761467844322698200,8.7196982421875,0.00021988124353811145,0.0003211928124073893,0.0006618755869567394
1761467844332652300,8.72965234375,-0.00015748862642794847,-0.0002838773652911186,0.000981188495643437
1761467844342606300,8.7396064453125,0.0015731172170490026,0.0006726061692461371,-0.0008332384750247002
1761467844352561200,8.74956103515625,0.0005557896220125258,0.0002920404658652842,-0.001255349488928914
1761467844362515500,8.759515380859375,-0.0009666644036769867,0.0001751858799252659,-0.001175951911136508
1761467844372469500,8.769469482421876,0.00007090315921232104,0.0006564190844073892,-0.00047181197442114353
1761467844382424300,8.77942431640625,-0.00027522421441972256,-0.00007500287028960884,0.00036346842534840107
1761467844392378400,8.78937841796875,-0.0012419517152011395,-0.0013173675397410989,-0.00029486510902643204
1761467844402332400,8.79933251953125,0.00022991618607193232,0.0005687245866283774,-0.00040381867438554764
1761467844412286200,8.8092861328125,-0.00046756566734984517,0.00020813255105167627,-0.0003497565630823374
1761467844422241500,8.819241455078124,-0.00007433566497638822,0.001447314745746553,-0.00020230538211762905
1761467844432195300,8.8291953125,0.0021110542584210634,-0.00020251345995347947,-0.0013669058680534363
1761467844442149400,8.8391494140625,-0.0013573921751230955,-0.0002881839172914624,0.00079354178160429
1761467844452104400,8.8491044921875,0.000875402067322284,-0.0005851263413205743,0.0006273605395108461
1761467844462058200,8.859058349609375,0.000037005345802754164,-0.0002736891037784517,-0.0009686264675110579
1761467844472012300,8.86901220703125,0.001408000593073666,0.0006099477177485824,-0.00011774641461670399
1761467844481967400,8.87896728515625,-0.0002723440993577242,-0.0001348885998595506,-0.0000639746431261301
1761467844491921400,8.88892138671875,-0.000611098192166537,-0.0012661993969231844,0.0009317812509834766
1761467844501875500,8.89887548828125,-0.0010143026011064649,-0.00090572121553123,-0.0003457146231085062
1761467844511829500,8.90882958984375,-0.0006734179914928973,0.0008018977241590619,-0.0005949863698333502
1761467844521784300,8.918784423828125,0.0009619897464290261,0.00009634773596189916,0.0003906355705112219
1761467844531738400,8.92873828125,-0.0008694661082699895,0.00010194038623012602,0.0000777142122387886
1761467844541692200,8.938692138671875,-0.00017624389147385955,0.0006473959656432271,0.000762849347665906
1761467844551647500,8.9486474609375,0.0010908881668001413,0.0003432629455346614,-0.000722129363566637
1761467844561601300,8.958601318359374,-0.0013012309791520238,0.00009023462189361453,-0.0013050541747361422
1761467844571555300,8.968555419921875,-0.0006024175090715289,0.00039782971725799143,-0.000025138724595308304
1761467844581509400,8.97850927734375,-0.0007287941407412291,-0.0002600491279736161,-0.00006850529462099075
1761467844591464200,8.988464111328126,-0.00014929031021893024,-0.0001407395175192505,-0.0006035342812538147
1761467844601418200,8.998418212890625,0.0005399120855145156,-0.0002036706282524392,-0.00015779538080096245
1761467844611372300,9.008372314453124,0.00013484532246366143,0.0008485442958772182,-0.0011242562904953957
1761467844621327400,9.018327392578126,-0.0009776842780411243,-0.0006394708761945367,0.0013887578388676047
1761467844631281400,9.028281494140625,0.00004283909220248461,0.00071314861997962,0.00021590176038444042
1761467844641235500,9.0382353515625,0.0004304426838643849,0.0009363129502162337,-0.0004649725742638111
1761467844651189200,9.048189208984375,-0.0008018019143491983,0.0001791762188076973,-0.0010878858156502247
1761467844661144300,9.058144287109375,-0.0005076077068224549,-0.0015617669560015202,-0.0004943744279444218
1761467844671098000,9.06809814453125,-0.0007254542433656752,0.00013120449148118496,-0.00041341432370245457
1761467844681052400,9.078052490234375,0.0005929925246164203,-0.00037029030499979854,0.00011955155059695244
1761467844691007500,9.088007568359375,-0.0007172827608883381,0.0003386431490071118,-0.0006700756493955851
1761467844700961300,9.097961181640626,0.00018735812045633793,0.000329119386151433,-0.001034385059028864
1761467844710915300,9.107915283203125,-0.0012776467483490705,0.0009682780364528298,0.000007443362846970558
1761467844720869400,9.117869384765624,-0.0006684930995106697,-0.0013139189686626196,-0.0006026129703968763
1761467844730824200,9.12782421875,-0.000824288057629019,-0.0001820754405343905,-0.0004971518646925688
1761467844740778500,9.137778564453125,-0.0011955966474488378,-0.00029302568873390555,0.0005433124024420977
1761467844750732500,9.147732666015624,-0.00037880512536503375,0.0006201722426339984,-0.0005600352305918932
1761467844760687400,9.157687255859376,0.0004398748278617859,0.00034602978848852217,-0.00033808243460953236
1761467844770641400,9.167641357421875,0.0004774254048243165,-0.000032938027288764715,-0.0009759094100445509
1761467844780595200,9.17759521484375,-0.0006263194954954088,-0.00025015079881995916,-0.0004084240645170212
1761467844790550300,9.18755029296875,-0.0007086111581884325,0.0009141832124441862,0.000040851300582289696
1761467844800504300,9.19750439453125,-0.000521909212693572,0.0006047137430869043,-0.0005567145999521017
1761467844810458400,9.207458251953126,0.00042271404527127743,-0.0007700099959038198,0.0005540899001061916
1761467844820412400,9.217412353515625,-0.0003835005918517709,0.00007043743971735239,0.0018931989325210452
1761467844830367200,9.2273671875,-0.0000926834181882441,0.0010608669836074114,-0.0001329339575022459
1761467844840321300,9.2373212890625,-0.0007389863603748381,0.0006150693516246974,0.0007136713247746229
1761467844850275300,9.247275390625,-0.0003584206278901547,0.0002374331234022975,-0.00041763950139284134
1761467844860230400,9.25723046875,0.0005802966188639402,-0.0006685625994578004,0.001705725328065455
1761467844870184400,9.267184326171876,-0.00053610053146258,-0.0006746878498233855,-0.00007273373194038868
1761467844880138500,9.277138427734375,0.0010890307603403926,0.0003667472046799958,0.00033755251206457615
1761467844890092300,9.28709228515625,0.0007755766855552793,-0.0011392703745514154,-0.0004712494555860758
1761467844900047400,9.29704736328125,0.0012554493732750416,0.0001109179574996233,0.000761672155931592
1761467844910001200,9.307001220703125,-0.0011789461132138968,0.00038069620495662093,0.0015824584988877177
1761467844919955200,9.316955078125,0.00005976232932880521,-0.0010420129401609302,-0.00038243900053203106
1761467844929910500,9.32691064453125,-0.00041854139999486506,0.001656035427004099,0.0009046667255461216
1761467844939864300,9.3368642578125,-0.0018316117348149419,-0.0004286184557713568,-0.00024949945509433746
1761467844949818400,9.346818359375,0.0007697639521211386,0.0005104121519252658,0.0005971195641905069
1761467844959773200,9.356773193359375,0.0005079217371530831,0.0008261983748525381,-0.0006186494138091803
1761467844969727200,9.366727294921875,-0.0008295177831314504,-0.0000675585470162332,0.00015366729348897934
1761467844979681300,9.376681396484376,-0.0011834773467853665,-0.00030745333060622215,0.0003454717807471752
1761467844989635300,9.38663525390625,0.0002793970634229481,-0.0007306296611204743,-0.0010034192819148302
1761467844999590400,9.39659033203125,0.0006667411653324962,-0.0006869224016554654,0.0006693799514323473
1761467845009544400,9.40654443359375,-0.00016682822024449706,-0.00024590292014181614,-0.0009069452062249184
1761467845019498200,9.416498291015625,-0.0014737187884747982,-0.0003321158583275974,-0.0002844426780939102
1761467845029453300,9.426453369140624,0.000538033084012568,-0.00048125284956768155,-0.001923618372529745
1761467845039407400,9.436407470703125,-0.0006757937953807414,-0.0010622241534292698,-0.0008184679318219423
1761467845049361200,9.446361083984375,0.00009465869516134262,-0.0012361286208033562,-0.000492763239890337
1761467845059315500,9.4563154296875,0.000661146710626781,0.0006791076739318669,0.0011931766057386994
1761467845069270300,9.466270263671875,0.0012007032055407763,-0.0007824351196177304,-0.0003679683431982994
1761467845079224300,9.476224365234375,-0.00014107476454228163,-0.0005396142951212823,-0.000009282957762479782
1761467845089178400,9.486178466796876,-0.001917935791425407,-0.000943083199672401,-0.0007227438036352396
1761467845099133200,9.49613330078125,0.000030483701266348362,0.0006033017998561263,0.0007062412332743406
1761467845109087200,9.506087158203124,0.00010025850497186184,-0.0002888572053052485,0.000864965608343482
1761467845119041500,9.51604150390625,0.002492666244506836,-0.00008967812755145133,0.000878223916515708
1761467845128995300,9.525995361328125,-0.0006005953764542937,0.0008501514676027,-0.00009196554310619831
1761467845138950400,9.535950439453124,-0.0003040860465262085,-0.0007910794811323285,0.000582126434892416
1761467845148904400,9.545904541015625,0.0014464096166193485,0.00020760591723956168,0.0014995854580774903
1761467845158858200,9.555858154296875,0.0008124715532176197,-0.00028727907920256257,-0.0005201299209147692
1761467845168813300,9.565813232421876,-0.00031191506423056126,-0.0001621105329832062,-0.0018796739168465137
1761467845178767400,9.575767333984375,-0.0006309854215942323,-0.0017501597758382559,0.0010488007683306932
1761467845188721400,9.585721435546875,0.0003173662698827684,-0.0009259113576263189,-0.000028181355446577072
1761467845198676200,9.59567626953125,-0.0004896848113276064,-0.00035455438774079084,-0.0005401039961725473
1761467845208630300,9.60563037109375,0.00023922236869111657,0.000039859762182459235,-0.002365967258810997
1761467845218584300,9.615584228515624,0.0005863435217179358,0.0005373689346015453,0.0010806580539792776
1761467845228538400,9.625538330078125,-0.0008104844600893557,-0.0004203038406558335,0.0008947693277150393
1761467845238493400,9.635493408203125,-0.0006899206200614572,-0.00019559504289645702,0.00039763073436915874
1761467845248447500,9.645447509765624,0.0006118324818089604,-0.0005207670037634671,0.0009481061715632677
1761467845258401300,9.6554013671875,0.000039875798393040895,0.0012718122452497482,-0.00016210670582950115
1761467845268356400,9.6653564453125,0.0014257847797125578,-0.0004528508288785815,0.00013696635141968727
1761467845278310400,9.675310302734376,0.0001353758852928877,-0.0004756807757075876,0.00009983009658753872
1761467845288264200,9.68526416015625,0.0006075543933548033,0.0006127531523816288,0.0006585612427443266
1761467845298219500,9.695219482421875,0.00020116177620366216,0.00016207352746278048,0.0007726454641669989
1761467845308173300,9.70517333984375,-0.0012673052260652184,-0.000898663536645472,-0.001383183291181922
1761467845318127400,9.71512744140625,0.0002916743978857994,-0.0008382988162338734,0.001253559603355825
1761467845328081400,9.725081298828124,-0.000030834402423352,-0.00002843159018084407,0.0013033606810495257
1761467845338036200,9.7350361328125,0.0011788851115852594,0.00019652588525786996,-0.0006846438627690077
1761467845347990300,9.744990234375,0.0020249714143574238,0.00014033319894224405,-0.0004971574526280165
1761467845357944300,9.7549443359375,-0.00024219875922426581,-0.0014004731783643365,0.0011091677006334066
1761467845367899400,9.7648994140625,0.0002739218180067837,-0.00002574946847744286,0.00012220023199915886
1761467845377853400,9.774853515625,-0.0003415968967601657,0.001202061539515853,-0.0007045026868581772
1761467845387807500,9.784807373046876,-0.0008412059396505356,-0.0009548325324431062,-0.0000011618249118328094
1761467845397761300,9.79476123046875,0.00022390997037291527,0.00027427118038758636,-0.0013896867167204618
1761467845407716400,9.80471630859375,0.00005107081960886717,0.0004106250707991421,0.0010005002841353416
1761467845417670100,9.814670166015626,-0.0014076285297051072,0.00007823706255294383,0.0004059579223394394
1761467845427624200,9.824624267578125,0.0007159760571084917,-0.00004480098141357303,0.000499967485666275
1761467845437579500,9.83457958984375,0.0010504795936867595,0.013065116479992867,0.0007662540301680565
1761467845447533300,9.844533203125,-0.0017764659132808447,-0.005864633247256279,0.0011769135016947985
1761467845457487400,9.8544873046875,-0.0004797541187144816,0.007232239469885826,0.0003075508866459131
1761467845467442200,9.864442138671874,-0.00043954039574600756,0.0010086986003443599,-0.0000943201594054699
1761467845477396200,9.874396240234375,-0.00038514731568284333,0.0013982472009956837,0.0005618960130959749
1761467845487350300,9.884350341796875,0.0020697545260190964,0.0028464742936193943,0.000054031144827604294
1761467845497304300,9.89430419921875,-0.0013951770961284637,-0.002594900783151388,0.0001396543812006712
1761467845507259400,9.90425927734375,0.0007409444660879672,-0.001543484628200531,0.0008155645336955786
1761467845517213400,9.91421337890625,0.00025885843206197023,-0.007575432304292917,-0.0012026806361973286
1761467845527167200,9.924167236328126,0.00044741027522832155,-0.00464595528319478,0.0011164001189172268
1761467845537122300,9.934122314453125,-0.0005149901262484491,-0.0013272131327539682,0.0010451055131852627
1761467845547076400,9.944076416015625,0.0015377744566649199,-0.0016462597995996475,0.0006408374756574631
