time,seconds_elapsed,z,y,x
1761469476916604200,0.059604248046875,0.44611645855903626,-0.09946750544607638,0.06044701604768633
1761469476926559000,0.06955908203125,0.32189445108473297,-0.09395341819971799,-0.05939436518959701
1761469476936513800,0.079513671875,0.16466683058738707,-0.13518880716860293,-0.10608787343390286
1761469476946469000,0.08946923828125,0.07971534174978732,-0.13047083873599766,-0.17502521605975924
1761469476956423200,0.099423095703125,0.05450549716949463,-0.11807926693558692,-0.20407178925871847
1761469476966378000,0.1093779296875,-0.011466565909981727,-0.1500324482962489,-0.15784626385234296
1761469476976332800,0.119332763671875,-0.18391630545854568,-0.17280235237851738,-0.13143310789689422
1761469476986288000,0.1292880859375,-0.34740181730687614,-0.1492323839597404,-0.16709150045104323
1761469476996243000,0.139242919921875,-0.43629473724663254,-0.09232888573780655,-0.16655169448591767
1761469477006197000,0.149197021484375,-0.50791561986804,-0.05119958749189973,-0.10488733853772282
1761469477016151800,0.15915185546875,-0.516406969359517,-0.015860416954755784,-0.007262757544592022
1761469477026107000,0.16910693359375,-0.4011059349656105,-0.005538052643835545,0.07013795058727264
1761469477036062000,0.17906201171875,-0.272475463399291,-0.011405775633454322,0.14333134322240948
1761469477046017000,0.18901708984375,-0.1343061791151762,-0.038531829098612067,0.21401034188382326
1761469477055970800,0.198970703125,-0.005700257468223571,-0.042371115000545974,0.23670867856722325
1761469477065926000,0.20892578125,0.041133389899134634,-0.08619900468066334,0.2015214837213978
1761469477075881000,0.218880859375,0.02684942848086357,-0.11220409129187464,0.1392276342306286
1761469477085836000,0.2288359375,-0.025884967362880706,-0.09481514959558844,0.11838146475255489
1761469477095790800,0.238790771484375,-0.013881810358166694,-0.08542992000430821,0.10360898916497827
1761469477105746000,0.248745849609375,0.027567221361398695,-0.0813819597877562,0.10931282682977617
1761469477115700000,0.258699951171875,0.05053834710419178,-0.10067308184355497,0.12183891173005103
1761469477125655000,0.268655029296875,0.057579497787356375,-0.11044234231635927,0.1286848321020603
1761469477135609900,0.27860986328125,-0.028924481189250943,-0.1343164082482457,0.06729900083430111
1761469477145565000,0.28856494140625,-0.14743687884509563,-0.13348828686103223,0.015749723121896386
1761469477155520000,0.29852001953125,-0.227633282110095,-0.11081629019528627,-0.0421667515348643
1761469477165474000,0.30847412109375,-0.23369769671559332,-0.0927430194966495,-0.07013217843361198
1761469477175428900,0.318428955078125,-0.19550679000914095,-0.09614508302509785,-0.048149917597696185
1761469477185384000,0.328384033203125,-0.12398878324031828,-0.10457359641343354,-0.007280220136046409
1761469477195339500,0.338339599609375,-0.08056114492416382,-0.09593363223150372,0.035360651716589926
1761469477205294300,0.34829443359375,-0.04546937327682972,-0.11337225828841328,0.05657791952937841
1761469477215249400,0.35824951171875,-0.05764730232656002,-0.16044351380392907,0.01685940139684826
1761469477225203200,0.368203125,-0.08224982866346836,-0.2195909915603697,-0.07558189520686864
1761469477235158500,0.378158447265625,-0.032467852884531016,-0.21649857850298285,-0.10221461219713092
1761469477245113300,0.38811328125,0.020483400580286977,-0.23171192972585558,-0.10714717322848737
1761469477255068400,0.398068359375,0.07831073564887046,-0.24957345736995337,-0.09694397831782699
1761469477265023200,0.408023193359375,0.11589140150249004,-0.26749124524593354,-0.0444296549655497
1761469477274977500,0.4179775390625,0.1343278064250946,-0.26595819045975805,0.04470229789447039
1761469477284932400,0.427932373046875,0.14357085106670855,-0.21013328125476835,0.10306596832945943
1761469477294887400,0.437887451171875,0.10274258159399031,-0.17009440859407185,0.07178637538142502
1761469477304842200,0.44784228515625,0.04212356998026371,-0.14998144876137376,0.05266271884702146
1761469477314797300,0.45779736328125,-0.09946750544607638,-0.1793374532356858,-0.010541340823844074
1761469477324752400,0.46775244140625,-0.24532091449201104,-0.15958061336427926,-0.09970328696332871
1761469477334706400,0.47770654296875,-0.3167337073206901,-0.11241261947602033,-0.1138631836105138
1761469477344661200,0.4876611328125,-0.2912052983105182,-0.10264262835085392,-0.08426409109532833
1761469477354616300,0.4976162109375,-0.24320903690457343,-0.09499562072902917,-0.025161694589629767
1761469477364571400,0.5075712890625,-0.13396014215648175,-0.10232274874672292,0.021860972543805837
1761469477374526200,0.517526123046875,-0.0003635726153850555,-0.12849895414114,0.06363624054305254
1761469477384481500,0.5274814453125,0.11414192748665809,-0.1514522519662976,0.07882957189120351
1761469477394435300,0.537435302734375,0.213908708140254,-0.152803666575253,0.09240721167102456
1761469477404390400,0.547390380859375,0.26815584663450714,-0.14342384381145237,0.1041190210463479
1761469477414345200,0.55734521484375,0.2752127794086933,-0.1375359548166394,0.09388137587681412
1761469477424300500,0.567300537109375,0.24453005637526512,-0.14370909049361943,0.06351429466381668
1761469477434255400,0.57725537109375,0.19078852931559084,-0.16805208911150693,0.019223317516595124
1761469477444209400,0.58720947265625,0.13091712119877338,-0.1505732771746814,-0.01482237914390862
1761469477454164200,0.597164306640625,0.11927929037511348,-0.14047741509601472,-0.029648630745336413
1761469477464119600,0.60711962890625,0.10550970821976662,-0.14804580452367663,0.0031819179717451334
1761469477474074400,0.617074462890625,0.13393033154010772,-0.13123495497629045,0.03520239241495728
1761469477484029200,0.627029296875,0.14365443769693373,-0.10594240054860711,0.0768021577168256
1761469477493983200,0.636983154296875,0.12450374702513217,-0.1018938558101654,0.08660795080773531
1761469477503938600,0.6469384765625,0.09218845435380935,-0.11636311066746712,0.06369304876420646
1761469477513893400,0.656893310546875,0.06914893954992293,-0.11352277267500757,0.04436977800447493
1761469477523848200,0.66684814453125,0.04506371508538723,-0.12479337762147187,0.06318480698112398
1761469477533803300,0.67680322265625,0.009149521139264106,-0.15059358931034802,0.05683693579174578
1761469477543758300,0.68675830078125,-0.02229892556965351,-0.18484174974039197,0.04143989856503904
1761469477553712400,0.69671240234375,-0.09203121796548366,-0.24477277908995745,-0.010425532424449921
1761469477563667200,0.706667236328125,-0.1571983944028616,-0.24529797200784087,-0.07511296252086758
1761469477573622300,0.716622314453125,-0.15140870508551596,-0.2938499676004052,-0.12879793708771467
1761469477583577300,0.726577392578125,-0.07801146044135093,-0.3383607249781489,-0.12572649375312028
1761469477593532400,0.736532470703125,-0.006116437053680419,-0.36816798035129905,-0.10072137796469033
1761469477603487200,0.7464873046875,0.05334580574035644,-0.36351679354459043,-0.08674027195051312
1761469477613441300,0.756441162109375,0.07214987493157386,-0.3304857538193464,-0.09119871266409754
1761469477623396400,0.766396240234375,0.04598492158353328,-0.300000160793215,-0.0989545874878764
1761469477633351400,0.776351318359375,-0.009607786300778388,-0.22787103638872502,-0.06896196561045945
1761469477643306200,0.78630615234375,-0.13619126220941544,-0.16822262337282298,-0.10356683052368461
1761469477653261300,0.79626123046875,-0.28040450283288954,-0.09900032632574439,-0.13645488158166408
1761469477663215400,0.80621533203125,-0.37105215748548503,-0.029563655875623224,-0.17703545990362762
1761469477673170400,0.81617041015625,-0.3646446285307407,-0.007106032612919807,-0.17388042993880806
1761469477683125200,0.826125244140625,-0.2996966478019953,-0.022013532757014034,-0.15585677053555846
1761469477693080300,0.836080322265625,-0.21806524329781532,-0.011977145780622958,-0.17906689266599712
1761469477703035400,0.846035400390625,-0.10157353781461716,0.012726502843201159,-0.20234584224894642
1761469477712990200,0.855990234375,0.031032851645350454,0.025555589278042315,-0.18134207105636596
1761469477722944300,0.8659443359375,0.12200257785916328,0.0054896834574639794,-0.20379465281777082
1761469477732899300,0.8758994140625,0.21678981653451918,-0.002513882517069578,-0.20224457383155822
1761469477742854400,0.8858544921875,0.2907429414957762,-0.02780716759711504,-0.1708934500172734
1761469477752809200,0.895809326171875,0.3631511751025915,-0.048124563960731025,-0.14100764951519668
1761469477762764300,0.905764404296875,0.45995326073169707,-0.08751169471442699,-0.1233083266954869
1761469477772718300,0.91571826171875,0.5284709166407585,-0.1276734631024301,-0.09900427184849978
1761469477782673400,0.92567333984375,0.5263058475613593,-0.16628025713339448,-0.08400712065957486
1761469477792628200,0.935628173828125,0.46601007655262944,-0.21629019644930958,-0.0634123686593026
1761469477802583300,0.945583251953125,0.3257283301591873,-0.22299714674204588,-0.07284991295970976
1761469477812538400,0.955538330078125,0.21566402737498283,-0.19069559033513067,-0.1339949212089181
1761469477822492400,0.965492431640625,0.12061784550249575,-0.19199162149503826,-0.16644838024191558
1761469477832447200,0.975447265625,0.014297405421733855,-0.18305632762834428,-0.1763636250566691
1761469477842402300,0.98540234375,-0.10326339059770107,-0.17237360557243228,-0.16351437261663376
1761469477852357400,0.995357421875,-0.25352234112620353,-0.16186828591004013,-0.14621530116088688
1761469477862312200,1.005312255859375,-0.3480494675606489,-0.0830845259219408,-0.15982983888499439
1761469477872267300,1.015267333984375,-0.3713888420939445,-0.027937223717570302,-0.1247868017502129
1761469477882221300,1.02522119140625,-0.34580841063559054,-0.0554781415939331,-0.10404248521141707
1761469477892176400,1.03517626953125,-0.23629881912469863,-0.07341214995235204,-0.07359788178279995
1761469477902131200,1.045131103515625,-0.11357727934122085,-0.07421279881075024,-0.030794001388177273
1761469477912086300,1.055086181640625,0.0038473230779170987,-0.0984131740875542,0.00436316364556551
1761469477922041300,1.065041259765625,0.07841244245767592,-0.11378317717686295,0.029132424851506945
1761469477931996400,1.074996337890625,0.0883306098818779,-0.15717530578821898,0.008343538518622517
1761469477941950200,1.0849501953125,0.043932080706954,-0.13779124475196003,-0.04152355826050043
1761469477951905300,1.0949052734375,-0.01132043543756008,-0.10450725317895412,-0.07266140465028584
1761469477961860400,1.1048603515625,-0.028398996010422704,-0.0816027629315853,-0.03402480000294745
1761469477971815400,1.1148154296875,0.0005424363136291504,-0.057399611175805325,0.02416055472306907
1761469477981770200,1.124770263671875,0.00857376707792282,-0.02106222338154912,0.07457213364243508
1761469477991724300,1.134724365234375,0.010110475125908852,0.007080313649773597,0.10574030210524797
1761469478001679400,1.144679443359375,0.0010153145223855973,0.03461977022141218,0.10570479240044951
1761469478011634400,1.154634521484375,0.0010638298392295837,0.03143339527025819,0.11046550399623811
1761469478021589200,1.16458935546875,0.04246259267628193,0.02711670111492276,0.13596117978058755
1761469478031544300,1.17454443359375,0.10602934817969799,0.03908858619853854,0.18827530438564716
1761469478041498400,1.184498291015625,0.17243103484809397,0.00758650960624218,0.22508038275688885
1761469478051453400,1.194453369140625,0.2202449254244566,-0.00586436198875308,0.2554053783938289
1761469478061408300,1.204408203125,0.22783494216203687,-0.022733517594635485,0.26707287370339033
1761469478071363300,1.21436328125,0.212832603341341,-0.03686009649410844,0.2770809844333678
1761469478081318400,1.224318359375,0.20008301188349722,-0.05216156439185142,0.24870558849424124
1761469478091273200,1.234273193359375,0.20457915425896644,-0.07491378668695688,0.24221352306120097
1761469478101227300,1.244227294921875,0.15281740283966064,-0.11959858545735477,0.20720519191361964
1761469478111182300,1.254182373046875,0.0943909328341484,-0.14216785240098834,0.17653218655660746
1761469478121137400,1.264137451171875,-0.0019599018961191177,-0.14438582071140407,0.152322970386222
1761469478131092200,1.27409228515625,-0.0668541066110134,-0.12596870501115917,0.10964001295752823
1761469478141047300,1.28404736328125,-0.14036533302366733,-0.1164345684684813,0.1299301559880376
1761469478151001000,1.2940009765625,-0.1920318073749542,-0.1029037635050714,0.1567874755144119
1761469478160956400,1.303956298828125,-0.20589315946698186,-0.07698562452495097,0.17577135825194418
1761469478170911200,1.3139111328125,-0.18402151939868927,-0.07100625785440207,0.17236987924538552
1761469478180866300,1.3238662109375,-0.09380056572556496,-0.06898892668262124,0.1776004003100097
1761469478190821000,1.333821044921875,-0.005460603493452072,-0.10369827488362789,0.1699542694710195
1761469478200775200,1.343775146484375,0.006191840377449989,-0.16252397333979607,0.1144667024616152
1761469478210730200,1.353730224609375,-0.025226211193203923,-0.1860835664950311,0.02250380049198866
1761469478220685300,1.363685302734375,-0.10477730229198932,-0.18255597689077258,-0.06659991265423595
1761469478230640000,1.37364013671875,-0.15231939018964766,-0.1903378629386425,-0.10292962859869002
1761469478240595200,1.38359521484375,-0.17714228127896783,-0.1761665681146085,-0.13632774807065726
1761469478250550300,1.39355029296875,-0.18616203855872154,-0.16688582181110978,-0.11566131907366216
1761469478260504300,1.40350439453125,-0.13953122028708456,-0.18965046519637108,-0.0822846077159047
1761469478270459100,1.413459228515625,-0.09385141912996768,-0.19708938302546739,-0.06791289494894445
1761469478280414200,1.423414306640625,0.03191080352365971,-0.20574965934306383,-0.04746931492239236
1761469478290369300,1.433369384765625,0.1340788001000881,-0.22519041900262235,-0.023161387617886064
1761469478300324000,1.443323974609375,0.19754209522902966,-0.23459581459909676,-0.021571195816993714
1761469478310278100,1.453278076171875,0.22862755384445188,-0.24484233719483017,-0.01527165728136897
1761469478320233200,1.463233154296875,0.2657195593982935,-0.20908231089711188,-0.042752515533566474
1761469478330188300,1.473188232421875,0.2558031455397606,-0.17171105001047252,-0.06559321982972323
1761469478340143000,1.48314306640625,0.19738076718747616,-0.15819281226769089,-0.0708640729047358
1761469478350098200,1.49309814453125,0.13821195438206196,-0.12359291579052806,-0.11413476709350943
1761469478360053200,1.50305322265625,0.09182780434787273,-0.10100698997303843,-0.14430596040822566
1761469478370007300,1.51300732421875,0.04446691823601723,-0.09266907747760414,-0.14835852373465894
1761469478379962000,1.522962158203125,0.020960370442271233,-0.09682371293902396,-0.11611278916820883
1761469478389917200,1.532917236328125,-0.016598668101429938,-0.09488763030990957,-0.11210413804873823
1761469478399872300,1.542872314453125,0.001342062258720398,-0.07974500623568892,-0.1548404330998659
1761469478409827300,1.552827392578125,0.11016133341789244,-0.11294058887287974,-0.1714746839713305
1761469478419781000,1.562781005859375,0.1854921764731407,-0.18735022542998195,-0.1262698799148202
1761469478429736200,1.572736083984375,0.266390006005764,-0.23466639561727642,-0.15507080778963864
1761469478439691300,1.582691162109375,0.2961521070629358,-0.24454057776927945,-0.20203911438733338
1761469478449646300,1.592646240234375,0.27317104444801804,-0.2448047816634178,-0.21330138989686964
1761469478459601200,1.60260107421875,0.180482239356637,-0.21253610461279748,-0.22702647532336412
1761469478469555200,1.61255517578125,0.07023088956773281,-0.15757307293415068,-0.1910536099925637
1761469478479510300,1.62251025390625,-0.05899988597929477,-0.12622589464262127,-0.1689307716421783
1761469478489465300,1.63246533203125,-0.1634235525280237,-0.1139212704733014,-0.19819142598323522
1761469478499420200,1.642420166015625,-0.21351941656172274,-0.17629048675522208,-0.2251123853303492
1761469478509375000,1.652375,-0.22866145611405372,-0.20656930516287683,-0.23939715046621857
1761469478519330300,1.662330322265625,-0.37349195185303685,-0.12044131989181041,-0.26924320347979663
1761469478529284400,1.672284423828125,-0.577652003917098,-0.024387422281503677,-0.31553821392580866
1761469478539239200,1.6822392578125,-0.6244079098731279,0.03162570297196507,-0.4530631358917802
1761469478549194000,1.692194091796875,-0.5117623584240675,-0.02864639490023255,-0.42605427906550464
1761469478559149300,1.7021494140625,-0.453729856172204,-0.15835311739593744,-0.34883090026192365
1761469478569104100,1.712104248046875,-0.44810500202775,-0.23508535168170927,-0.41490810421630736
1761469478579058200,1.72205810546875,-0.4112047196537256,-0.21652575877085325,-0.4470587809104472
1761469478589013000,1.732012939453125,-0.37754502663612366,-0.1812269202440977,-0.466705146144703
1761469478598968300,1.74196826171875,-0.475867453700304,-0.2132498058401048,-0.4621718866292387
1761469478608923100,1.751923095703125,-0.633743893495202,-0.18726327779889107,-0.459117321364209
1761469478618878200,1.761878173828125,-0.6368617332547902,-0.09863076236099004,-0.39510172611474986
1761469478628833300,1.771833251953125,-0.6097825876712799,0.011015607272088527,-0.32099845209307964
1761469478638787300,1.781787353515625,-0.47760815988779065,0.24521833090037107,-0.3565581335131079
1761469478648742100,1.7917421875,-0.35565468186736104,0.43469490083456036,-0.30270671633817253
1761469478658697200,1.801697265625,-0.19057985500097274,0.6077972590729593,-0.24385683328881858
1761469478668652300,1.81165234375,-0.14120879811048506,0.6140279701560736,-0.2573248752143234
1761469478678607000,1.821607177734375,-0.4228600861340761,0.534824085059762,-0.40352388282753526
1761469478688561200,1.83156103515625,-0.35145080043673516,0.701210579046607,-0.6458462730906903
1761469478698516200,1.84151611328125,-0.1652145275980234,0.8040688959747553,-0.5933906941883266
1761469478708471300,1.85147119140625,0.15725567754805087,0.9913356809049844,-0.4928935534335673
1761469478718426000,1.861426025390625,0.6606184564173221,1.2162643802314996,-0.5166732190802693
1761469478728381200,1.871381103515625,1.154287524268031,1.347259827363491,-0.45646761057302354
1761469478738336000,1.8813359375,1.6321844379693269,1.1719392085537315,-0.24496234684530643
1761469478748290300,1.891290283203125,2.194226200300455,0.8851979039147496,-0.13733062323657794
1761469478758245000,1.9012451171875,2.7299358360230923,0.8195663248360157,-0.05136418976935092
1761469478768200200,1.9112001953125,3.4527222870618104,0.7675067595139146,0.3535239899815991
1761469478778155000,1.921155029296875,3.883571033862233,0.9514669041141867,-0.5719612083969637
1761469478788110300,1.9311103515625,3.8965409900724888,0.8683958221957087,-1.228109277934581
1761469478798064000,1.941064208984375,4.1369016518086195,0.6864385418504476,-0.9712114690259098
1761469478808019200,1.951019287109375,4.632397935086488,0.8780953784331679,-1.0906519413121043
1761469478817974000,1.96097412109375,5.029761760914325,1.2261980374857782,-1.2680972971908748
1761469478827929300,1.970929443359375,5.380891074311733,1.5762378020808099,-1.3756867342941461
1761469478837884200,1.98088427734375,5.623129804879427,1.8290274450182913,-0.9870262932732701
1761469478847839200,1.990839111328125,5.532302117484807,2.0038132262989876,-0.36647443777378647
1761469478857793000,2.00079296875,5.186774861878156,1.793102145156264,0.22377565683387218
1761469478867748400,2.010748291015625,3.9018905344069004,0.9012591041386127,1.3013091003105044
1761469478877703200,2.020703125,2.323401446267962,-1.4389967385575175,2.9710706970021126
1761469478887658200,2.030658203125,2.648573311588168,-2.6818749849483368,3.9507124329820273
1761469478897613300,2.04061328125,3.527981818446517,-1.1766393490687013,3.6646143946826455
1761469478907567400,2.0505673828125,3.6543572045624253,0.837643248796463,1.6842986560881137
1761469478917522200,2.060522216796875,2.8523826505184173,1.5518910040706395,0.271990255431924
1761469478927477200,2.070477294921875,0.8424965340465307,0.3326744960352778,0.4187405950512737
1761469478937432300,2.080432373046875,-1.0406348416030407,-0.16623071890324354,0.32775055670179426
1761469478947387100,2.09038720703125,-2.6259640048950907,0.4914727268502116,1.0934126381970941
1761469478957342200,2.10034228515625,-2.7101462629258632,1.0108251020118593,1.371775259938836
1761469478967296000,2.1102958984375,-4.703263030904531,-0.7368895029321313,1.609077557017654
1761469478977251300,2.120251220703125,-9.323125309544801,-4.686481407451629,1.3479083544000983
1761469478987206100,2.1302060546875,-14.112514133763312,-7.096500229942798,-1.215172054950148
1761469478997161200,2.1401611328125,-17.346809358477593,-5.439778147566318,-5.8410500867485995
1761469479007116300,2.1501162109375,-21.11868936513662,-4.671071072351932,-8.84089182794392
1761469479017070300,2.1600703125,-22.47783135347366,-4.110561634154617,-8.789692971104383
1761469479027025200,2.170025146484375,-20.237249060189722,-4.94950281380713,-8.015352273917198
1761469479036980200,2.179980224609375,-17.993192368793487,-6.207850432008504,-8.156746949988603
1761469479046935300,2.189935302734375,-15.555999123650789,-5.988302841198444,-9.243871155565976
1761469479056890400,2.199890380859375,-13.750793283724784,-6.942102279913425,-9.940470441424846
1761469479066845200,2.20984521484375,-11.797384256756304,-6.927240226346254,-9.275628814354539
1761469479076799200,2.21979931640625,-10.027173742365836,-5.7382069673895835,-7.174334580251574
1761469479086754000,2.229754150390625,-8.125526466816662,-4.603522261475026,-4.583424937602877
1761469479096709400,2.23970947265625,-6.2460577053278685,-3.520834577040374,-1.9881914404056966
1761469479106664200,2.249664306640625,-4.298109866374731,-2.8020024165853856,-0.3638587388500571
1761469479116619000,2.259618896484375,-2.7701088564574716,-2.7055180186033247,0.21582915480881928
1761469479126573000,2.269572998046875,-1.7929823181688784,-2.37284673743844,0.7040494557343423
1761469479136528100,2.279528076171875,-1.1652993321478367,-1.2567109569102526,1.3371554897174238
1761469479146483200,2.289483154296875,-0.17681144188940523,0.13413900585472582,2.369794364130497
1761469479156438000,2.29943798828125,1.1356424450308085,1.1422867053508758,2.1017117288626728
1761469479166393300,2.309393310546875,0.8892910184472799,0.8852522644504904,2.4199362592630087
1761469479176348200,2.31934814453125,1.7342489741712808,2.6463606039747596,2.850961677804589
1761469479186302200,2.32930224609375,2.727289705428481,4.177001899267733,2.964453616949916
1761469479196257300,2.33925732421875,3.5166257271736856,4.851899640928209,3.203455849814415
1761469479206212400,2.34921240234375,4.346982326093316,5.540353321993351,2.479141166295111
1761469479216167200,2.359167236328125,4.8357063387572765,5.405556729012727,2.7357588430881496
1761469479226122500,2.36912255859375,5.650905116033554,5.008315652781724,2.725468919742107
1761469479236077300,2.379077392578125,6.316368089872598,5.098281754910945,2.5113211421489714
1761469479246031400,2.38903125,6.981530034938454,5.375811579090357,2.9971482643276453
1761469479255986200,2.398986083984375,8.12555160125792,5.5646594957321875,3.608962065565586
1761469479265941500,2.40894140625,9.429969481238722,5.738882674694061,4.009077235928178
1761469479275896300,2.418896240234375,10.550381623911857,5.945390751188993,4.1276323036819695
1761469479285851100,2.42885107421875,11.423584846389293,6.327440103507041,4.183981967413425
1761469479295805200,2.43880517578125,11.979787819564342,6.884910320138931,4.278275869613886
1761469479305760300,2.44876025390625,12.001990299022196,7.439515794989466,4.449305220970511
1761469479315715300,2.45871533203125,11.774278106456995,8.081920549324154,4.775558451786637
1761469479325670100,2.468670166015625,11.30894841338396,8.376500292503833,4.896799397623539
1761469479335625500,2.47862548828125,10.579269864743948,8.441619538146258,4.838119245117903
1761469479345580300,2.488580322265625,9.838870015603304,8.483532680246233,4.515547333163023
1761469479355534300,2.498534423828125,9.117489339709282,8.635956699854136,4.133268263742328
1761469479365489200,2.5084892578125,8.487364221233129,8.7479218678236,3.692885088138282
1761469479375444500,2.518444580078125,7.865367464154958,8.769733302137254,3.3651059629291296
1761469479385399300,2.5283994140625,7.348150931978226,8.69111452345252,3.193675045034289
1761469479395354400,2.538354248046875,6.949397113096714,8.801537138155103,3.011497692197561
1761469479405308200,2.54830810546875,6.814440361118316,9.081185269662738,2.5251392396211623
1761469479415263500,2.558263427734375,7.001583227407932,9.629059390431642,1.673902349758148
1761469479425218300,2.56821826171875,6.667171240055561,10.367599290919303,0.4390114488594234
1761469479435173400,2.57817333984375,6.175839675241709,10.758999824428559,-0.41863574643731116
1761469479445128400,2.58812841796875,6.022815936174989,10.76951420418024,-0.5398388444818556
1761469479455083300,2.598083251953125,6.437449461233616,10.682149224460124,-0.667291650570929
1761469479465037300,2.608037353515625,6.347863298332691,10.195872604948281,0.06626826954707503
1761469479474992400,2.617992431640625,6.552659894734621,9.487783956825732,0.9862138078466057
1761469479484947500,2.627947509765625,5.640150497785211,7.334230543175339,3.0067277013167737
1761469479494902300,2.63790234375,4.153331977605819,3.453716558796167,5.402317893221974
1761469479504857300,2.647857421875,4.549042775529623,-0.49362522870898246,6.913311069715022
1761469479514812200,2.657812255859375,4.968829445567727,-4.484300546506047,5.6304345749348395
1761469479524766500,2.667766357421875,2.180781027793884,-8.141838134670257,2.0889539540983737
1761469479534721300,2.67772119140625,-2.6668676776915787,-11.044557472240925,-4.243174745616317
1761469479544676400,2.68767626953125,-11.03606203109622,-12.89476331436634,-9.08688786521852
1761469479554631200,2.697631103515625,-16.54086590080261,-14.677739786827564,-12.93379768615961
1761469479564586500,2.70758642578125,-20.782448993313313,-15.97836178165674,-12.579637042242288
1761469479574541300,2.717541259765625,-21.72886708960533,-18.762191704952716,-10.596406877505778
1761469479584495400,2.727495361328125,-21.448829666519163,-20.547915430295465,-7.687627801504731
1761469479594450200,2.7374501953125,-20.82749458822012,-19.182620764547586,-3.4503698787167667
1761469479604405500,2.747405517578125,-20.21047561955452,-16.96748972338438,0.7012412664458155
1761469479614360300,2.7573603515625,-19.00719288597107,-15.10569047409892,3.1473063848301766
1761469479624315100,2.767315185546875,-17.0228041988492,-13.15069739280939,2.2961844996489584
1761469479634269200,2.777269287109375,-15.794722539573907,-11.295485705220699,-0.29857042025104163
1761469479644224500,2.787224609375,-16.126383766913413,-9.173990394610167,-2.6429849900618194
1761469479654179300,2.797179443359375,-15.39762057955265,-6.4004579934448,-2.98277837819159
1761469479664134100,2.807134033203125,-14.226256248277425,-4.115516333952546,-1.9268129887267946
1761469479674089500,2.81708935546875,-14.282391392475366,-1.5181412946820259,-2.2271439889095723
1761469479684044300,2.827044189453125,-17.374294746774435,-2.249185870978236,-1.6097721151530742
1761469479693998300,2.836998291015625,-15.48534913188815,0.2343564528852701,-2.9770524017602202
1761469479703953200,2.846953125,-10.519331821131706,0.00012625672817230223,-2.1942288306489584
1761469479713908500,2.856908447265625,-6.521793631827831,-1.2484957940116523,-1.1714037865027784
1761469479723863300,2.86686328125,-4.368597945573926,-0.47069531175941226,-2.2237980394825336
1761469479733818400,2.876818359375,-1.605141532742977,-0.30741350578963755,-2.6741774161830545
1761469479743772200,2.886772216796875,1.2561235124111174,-0.27187399037480353,-2.860885982708633
1761469479753727500,2.8967275390625,2.7717303201794623,0.6716928081393242,-2.816609910869598
1761469479763682300,2.906682373046875,3.7535973309934136,2.1305372797220943,-2.3718476433984934
1761469479773637400,2.916637451171875,5.235027728393674,3.3699449273928996,-1.5502049506798385
1761469479783592200,2.92659228515625,7.105327094998955,4.245149552820623,-0.8575085905436426
1761469479793547300,2.93654736328125,8.69693285434246,5.056635739314556,-0.5562867059357464
1761469479803501300,2.946501220703125,9.896264219951629,5.769722634115815,-0.3935093423567712
1761469479813456400,2.956456298828125,10.852885730350017,6.1743269325912,-0.16619657917162403
1761469479823411200,2.9664111328125,11.978706454068421,6.710713444662094,0.6505174797721207
1761469479833366300,2.9763662109375,13.90360133421421,7.123719076257943,2.164118208415061
1761469479843321300,2.9863212890625,16.016358042573927,6.825925047206878,3.6915628996238112
1761469479853275400,2.996275390625,16.96347522704601,6.731503134712576,4.68538981282264
1761469479863230200,3.006230224609375,17.62725010166764,6.351968980085849,3.9016400667771696
1761469479873185300,3.016185302734375,18.31181875799298,7.361088739484548,3.0316674967840314
1761469479883140400,3.026140380859375,18.21592560390234,6.9032292361617085,2.3708131857842205
1761469479893095200,3.03609521484375,17.30749441617727,6.5310109575062985,1.5582336510956287
1761469479903050500,3.046050537109375,15.869065540635585,6.89343440285623,0.7256329265110194
1761469479913004300,3.05600439453125,12.91361765244007,7.257458269140124,0.3584343757137656
1761469479922959400,3.06595947265625,7.818752427974343,6.613770489257574,0.6189373695075512
1761469479932914200,3.0759140625,5.279703320944309,7.4092960132926695,-1.0894970721885562
1761469479942869500,3.085869384765625,2.932617047706246,8.002558258795737,-1.1658001943420617
1761469479952824300,3.09582421875,1.6921417708039284,7.785365706679224,-1.2813564456060529
1761469479962779400,3.105779296875,1.5923878496319055,7.581778486067056,-0.8017559428572655
1761469479972733200,3.115733154296875,2.440319268208742,7.4107719310641285,-0.031136896541714667
1761469479982688500,3.1256884765625,4.0454976258307696,7.044478950804471,0.8108439430676401
1761469479992643300,3.135643310546875,5.803400447311997,6.430806954479217,1.6372455207511782
1761469480002598400,3.145598388671875,7.393456639125943,6.024817923647165,2.0257909570902584
1761469480012553200,3.15555322265625,8.516542384922504,5.6966971453934905,2.0406886664927004
1761469480022507500,3.165507568359375,8.956997748979926,5.264909656438231,1.4868994764611123
1761469480032462300,3.17546240234375,8.653893338561058,4.844453124314546,0.6780933228313922
1761469480042417400,3.18541748046875,7.433565362152457,4.016453902176022,0.1648573847234249
1761469480052372200,3.195372314453125,4.9398611252367495,2.8556425290971994,-0.26445969553031023
1761469480062327300,3.205327392578125,2.146959422212839,2.223167048102617,-0.8535921477522701
1761469480072282400,3.215282470703125,-0.10222995589673518,1.2587141134262083,-1.2799239285849033
1761469480082236400,3.225236328125,-1.410533737400174,-0.8028992676734924,-1.0474619111441075
1761469480092191200,3.235191162109375,-1.505326236772537,-3.0505525222569703,-0.30528712475281206
1761469480102146300,3.245146240234375,-1.51164316483438,-5.543378807294369,1.0890580962494014
1761469480112101400,3.255101318359375,-2.9023721315681934,-7.591791930559277,1.9324232298240065
1761469480122056200,3.26505615234375,-5.909051025307178,-8.308653083202243,0.7032774484485388
1761469480132010200,3.27501025390625,-9.725937463906407,-8.99781315897107,-1.8641594025455415
1761469480141965300,3.28496533203125,-12.289268779277801,-10.311718998265265,-4.42387764198631
1761469480151920400,3.29492041015625,-13.926203626644611,-12.234322552603482,-6.155140586084127
1761469480161875200,3.304875244140625,-16.744202361524103,-14.916509964501858,-7.282900753432512
1761469480171830500,3.31483056640625,-18.55480801466703,-15.867087518560885,-7.694265047562122
1761469480181785300,3.324785400390625,-17.94706423934698,-15.384578727149963,-7.1412845435649155
1761469480191740000,3.334739990234375,-16.77037257556915,-14.351804535919428,-6.194680569311976
1761469480201694700,3.34469482421875,-17.07731671028137,-12.611749505817889,-5.857300964325666
1761469480211649800,3.35464990234375,-19.67937669249773,-9.881282923918961,-5.538635996681451
1761469480221604900,3.36460498046875,-22.26067445719242,-7.453265503400564,-5.1041024238884445
1761469480231559700,3.3745595703125,-24.241976868736742,-5.870317097765207,-4.952625914263725
1761469480241513700,3.384513671875,-23.94283025603294,-4.3192172440722585,-3.757836283737421
1761469480251468800,3.39446875,-19.850922176682946,-3.547835104429722,-1.481401317436248
1761469480261423900,3.404423828125,-13.996287801218031,-3.66204220610708,-0.1429635328233242
1761469480271378700,3.414378662109375,-9.07964973065853,-2.035316618065536,1.6246043581038712
1761469480281334000,3.424333984375,-4.434101806619763,-1.0245207421481608,2.049632435926795
1761469480291288800,3.434288818359375,0.11493746177852153,-0.4334454852953553,1.7192361139565706
1761469480301243000,3.444242919921875,3.8230800325423475,0.010597966381907463,0.5705389570415019
1761469480311197700,3.45419775390625,6.353182447528838,0.5064391175746917,-0.842779442641139
1761469480321153000,3.464153076171875,7.574992186927795,1.4827160532966255,-1.6432909383952616
1761469480331107800,3.47410791015625,8.325302604708074,2.5076667112946507,-1.2681594026416538
1761469480341063000,3.48406298828125,9.401534244871138,3.405038744866848,0.333740956223011
1761469480351016700,3.4940166015625,10.548340473473072,4.366712277957797,2.5129692016169427
1761469480360972000,3.503971923828125,11.591022310733795,5.116331790864467,4.909450789403915
1761469480370926800,3.5139267578125,12.73713412733078,5.542005180853605,7.112549447467923
1761469480380881700,3.523881591796875,14.110819020283222,5.668993145909905,8.525615333694219
1761469480390836700,3.533836669921875,15.440335101163386,5.878919506415724,8.203649570938945
1761469480400791800,3.543791748046875,14.971978753745555,5.2326177446424955,8.66575211865902
1761469480410745900,3.553745849609375,14.56202081928253,5.131709392738342,7.20144061384201
1761469480420700700,3.56370068359375,13.28445470587015,5.423354836031794,4.884814360797405
1761469480430655700,3.57365576171875,11.109198578977583,5.020730897718668,2.902199697610736
1761469480440610800,3.58361083984375,8.164648516893386,4.908275900405645,0.6291442907452582
1761469480450566000,3.59356591796875,4.677798334780335,5.216426488298177,-0.9192059719786048
1761469480460520700,3.603520751953125,1.8002496788233517,5.64035624949038,-1.084851584470272
1761469480470474800,3.613474853515625,0.927993381807208,6.061715283411741,-0.11546499278396367
1761469480480429800,3.623429931640625,1.7876590773195027,6.292747560310364,1.415041862474382
1761469480490385000,3.633385009765625,3.392943817925453,6.259302386826277,2.968826132945716
1761469480500339700,3.643339599609375,5.061305484691262,5.910301902151107,4.218891368231177
1761469480510295000,3.653294921875,6.629023587968945,5.759191303229332,4.6277413414523005
1761469480520248800,3.663248779296875,8.107447204768658,5.33596881352365,4.358709881027043
1761469480530204000,3.673203857421875,9.198424578642845,4.399599233037233,3.402579661276936
1761469480540158700,3.68315869140625,9.875700739872455,3.7682398965910076,2.4111682847872373
1761469480550113800,3.69311376953125,9.916077173924446,3.490940374036133,1.647903985148668
1761469480560068900,3.70306884765625,8.835491430205106,3.3870509604945775,1.338979198013246
1761469480570023000,3.71302294921875,7.244004913327098,3.3758687644839287,1.604729444810748
1761469480579977700,3.722977783203125,5.715003786456585,3.1581358218804,1.7977254210427402
1761469480589932800,3.732932861328125,4.0164948187083,2.56289117038846,1.829787031213939
1761469480599888000,3.742887939453125,2.078947962260246,1.5906676017105579,1.554075946894288
1761469480609842700,3.7528427734375,1.0923948394566774,0.585559708301723,0.7539148720130324
1761469480619798000,3.762798095703125,1.4213719422787428,-1.156128475959599,-0.3068137863308191
1761469480629751800,3.772751708984375,1.8420137678414583,-3.729344641007483,-0.8887818998813629
1761469480639707000,3.782706787109375,0.6296463950484991,-6.337604939168691,-1.6824024670779705
1761469480649661700,3.79266162109375,-3.266305981481075,-7.261475688087939,-4.335967595604062
1761469480659616800,3.80261669921875,-8.980472148069738,-7.018866955164074,-8.119642669475079
1761469480669571800,3.81257177734375,-12.85927348331213,-6.838654764920473,-11.390089404022692
1761469480679527000,3.82252685546875,-12.63222647665739,-7.065812246212363,-11.862434528815745
1761469480689480700,3.832480712890625,-9.925480962085723,-8.05190359672308,-9.10928615950942
1761469480699435800,3.842435791015625,-8.263163836181164,-8.633986276564002,-5.3483834739387035
1761469480709390800,3.852390869140625,-9.538335163411498,-9.00811009657979,-2.518522159568965
1761469480719346000,3.862345947265625,-11.85034193996191,-8.414724516957998,-1.7444664168030022
1761469480729300700,3.87230078125,-13.447966521203517,-8.322543076866864,-2.0751780883327124
1761469480739254800,3.8822548828125,-15.363402668130396,-8.657524388539791,-2.3324404927700755
1761469480749209900,3.8922099609375,-17.936531154894826,-8.139583633741736,-2.9593051481455563
1761469480759165000,3.9021650390625,-19.76967831019163,-7.694348049670458,-4.067518026719987
1761469480769119700,3.91211962890625,-20.65704800518751,-7.576707174152135,-5.496495475566387
1761469480779074800,3.92207470703125,-20.296292785310744,-7.320258131924271,-6.180422326856851
1761469480789030000,3.93202978515625,-18.412656967270372,-6.896544059309363,-5.728574046647548
1761469480798984000,3.94198388671875,-15.507064120090007,-6.016721126431227,-4.620371689467132
1761469480808938800,3.951938720703125,-11.859472171878814,-4.9178831021845335,-3.196604961006343
1761469480818893800,3.961893798828125,-7.506489144065975,-4.175231674724817,-2.004764243413508
1761469480828849000,3.971848876953125,-3.702842710790038,-3.635337154532969,-1.6007745697051285
1761469480838803700,3.9818037109375,-1.028910501539707,-2.803282811784744,-1.7519170250698923
1761469480848757800,3.9917578125,1.0894389122605324,-1.6832988313958048,-1.7070003172397612
1761469480863067000,4.00606689453125,2.685307589745521,-0.31131577392518517,-1.3189619536399841
1761469480873022000,4.01602197265625,3.499467087101936,1.0521493383079767,-0.7629185549408197
1761469480882976800,4.025976806640625,4.206325901168585,2.5414775032207366,0.2847200279444456
1761469480892931800,4.035931884765625,5.384097761398554,3.500247131563723,1.9005553886592388
1761469480902887000,4.045886962890625,7.202920623266697,3.832053904853761,3.6256153864637013
1761469480912841000,4.055841064453125,9.29308029989302,3.961856050547957,4.6594630521446465
1761469480922795800,4.065795654296875,10.805392157769203,4.076896095918118,5.18236639778614
1761469480932750800,4.075750732421875,11.802438033014536,4.287652769768238,5.593714325302839
1761469480942706000,4.085705810546875,12.718532302713394,4.420665109680593,6.165911570945382
1761469480952660700,4.09566064453125,13.589951564383506,4.659018815508484,6.3875926666527985
1761469480962614800,4.10561474609375,13.958494953918457,4.959782800281047,6.155077457720041
1761469480972569900,4.11556982421875,13.63864106875062,5.4084904443770645,5.551943222022056
1761469480982525000,4.12552490234375,12.932809844166039,5.948005902123451,4.854596624927223
1761469480992479700,4.135479736328125,12.35903965011835,6.070129476013779,4.212577655039728
1761469481002434800,4.145434814453125,12.01410860683918,5.957421380722522,3.6696649560704824
1761469481012388900,4.155388916015625,11.693787104159593,5.88321632682681,3.197634888575971
1761469481022344000,4.165343994140625,11.19270103805065,5.7741047947227955,2.569228556716442
1761469481032298800,4.175298828125,10.275651659584044,5.5097085928827525,1.8471257040277123
1761469481042253800,4.18525390625,9.071586251190304,5.366579640364646,1.5434800263389945
1761469481052209000,4.195208984375,7.847738283962011,5.494237467506528,1.665774572882056
1761469481062163700,4.205163818359375,6.890439897215366,5.687129106581211,1.7329530891418456
1761469481072117800,4.21511767578125,6.2843000499606125,5.788390509706735,1.8542159545496104
1761469481082072800,4.22507275390625,6.063281217554211,5.710511151212454,1.9884215958997606
1761469481092028000,4.23502783203125,6.051662675952911,5.474536157214641,2.008506937073171
1761469481101982700,4.244982666015625,6.0968544013321395,5.38113891159296,2.112375015565753
1761469481111937800,4.254937744140625,6.102034434318542,5.344020602554083,1.9904893420845269
1761469481121892900,4.264892822265625,5.916434705817699,5.111694778713583,1.9639321745485065
1761469481131847000,4.274846923828125,5.553557671481371,4.933893156743049,1.8776289788410065
1761469481141801700,4.2848017578125,4.791434650832414,4.574111458073556,1.3635159656375646
1761469481151756800,4.2947568359375,3.400740755411982,3.584835340046882,0.6716001614198088
1761469481161711900,4.3047119140625,2.20645147562325,2.385133679820597,0.09505758004933595
1761469481171667000,4.3146669921875,2.0570529413163663,0.7972349583014845,-0.12333119611442088
1761469481181620700,4.324620849609375,2.665908477270603,-2.041260036639869,-0.5093263634487987
1761469481191575800,4.334575927734375,1.663128442287445,-5.724616833454371,-2.232686279337108
1761469481201529900,4.34452978515625,-2.3509733438044784,-8.726474006125331,-5.393854600781202
1761469481212107800,4.355107666015625,-9.0061314899832,-9.518214166402815,-8.965770838022232
1761469481222061800,4.365061767578125,-15.113250680220126,-8.591151927965878,-11.11856729582548
1761469481232017000,4.375016845703125,-17.948750000476835,-7.6444555992543695,-10.245119743198156
1761469481241972000,4.384971923828125,-17.879058624613283,-7.69016404198408,-10.376907217490672
1761469481251926800,4.3949267578125,-17.80952156252861,-7.755641015022992,-10.487578253996372
1761469481261881900,4.4048818359375,-17.758709074658153,-7.827725423502922,-10.537259107488394
1761469481271836000,4.4148359375,-17.741665585398675,-7.872347824561595,-10.524758522355556
1761469481281791000,4.424791015625,-17.764150973451137,-7.867683339881896,-10.462527983891963
1761469481291745800,4.434745849609375,-17.82524169422984,-7.811444735309482,-10.360777920466662
1761469481301700900,4.444700927734375,-17.920611116707324,-7.708580573162436,-10.233742609137296
1761469481311655700,4.45465576171875,-18.040099081397056,-7.570337054598331,-10.103112488186358
1761469481321611000,4.464611083984375,-18.17045447705984,-7.4104586273312565,-9.990320806264878
1761469481331564800,4.474564697265625,-18.304205944901703,-7.233346156668663,-9.909514162147044
1761469481341520000,4.484519775390625,-18.44624827122688,-7.031476261368393,-9.86094039311409
1761469481351474700,4.494474609375,-18.60507689718008,-6.80068889914155,-9.83579776855111
1761469481361430000,4.504429931640625,-18.778212280905244,-6.545602961960435,-9.839970085799694
1761469481371384800,4.514384765625,-7.9887711409837,-1.7712930489301681,-3.8364965634763237
1761469481381340000,4.52433984375,-3.5642917337119577,-0.24957915645837783,-1.8047107498854398
1761469481391293700,4.534293701171875,-0.14652151756584644,1.969393947085738,0.3581897533029318
1761469481401249000,4.5442490234375,2.4554957945525646,3.98432448746562,1.831336891004443
1761469481411203800,4.554203857421875,5.352097526025772,5.418227410015463,1.7588886176481842
1761469481421159000,4.564158935546875,8.200825745689869,6.174733175304532,0.5680190831750631
1761469481431114000,4.574114013671875,9.233419319656491,7.92659262496829,0.6765291422545909
1761469481441068000,4.584068115234375,10.160231967246531,8.792046256232261,0.37763212039768695
1761469481451022800,4.59402294921875,11.158844361156225,11.22217029364109,1.4967729279607533
1761469481460978000,4.60397802734375,12.206958744859694,12.01908873333931,2.3000305075526235
1761469481470933000,4.61393310546875,13.44382109196186,12.116625562983751,3.824700327220559
1761469481480887800,4.6238876953125,14.59538649778962,11.161396383726597,5.019684019014239
1761469481490843000,4.6338427734375,15.522848549199104,10.700783782303333,5.54475477182269
1761469481500796700,4.643796630859375,15.961064609897136,11.34203235234022,6.275201966747641
1761469481510752000,4.653751953125,16.068379321712253,10.905677409338951,6.356673212254047
1761469481520706800,4.663706787109375,16.076719280034304,10.831216334855556,5.947953295153379
1761469481530662000,4.673661865234375,15.47030003131628,10.123414102458954,4.6814907595574855
1761469481540616700,4.68361669921875,13.602846117269992,8.646716578799486,2.8378561125159263
1761469481550572000,4.693572021484375,11.468808135950564,8.412005905649066,1.0153434562191366
1761469481560525800,4.70352587890625,9.501641801786421,8.189830304422975,-0.8724974122956395
1761469481570481000,4.71348095703125,7.66718824006617,8.078172010445595,-2.1809620834492147
1761469481580435700,4.723435791015625,6.006442893522977,7.668223428332805,-2.8636183302819727
1761469481590391000,4.73339111328125,3.9550966394156215,7.2688804113864895,-3.1158237435907123
1761469481600345900,4.743345947265625,1.1564648683071135,6.621735769048333,-2.8140803923919795
1761469481610300000,4.7532998046875,1.3543793039798735,6.973996716824174,-1.9717638910874724
1761469481620254700,4.763254638671875,1.696687013018131,6.992721875560283,-0.631940351204574
1761469481630210000,4.7732099609375,2.1864438758611677,6.314708047705889,0.7796529782511293
1761469481640164900,4.783164794921875,2.957505989769101,5.749161492124199,1.7114102426365017
1761469481650119700,4.79311962890625,3.522542842262983,5.916406648766994,2.111457316198945
1761469481660075000,4.803074951171875,3.7578818764448165,6.0267141126573085,1.738862605446577
1761469481670028800,4.81302880859375,3.9865532694309946,6.1215130417704575,0.9154625476665794
1761469481679983900,4.82298388671875,3.805383632332086,6.537744065153598,0.09047638973891735
1761469481689938700,4.832938720703125,3.657371583947539,6.663526746073365,0.040672202128171915
1761469481699894000,4.84289404296875,3.225283066219091,5.755201941332221,0.9404683941073715
1761469481709848800,4.852848876953125,2.7956904569596053,5.004733118119836,1.333178987301886
1761469481719803000,4.862802978515625,1.9474942499667405,4.682900626355409,1.958333477758616
1761469481729757700,4.8727578125,1.8967758701205253,4.08477282064259,3.6017435124889015
1761469481739713000,4.882713134765625,2.368883679026365,2.5958301479160784,5.585686501669883
1761469481749667800,4.892667724609375,2.879371195209026,1.4772668479800224,7.491677943903207
1761469481759623000,4.902622802734375,1.2796575327336788,-0.8614870657205581,7.896278150725364
1761469481769578000,4.912577880859375,-3.396005543583631,-3.6219904739648103,4.225326369714737
1761469481779532000,4.922531982421875,-7.947347828227281,-4.367794227975606,-3.052093906480074
1761469481789486800,4.93248681640625,-10.909062960124015,-6.680681294491887,-8.382738310110568
1761469481799442000,4.94244189453125,-10.811846448475121,-10.068956536084412,-9.854576118779182
1761469481809397000,4.95239697265625,-8.930410770827532,-12.001389410519598,-8.858089046460389
1761469481819351800,4.962351806640625,-10.490327844965456,-13.889534230417013,-6.5694695752382275
1761469481829305900,4.972305908203125,-13.912089761096238,-14.828267032903431,-4.137171408660709
1761469481839261000,4.982260986328125,-13.755125759971142,-15.04199979995489,-4.127073500755429
1761469481849216000,4.992216064453125,-13.616320515871047,-15.251450359642504,-4.098459692950547
1761469481859170800,5.0021708984375,-13.510765214943884,-15.439668746209144,-4.03621863309294
1761469481869126000,5.0121259765625,-13.446763575154542,-15.589145021927356,-3.9423365265637633
1761469481879080700,5.022080810546875,-13.4296101957798,-15.687439391940831,-3.8177015543743966
1761469481889035000,5.032034912109375,-13.465259016788005,-15.713491532564163,-3.678676237782836
1761469481898989800,5.04198974609375,-13.54717975962758,-15.658523094058037,-3.5570649973288178
1761469481908945000,5.05194482421875,-13.654354186189174,-15.541993979173897,-3.4781811379671095
1761469481918899700,5.061899658203125,-9.721578684175014,-5.983319792088865,-6.966452877315878
1761469481928855000,5.07185498046875,-4.367357005602121,-5.181597751501203,-5.076715235269069
1761469481938809900,5.081809814453125,-1.019928738182783,-3.981123645597696,-3.675809742435813
1761469481948764000,5.091763916015625,0.67595280367136,-2.53202490748167,-2.9104376568630337
1761469481958718700,5.10171875,1.8059943599551915,-0.891709770026803,-1.9861597884476183
1761469481968674000,5.111674072265625,2.782874230006337,0.6115753163069486,-0.4915855395749211
1761469481978628900,5.12162890625,3.1690392009496686,1.6793196986317633,0.8369558510541916
1761469481988583700,5.131583740234375,4.003442444911599,3.5353397799938917,0.6313105288684367
1761469481998537700,5.141537841796875,3.7976919087857004,4.35833257214725,1.3038532318353653
1761469482008493000,5.1514931640625,3.374394600278139,4.077376280650496,3.2281998304486272
1761469482018448000,5.16144775390625,4.077748036572337,5.241741546818614,4.227852965582907
1761469482028402700,5.171402587890625,5.33011248871088,6.136824592670798,4.81345972789675
1761469482038358000,5.18135791015625,6.635946080708504,6.2932636931389565,5.4663522662371395
1761469482048312800,5.191312744140625,7.679863012722135,6.085615798959136,6.021425358599424
1761469482058267000,5.201266845703125,8.61291484696269,5.871241811394691,6.131306121510267
1761469482068221700,5.2112216796875,9.313938963526487,5.708946970635652,5.734155061650275
1761469482078177000,5.221177001953125,9.72887819353342,5.344297665929794,4.963399237212538
1761469482088131800,5.2311318359375,9.947523282545804,5.127848041135072,3.861929695418477
1761469482098087000,5.2410869140625,9.998755457133054,5.350995117741823,2.6536434544593095
1761469482108040700,5.251040771484375,9.759118433496356,5.681624079424142,1.728537172395736
1761469482117996000,5.26099609375,9.254918034759163,5.810253966468572,1.2556550181165336
1761469482127950800,5.270950927734375,8.670996449053288,5.745121861344575,1.2323515916794539
1761469482137906000,5.280906005859375,7.993635532149672,5.677576849859952,1.3386809457190334
1761469482147860700,5.29086083984375,7.581898897576331,5.807098132786154,1.3703972495838999
1761469482157815800,5.30081591796875,7.392943428906798,6.004449673879146,1.3772377631284296
1761469482167769900,5.310769775390625,7.0619514791309825,6.261193899661302,1.4901329054243861
1761469482177725000,5.320724853515625,6.677111619311571,6.255493057671189,1.8030790570303796
1761469482187679700,5.3306796875,6.378568233197927,5.87832972382903,1.9071039335198698
1761469482197634800,5.340634765625,6.113999597400427,5.6701271183758974,1.6183270314000546
1761469482207590100,5.350590087890625,5.539027041825652,5.405092034110426,0.8979434037193655
1761469482217544200,5.360544189453125,4.823061376717686,4.9211634390294545,-0.029909108312427997
1761469482227499000,5.3704990234375,4.67163455145359,4.4652427948147055,-0.4262950290188193
1761469482237453800,5.380453857421875,4.4338592300355435,3.942570335319638,-0.6790602681674063
1761469482247409200,5.3904091796875,3.8792490790098904,3.1721319062680005,-0.2880534101508558
1761469482257364000,5.400364013671875,3.193212688219547,1.3987965378552674,0.8582191499657928
1761469482267319000,5.410319091796875,2.5321733760416505,-0.6014806232720613,1.177614185450226
1761469482277272800,5.42027294921875,1.3929945735782383,-2.078718829679489,1.0493656989388167
1761469482287228200,5.430228271484375,-0.6435311280161142,-4.146708175551891,1.0443846956558525
1761469482297183000,5.440182861328125,-2.5036487078249454,-6.858079596358538,1.9134540331989525
1761469482307138000,5.450137939453125,-5.778768694880604,-9.322430313017964,2.645532920978963
1761469482317092900,5.4600927734375,-10.865889004307984,-10.966009420704841,-0.24931392965093255
1761469482327047200,5.470047119140625,-17.464789256691933,-11.657515182816981,-7.8270801113367074
1761469482337002000,5.480001953125,-22.849432961535452,-13.237144673162698,-14.011006062400341
1761469482346957000,5.48995703125,-22.999302035963535,-13.045728951859473,-14.0510668546319
1761469482356911900,5.499911865234375,-23.13545121259689,-12.832429900050162,-14.213029686957597
1761469482366867000,5.509866943359375,-23.244214369654653,-12.65150985379815,-14.403115036439894
1761469482376822000,5.519822021484375,-23.314487929320332,-12.528478517413138,-14.567183316612242
1761469482386776000,5.529776123046875,-23.34611056355238,-12.464211504685878,-14.680427418476341
1761469482396731000,5.53973095703125,-23.351361908209324,-12.444683797395228,-14.732473247534037
1761469482406686000,5.54968603515625,-23.34657116680145,-12.45078152974844,-14.727424147450924
1761469482416641000,5.55964111328125,-23.34080544288158,-12.465427310216427,-14.694893166202306
1761469482426595800,5.569595947265625,-11.513467946410179,-10.75821188892126,-2.9822333115294573
1761469482436550000,5.5795498046875,-9.635476271736621,-9.112328595945238,-3.7684962094396353
1761469482446505000,5.5895048828125,-7.468336815804243,-7.100643905618786,-3.179309542812407
1761469482456460000,5.5994599609375,-5.699247414398193,-4.4741491548478605,-2.223599155909568
1761469482466414800,5.609414794921875,-5.017819978708029,-1.8557640607744454,-1.4863522178418933
1761469482476370200,5.6193701171875,-4.320233435377478,0.2715045725405216,-0.8866279367178678
1761469482486325000,5.629324951171875,-3.188206842756271,1.4508406133472918,-0.7240696227170527
1761469482496279000,5.639279052734375,-1.7756962523251771,2.273360527291894,-1.211014643009752
1761469482506233900,5.64923388671875,-0.43991058965623375,3.1844436908304687,-2.06586753141284
1761469482516189200,5.659189208984375,0.8449158701479434,4.558563468068838,-2.4325059641093016
1761469482526144000,5.66914404296875,1.5227520033478736,5.996816987043619,-1.9728803278967737
1761469482536099000,5.67909912109375,1.5666969435364007,6.895801131987572,-1.4576513162754474
1761469482546052900,5.689052978515625,1.48351889411211,7.632012881788611,-1.471738878338784
1761469482556008200,5.69900830078125,1.925752958279848,8.573290108060837,-1.514791399732232
1761469482565963000,5.708962890625,3.1739410015165803,9.003366701444984,-0.9926895797319709
1761469482575918000,5.71891796875,5.170729736006259,9.088444447010755,-0.03115158265419304
1761469482585873000,5.728872802734375,7.157435467898845,9.345877824100851,0.9112689684342592
1761469482595828000,5.738827880859375,8.553916714549064,9.576071312087773,1.5254524944782257
1761469482605782000,5.748781982421875,9.507010635343194,9.000074089640378,2.2158701690927147
1761469482615737000,5.758737060546875,9.487591064602135,7.701945080670714,2.931676259724796
1761469482625692000,5.76869189453125,10.167800356674194,8.844965360993147,3.019627514900267
1761469482635647000,5.77864697265625,10.067612135738134,9.188521608787774,2.527537825195491
1761469482645602000,5.78860205078125,9.562914893394709,7.9724530433893195,1.9087503855526446
1761469482655555800,5.798555908203125,8.68320828037262,7.930700644809007,1.3599321158014237
1761469482665511000,5.808510986328125,7.500895854103565,8.007904880520702,0.6307641470320522
1761469482675466000,5.818466064453125,6.164015381935238,7.874569592264294,-0.2279342378180474
1761469482685421000,5.828421142578125,4.885574239253997,7.526789589294791,-0.8806000547304749
1761469482695376000,5.8383759765625,3.990281350043416,7.278619130590558,-1.178304944193363
1761469482705331200,5.848331298828125,3.3820065365865823,7.472409179809689,-1.3627337292186914
1761469482715285000,5.858284912109375,3.021279958282411,7.713782233458757,-1.2851092222683131
1761469482725240000,5.868239990234375,3.1286727037698028,7.83828422691822,-0.7223769934549927
1761469482735195000,5.87819482421875,2.89010652423501,7.897826549211144,-0.3354331470936537
1761469482745150200,5.888150146484375,2.3491826609954236,7.994200764816999,0.43029472964685406
1761469482755105000,5.89810498046875,2.36787742459327,8.150818144461512,1.2596487639278173
1761469482765059000,5.90805908203125,2.5728976006180044,8.036805396312475,1.8961618298754095
1761469482775014000,5.918013916015625,2.8627704812809824,7.766434796237945,2.1008783467784524
1761469482784969200,5.92796923828125,2.5860259622603654,7.144941897028684,2.1767396434485913
1761469482794924000,5.937924072265625,1.5649074297711252,5.526324212118983,1.8832292830660937
1761469482804878800,5.94787890625,-0.06739098996669053,3.5169571510851383,0.9995669181555509
1761469482814833000,5.9578330078125,-2.0290370994046327,1.3177028934895991,0.17181662927679717
1761469482824788000,5.9677880859375,-3.7905472977280614,-1.104702532365918,-0.02803454661220312
1761469482834743000,5.977742919921875,-4.2619367292314765,-2.9615964739531275,0.2635559516236186
1761469482844697900,5.98769775390625,-3.08929843249768,-4.704835979309678,0.3701341293251142
1761469482854653000,5.99765283203125,-1.2375751715466379,-6.458085422027111,-0.15844510652832686
1761469482864608000,6.00760791015625,-1.9828820819512007,-8.840751542690397,0.5135506666129455
1761469482874562000,6.01756201171875,-4.2271173447847366,-9.722066175431012,1.115683652846515
1761469482884516900,6.027516845703125,-5.590529265525936,-9.671054950118064,-0.0400172453507781
1761469482894472000,6.037471923828125,-5.7322027585387225,-9.63898281855285,-0.0339994828986004
1761469482904427000,6.047427001953125,-5.8894262873828405,-9.604603579089044,-0.050345637543685734
1761469482914382000,6.057382080078125,-6.04927782664299,-9.571252513629197,-0.08844294768255204
1761469482924335900,6.0673359375,-6.198042154699563,-9.542002453747392,-0.14072729820385574
1761469482934291000,6.077291015625,-6.321499607542157,-9.519526418045162,-0.1891516488287598
1761469482944246000,6.08724609375,-6.405033046275377,-9.505568619841336,-0.21713899529837072
1761469482954201000,6.097201171875,-6.438351963031292,-9.500458144959806,-0.2225316481221467
1761469482964156000,6.107156005859375,-6.419749553892016,-9.503727960410714,-0.20892343054097146
1761469482974110000,6.11710986328125,-6.3592486157000065,-9.514286179304122,-0.1748244327906519
1761469482984065000,6.12706494140625,-6.276744520014524,-9.530185759225487,-0.11485274263713509
1761469482994020000,6.13702001953125,-6.198325647816062,-9.547997310248016,-0.02920143496710807
1761469483003975000,6.146974853515625,-0.5882357956431806,-8.158870518013835,-0.4856183747988194
1761469483013930000,6.156929931640625,-0.47750002333819863,-6.500134757727384,-3.459285298839211
1761469483023885000,6.166885009765625,-0.7135112576931715,-4.3346161809951065,-4.998786776936054
1761469483033839000,6.176839111328125,-0.7174174713514745,-2.1050743371635674,-5.096064078861475
1761469483043794000,6.1867939453125,-0.45644525261074304,-0.22965397428274154,-4.282587303072214
1761469483053749000,6.1967490234375,-0.5305310640409588,1.5353309144139289,-2.894516741892695
1761469483063704000,6.2067041015625,-1.057648520246148,3.4666643031746145,-1.4365958148956297
1761469483073659000,6.216658935546875,-1.5892606575220822,5.1321051140576595,-0.47585901466552166
1761469483083613000,6.226613037109375,-2.362220129483938,6.390894046285748,0.39584490916486825
1761469483093568000,6.236568115234375,-3.05086085755378,7.032067797520757,1.5064996644660829
1761469483103523000,6.246523193359375,-2.9202941572278736,7.223155017521977,2.4008621409587563
1761469483113478000,6.256477783203125,-1.076515133279562,7.534744347691536,1.5644905195333063
1761469483123433200,6.26643310546875,0.9021680356770754,7.102568151679635,1.6363735602222382
1761469483133388000,6.276387939453125,3.350151262642443,6.920390798842907,1.8162844294317066
1761469483143342000,6.286342041015625,4.140460805594921,6.495324727097153,1.5164290839366614
1761469483153297000,6.296296875,3.2436744629561898,6.772701406541466,-1.2522792580731212
1761469483163252000,6.306251953125,2.625534381306171,8.879943150871991,-2.9376196782991286
1761469483173207000,6.31620703125,3.2865538197398183,9.241647634297609,-2.683275207135081
1761469483183161900,6.326161865234375,4.128982549247145,8.452790335980056,-1.4512059395283459
1761469483193116000,6.336115966796875,4.92876397716105,8.870898259150982,-0.2729999621974304
1761469483203071200,6.3460712890625,4.9540240906238555,9.32292423401475,-0.3069001494400203
1761469483213026300,6.3560263671875,4.455103678116202,9.567769347688555,0.3511589048180729
1761469483222981000,6.365981201171875,4.165553161275387,9.14515008457303,2.0314276478029787
1761469483232936200,6.375936279296875,3.237085147693753,8.390018530246614,2.8311434631347656
1761469483242890200,6.38589013671875,1.1226498385973274,8.510711194550991,1.5858252762459217
1761469483252845300,6.39584521484375,-1.1590282890543342,9.327014133676887,-0.39207766558583823
1761469483262800100,6.405800048828125,-2.4443540766827763,10.507543183660507,-0.9521610238581896
1761469483272755200,6.415755126953125,-1.5400754785925148,10.585843397915363,-0.31614768759366124
1761469483282710300,6.425710205078125,0.0017864450253546238,9.59687386161983,0.683440456013009
1761469483292665300,6.435665283203125,1.6835908000797033,8.886112194895745,1.151406123612821
1761469483302619100,6.445619140625,3.046485418948531,8.287332647275925,1.3927449827313423
1761469483312574200,6.45557421875,3.90881010453701,7.441159470543265,1.3607723660178481
1761469483322529300,6.465529296875,3.8783606057375666,6.273811973693967,0.912759864579141
1761469483332484400,6.475484375,3.2081255951911207,5.191104415515065,0.416467206759192
1761469483342439200,6.485439208984375,2.0768185490161177,4.1606905236750835,0.06432926430851221
1761469483352393200,6.495393310546875,0.20857026972174644,2.8548312127143145,0.2328185757935047
1761469483362348300,6.505348388671875,-1.8833720525376498,1.5534955166578293,0.3545727683821693
1761469483372303400,6.515303466796875,-3.0270851374298333,0.05736790086328983,0.12898640886452048
1761469483382258200,6.525258056640625,-2.056834914651513,-1.8866671485602855,-0.23245416292790322
1761469483392213000,6.535212890625,0.05652691999450326,-3.8801305380195377,-0.83257602853477
1761469483402168300,6.545168212890625,2.413598580674082,-5.5676253598004575,-1.456700153030455
1761469483412122400,6.555122314453125,3.446892850255966,-7.115330018097162,-1.7162958227209746
1761469483422077200,6.5650771484375,2.930927194923162,-8.143111223345995,-1.1550228528052568
1761469483432032000,6.575031982421875,1.721931198259443,-8.990993542084098,-0.22713621930815278
1761469483441987300,6.5849873046875,0.8871243419326841,-10.285838707077502,0.7758701717767864
1761469483451942100,6.594942138671875,-0.22071298132762313,-11.408697073858976,2.1170802706472576
1761469483461896200,6.604896240234375,-0.08712591026723385,-11.43709197821617,2.1267571766614912
1761469483471851000,6.61485107421875,0.03242635183036327,-11.463231797122955,2.15014623555541
1761469483481806300,6.624806396484375,0.12706862907707692,-11.483995183688402,2.186637060345709
1761469483491761200,6.63476123046875,0.19394275556281207,-11.497922002232075,2.2380839005969464
1761469483501716200,6.64471630859375,0.23851298804283141,-11.506106477731466,2.3035415844134985
1761469483511670000,6.654669921875,0.2709516148328781,-11.51109478753805,2.3854604275569318
1761469483521625300,6.664625244140625,0.3075914927050471,-11.517518683105706,2.484931732395291
1761469483531580200,6.674580078125,0.37009354158639907,-11.532120039910078,2.5899343678757547
1761469483541535200,6.68453515625,0.4798071312367916,-11.561883894532919,2.680411049875617
1761469483551490300,6.694490234375,2.3993553896576163,-9.044220689880847,-4.068867687763274
1761469483561445000,6.704445068359375,1.1105585649177432,-6.1819140267193315,-3.6640307495757933
1761469483571399200,6.714399169921875,-0.3540145134449005,-3.4419349355876445,-2.1921780355989933
1761469483581354200,6.724354248046875,-2.223367246849835,-0.6545324145019054,-0.6689445323444903
1761469483591309300,6.734309326171875,-4.702147763139009,1.3252274437755345,0.6766805334240198
1761469483601264000,6.74426416015625,-7.560651526886224,2.819868620404601,0.9757445824109017
1761469483611219200,6.75421923828125,-9.014839697095752,4.4162031618356705,0.28286453627087177
1761469483621173200,6.76417333984375,-7.709682396924495,5.085532747974992,0.07698224525777622
1761469483631128300,6.77412841796875,-4.792846271196008,4.938731244423985,-0.2634295487649739
1761469483641083100,6.784083251953125,-2.0049936682552096,4.930018945658206,-1.1912478662662207
1761469483651038200,6.7940380859375,0.392591204598546,5.440156333228946,-1.814601590911299
1761469483660993000,6.803992919921875,2.277310726222396,5.425169191977381,-1.7995549745574593
1761469483670947300,6.813947265625,3.955018898004293,6.010950141814351,-2.3267234302975237
1761469483680902100,6.823902099609375,5.706950243860483,7.231977206403017,-2.461194006194174
1761469483690857200,6.833857177734375,7.0316948725551365,7.808384178695082,-2.023798321968317
1761469483700812000,6.84381201171875,7.17100280548036,7.8979715106397865,-1.0691465042077004
1761469483710767400,6.853767333984375,5.79295094949007,7.729421701139211,0.14605229261890054
1761469483720721200,6.86372119140625,4.644440839579701,8.102711992940305,0.6581180179037154
1761469483730676200,6.87367626953125,3.8190658284649253,8.173714451402425,0.7748449203822761
1761469483740631000,6.883631103515625,3.256960353247821,8.301584459990263,0.7210423838503658
1761469483750586400,6.89358642578125,3.3661148477107283,8.81002498051524,1.0371991680659354
1761469483760541200,6.903541259765625,3.7347058757796883,8.842439641907811,1.7346689531490205
1761469483770496300,6.913496337890625,3.8865632014155387,8.799784157007933,2.172821885482967
1761469483780450000,6.923449951171875,4.050651647593081,9.01808905428052,2.4536796850413083
1761469483790405400,6.9334052734375,4.184335603156685,8.948758912944793,2.757405734489858
1761469483800360200,6.943360107421875,4.346107296824455,8.733036433380843,2.781380776578188
1761469483810315000,6.95331494140625,4.574388813710212,8.674372062966228,2.5389696120530365
1761469483820270300,6.963270263671875,5.1600452603846785,8.619227683371305,2.345841095482558
1761469483830224400,6.973224365234375,5.932701950007677,8.41947667992115,2.0117475264295934
1761469483840179200,6.98317919921875,6.123320383453369,8.103028803804516,1.208024813544005
1761469483850134000,6.993134033203125,5.4453077246427535,7.733084899821877,0.7655976379569619
1761469483860089300,7.00308935546875,4.172425969654322,7.0092749509543175,0.31559611812550575
1761469483870044200,7.013044189453125,2.9049335064888,6.576670884919166,-0.20097294646054506
1761469483879999200,7.022999267578125,1.3426263223439454,6.494225825944542,0.032298291304172014
1761469483889953000,7.032953125,-0.7807938188493251,5.72829113805294,0.7957546566158533
1761469483899908400,7.042908447265625,-2.4372411759376527,4.064285328409076,1.6552312592968343
1761469483909863200,7.05286328125,-2.4164403799712657,1.6669219893515108,1.9636603718698025
1761469483919818200,7.062818359375,-1.7492518975138662,-1.0401292301684617,1.4631972599647938
1761469483929773000,7.07277294921875,-1.470771640741825,-3.290909092339873,-0.6711938456412404
1761469483939727400,7.082727294921875,-2.6445927175194024,-5.02801813211739,-3.456236724923551
1761469483949682200,7.09268212890625,-6.250329975819588,-6.641119683954119,-5.525010791432857
1761469483959637200,7.10263720703125,-10.852309391766786,-8.804041229930519,-6.495473195657134
1761469483969592000,7.112592041015625,-14.219381101810932,-10.545506711351871,-6.057248367130756
1761469483979547100,7.122547119140625,-12.864286343038081,-11.78465570808649,-4.538199309954047
1761469483989501200,7.132501220703125,-12.91300507349968,-11.744002210658788,-4.6374990576177835
1761469483999456300,7.142456298828125,-12.96459146835208,-11.705859819269179,-4.696879759608209
1761469484009411000,7.1524111328125,-12.993331240624189,-11.687821473753452,-4.688646476531028
1761469484019366100,7.1623662109375,-12.979911787080765,-11.701565921467543,-4.62079517557621
1761469484029321200,7.1723212890625,-12.918996422868966,-11.750382851606608,-4.515595263957977
1761469484039275300,7.182275146484375,-12.818324217808247,-11.830260105919837,-4.390570707929134
1761469484049230000,7.19222998046875,-12.690421475994587,-11.934388004392385,-4.256377633799612
1761469484059185200,7.20218505859375,-12.541999677765368,-12.058500706273316,-4.1274291823253035
1761469484069140200,7.21214013671875,-12.37388416802883,-12.20269874932766,-4.010766504189371
1761469484079095000,7.222094970703125,-2.77785201793015,-8.333521566998957,-0.6619242783188819
1761469484089050400,7.23205029296875,-2.551867672070861,-4.306712275025248,-0.222167856311053
1761469484099004200,7.242004150390625,-4.564418623837828,-0.4935130005061626,-1.4027522897437215
1761469484108959200,7.251959228515625,-6.5642714220732445,1.6304986768394707,-1.6413538328528403
1761469484118914000,7.2619140625,-6.4530059268057345,2.857632826131582,-0.9863434255756437
1761469484128869400,7.271869384765625,-5.54134291755259,1.8993337379097937,-0.7937802878029644
1761469484138824200,7.28182421875,-3.0313761126220227,2.1531372340649364,-0.7761286035172641
1761469484148778200,7.2917783203125,-0.07409867091178894,3.0370757855683563,-1.2927591524995863
1761469484158733000,7.301733154296875,1.4898001663386822,2.9126866048336026,-1.0906661159679294
1761469484168688400,7.3116884765625,2.272401911392808,3.3739801742583513,-1.1181444900020956
1761469484178643200,7.321643310546875,2.760173153376579,4.50719802249074,-1.5373627125024794
1761469484188598300,7.331598388671875,2.7445880462318657,4.871791213095188,-1.0423348504539578
1761469484198552600,7.341552490234375,3.0475398964375255,4.715353866192698,-0.17990202831588684
1761469484208507600,7.351507568359375,3.62773515509665,4.9414948639184235,0.607300853858143
1761469484218462500,7.36146240234375,4.231973552644252,5.334322799882292,1.1612502028875051
1761469484228417500,7.37141748046875,5.048807822167873,5.888451304870843,1.8938728421553968
1761469484238372600,7.38137255859375,5.843354272037744,6.122399761477112,2.6249615498542784
1761469484248327400,7.391327392578125,6.360796429663896,5.468372958409786,2.891898668348789
1761469484258281500,7.401281494140625,7.164763618829846,4.772153027257323,2.53453338317126
1761469484268236500,7.411236572265625,8.346648759597539,5.175957699787617,1.9571718866333365
1761469484278191600,7.421191650390625,8.698094883859158,5.653278274905682,1.3652256921648978
1761469484288146400,7.431146484375,8.279113684985042,5.279666496065259,0.6461603805411607
1761469484298101800,7.441101806640625,7.970649208837747,5.28352492505908,0.530497819358483
1761469484308055600,7.4510556640625,7.072526064637303,5.346834490931034,0.29954883682914074
1761469484318010600,7.4610107421875,5.774613913288712,5.396552753823995,0.0020936843436211348
1761469484327965400,7.47096533203125,5.069169057673215,5.578303990203142,-0.20357421500012277
1761469484337920800,7.480920654296875,4.32418538787365,5.7388703997343775,-0.3186309192441404
1761469484347875600,7.49087548828125,4.164382948452234,5.948932953840494,-0.5004460877049715
1761469484357830400,7.500830322265625,4.20156029420197,5.774168507608771,-0.45714814018309113
1761469484367784400,7.510784423828125,4.437833394363523,5.6765159426301715,-0.2492071082755923
1761469484377739800,7.52073974609375,4.801654431551695,5.751987070938944,-0.3463463899698108
1761469484387694600,7.530694580078125,5.1999008854329585,5.691835676836967,-0.7322267718181014
1761469484397649400,7.5406494140625,5.646982389631867,5.717826442661881,-1.044787285107374
1761469484407604700,7.550604736328125,5.723045054093003,5.833186513766646,-1.1918993889775127
1761469484417558800,7.560558837890625,5.216486694052815,5.652464035913348,-1.126669960958883
1761469484427513600,7.570513671875,3.9274914241313934,5.1949382945895195,-0.6473690256785601
1761469484437468400,7.580468505859375,2.1684242350459098,4.221578415358066,0.005561693814327009
1761469484447423700,7.590423828125,0.41740708142518995,2.1508038226813078,0.09686112233996391
1761469484457378600,7.600378662109375,-0.38133155943751335,-0.6966682594418525,0.046684420755552125
1761469484467332600,7.61033251953125,-0.6330056423485279,-3.3892987394213674,0.5231336107334121
1761469484477287400,7.620287353515625,-1.2452192565590143,-5.219658894348144,0.8790194344755261
1761469484487242500,7.630242431640625,-3.023593788182735,-6.147779117405414,1.3828949121072887
1761469484497197600,7.640197509765625,-5.305347465288639,-7.20822866654694,1.7175313558652996
1761469484507152600,7.650152587890625,-7.588473599791526,-8.595506616044045,1.2378468280948698
1761469484517106400,7.6601064453125,-8.490925128585099,-10.286369452953338,0.597482457013987
1761469484527061500,7.6700615234375,-7.354314130783081,-11.63698443596363,-0.08781513464041053
1761469484537016600,7.6800166015625,-6.961147756645083,-12.797772428166866,0.05741276291832328
1761469484546971600,7.6899716796875,-7.106598430109024,-13.905481156611442,0.5330968228757381
1761469484556926500,7.699926513671875,-7.017613155710697,-14.002944336497784,0.5449027768079191
1761469484566881500,7.709881591796875,-5.872379875513911,-12.334407897686958,-1.007911041196063
1761469484576835600,7.719835693359375,-7.645252302590012,-10.773432838928699,-1.2858382671952246
1761469484586790700,7.729790771484375,-10.861598613637685,-10.446097073572874,-0.09317563876025378
1761469484596745500,7.739745361328125,-13.979731803214548,-8.73926802124679,-0.08069266234934329
1761469484606700500,7.749700439453125,-15.976915674501656,-6.442087057906389,-0.5291556109692901
1761469484616655600,7.759655517578125,-15.875086116099357,-6.604793402075767,-0.4675017033498734
1761469484626609700,7.769609619140625,-15.822928058838844,-6.695093266203999,-0.4166298134423792
1761469484636564500,7.779564453125,-9.768707515096663,-1.498142462748289,-0.2529651456348598
1761469484646519600,7.78951953125,-5.7057537275522945,-0.6581032587260007,-0.33736491887383163
1761469484656474600,7.799474609375,-2.0118074399232864,-0.24329671518802642,-0.628645109051466
1761469484666429400,7.809429443359375,0.7314332833528518,0.17394786915183066,-0.7568490257687867
1761469484676383500,7.819383544921875,2.291260341119766,0.8203747186094522,-0.5133909825392067
1761469484686338600,7.829338623046875,3.2875995294004676,1.5509814880102872,-0.3939886503063142
1761469484696293600,7.839293701171875,3.9507495501220222,2.1587451370745896,-0.5803839130990207
1761469484706248400,7.84924853515625,4.212745705083012,2.452806993860006,-0.6250738264359533
1761469484716203800,7.859203857421875,4.22864002430737,2.3813152905762194,-0.4657626776628196
1761469484726157600,7.869157470703125,4.168177080038189,2.245332410420477,-0.37163258772194385
1761469484736112600,7.879112548828125,4.134340276888013,2.3315739390686154,-0.39724765210226176
1761469484746067500,7.8890673828125,4.157226062434911,2.7073542941197752,-0.6570081569656729
1761469484756022800,7.899022705078125,4.585665994527936,3.119854606541991,-1.2906700712658463
1761469484765977600,7.9089775390625,5.562745771065354,3.2642034562438726,-1.9758836013659833
1761469484775932700,7.9189326171875,6.347034446293115,2.7819924787357446,-1.7707120341718197
1761469484785886500,7.928886474609375,6.365566712805628,1.9432623114854097,-0.405192181365937
1761469484795841800,7.938841796875,6.292956819146871,2.55589795050025,0.1953422470971942
1761469484805796600,7.948796630859375,6.235742063018679,3.566667815193534,0.5849195107020437
1761469484815751700,7.958751708984375,6.164881643375754,4.15290118497312,1.067736856605485
1761469484825706500,7.96870654296875,6.045388417989015,4.194387626093626,1.5516095567807555
1761469484835660800,7.978660888671875,6.172474582722783,4.009670817907154,1.4549457105785608
1761469484845615600,7.98861572265625,6.542077710443735,4.018628323605657,0.8923658958479762
1761469484855570400,7.9985703125,6.7812178904742,3.905320216594636,0.3870749253951013
1761469484866147600,8.009147705078124,6.789826728865504,3.4680352992668744,-0.01113835686892271
1761469484876101400,8.019101318359375,6.644891603708267,3.1726410248339176,-0.6347109849616884
1761469484886056700,8.029056640625,6.000716917091608,3.2415731067627664,-1.2762323805905877
1761469484896011500,8.039011474609374,5.349998507919907,3.1179946578890085,-1.8979080890208482
1761469484905966600,8.048966552734376,5.255541524112224,2.9282658667594195,-2.3526108818784355
1761469484915921700,8.058921630859375,5.102138430339098,3.0167192262381315,-2.010946731440723
1761469484925875700,8.068875732421875,4.821754970294237,3.302033712944388,-1.294266634453088
1761469484935830500,8.07883056640625,4.71924853554368,3.7298248257398603,-0.47464386672209946
1761469484945785600,8.08878564453125,4.382118521404266,3.8130496369153257,0.999220735066384
1761469484955740700,8.09874072265625,3.4336148510098456,3.52737859185636,2.400951865068823
1761469484965695700,8.10869580078125,2.81500306019485,2.2851310445845128,3.1955767870023846
1761469484975649500,8.1186494140625,2.867853191372752,0.43753333913087844,3.770077341151237
1761469484985604600,8.1286044921875,3.3030162942409516,-1.85418877428174,3.0365538075208662
1761469484995559700,8.1385595703125,2.350424477750063,-3.7616362605422733,1.337472300581634
1761469485005514500,8.148514404296876,-0.7023217551589012,-4.674449608874321,-0.3522864110106602
