time,seconds_elapsed,z,y,x
1761469476916604200,0.059604248046875,0.04387027770280838,-0.22147326171398163,-0.2146025449037552
1761469476926559000,0.06955908203125,0.05519883334636688,-0.19756951928138733,-0.2755092978477478
1761469476936513800,0.079513671875,0.05870353803038597,-0.1563180387020111,-0.3176059126853943
1761469476946469000,0.08946923828125,0.05268719047307968,-0.08837386965751648,-0.3421594798564911
1761469476956423200,0.099423095703125,0.03920164331793785,-0.024511437863111496,-0.35804569721221924
1761469476966378000,0.1093779296875,0.02565361186861992,-0.010800952091813087,-0.36238932609558105
1761469476976332800,0.119332763671875,0.0044912127777934074,-0.023276312276721,-0.3480164706707001
1761469476986288000,0.1292880859375,-0.022988347336649895,-0.01822775788605213,-0.3100981116294861
1761469476996243000,0.139242919921875,-0.048523448407649994,0.017869332805275917,-0.24915306270122528
1761469477006197000,0.149197021484375,-0.06635970622301102,0.04466073215007782,-0.17488576471805573
1761469477016151800,0.15915185546875,-0.07255727052688599,0.055287495255470276,-0.09990445524454117
1761469477026107000,0.16910693359375,-0.07214608043432236,0.05432689189910889,-0.03453424200415611
1761469477036062000,0.17906201171875,-0.0696006789803505,0.03586520999670029,0.009957746602594852
1761469477046017000,0.18901708984375,-0.060098789632320404,0.014056847430765629,0.0342676155269146
1761469477055970800,0.198970703125,-0.045095160603523254,-0.009530600160360336,0.03550635650753975
1761469477065926000,0.20892578125,-0.03206697851419449,-0.025411294773221016,0.017349988222122192
1761469477075881000,0.218880859375,-0.017998186871409416,-0.03090648539364338,-0.0023478565271943808
1761469477085836000,0.2288359375,-0.00968086812645197,-0.013864918611943722,-0.017103100195527077
1761469477095790800,0.238790771484375,-0.006437224335968494,0.009304244071245193,-0.022780105471611023
1761469477105746000,0.248745849609375,-0.0006267396965995431,0.01699145883321762,-0.03359546884894371
1761469477115700000,0.258699951171875,0.005613490007817745,0.006096368655562401,-0.04747575893998146
1761469477125655000,0.268655029296875,0.008423923514783382,-0.0162331722676754,-0.06323128193616867
1761469477135609900,0.27860986328125,0.009173713624477386,-0.029326362535357475,-0.07830508798360825
1761469477145565000,0.28856494140625,0.00823734700679779,-0.018206864595413208,-0.07934744656085968
1761469477155520000,0.29852001953125,0.006143716163933277,0.00952115561813116,-0.06887993216514587
1761469477165474000,0.30847412109375,0.008123243227601051,0.04534892737865448,-0.05452016741037369
1761469477175428900,0.318428955078125,0.020690377801656723,0.062496066093444824,-0.03888561204075813
1761469477185384000,0.328384033203125,0.028832459822297096,0.049688126891851425,-0.021612083539366722
1761469477195339500,0.338339599609375,0.03910905495285988,0.016186820343136787,-0.0027273737359791994
1761469477205294300,0.34829443359375,0.047384828329086304,-0.016496025025844574,0.022536437958478928
1761469477215249400,0.35824951171875,0.04791230335831642,-0.04494727775454521,0.04212912172079086
1761469477225203200,0.368203125,0.03708362206816673,-0.04439892992377281,0.05636797845363617
1761469477235158500,0.378158447265625,0.02613113634288311,-0.01604536920785904,0.06218601390719414
1761469477245113300,0.38811328125,0.013961288146674633,0.015549839474260807,0.05830925330519676
1761469477255068400,0.398068359375,-0.0002707752282731235,0.049446165561676025,0.04474255442619324
1761469477265023200,0.408023193359375,-0.009740442968904972,0.05507102981209755,0.0194728821516037
1761469477274977500,0.4179775390625,-0.004183425568044186,0.02385098487138748,-0.012875057756900787
1761469477284932400,0.427932373046875,0.013015801087021828,-0.024915222078561783,-0.03726401925086975
1761469477294887400,0.437887451171875,0.026024743914604187,-0.0582914836704731,-0.05313527584075928
1761469477304842200,0.44784228515625,0.03434579074382782,-0.07831206172704697,-0.06103314459323883
1761469477314797300,0.45779736328125,0.03317800536751747,-0.08711666613817215,-0.06176681071519852
1761469477324752400,0.46775244140625,0.0271624568849802,-0.06259055435657501,-0.0483894869685173
1761469477334706400,0.47770654296875,0.01966395042836666,-0.013814197853207588,-0.023108327761292458
1761469477344661200,0.4876611328125,0.021006448194384575,0.04465204104781151,0.00952178705483675
1761469477354616300,0.4976162109375,0.024146728217601776,0.07371320575475693,0.040901023894548416
1761469477364571400,0.5075712890625,0.028423763811588287,0.07933327555656433,0.06552167981863022
1761469477374526200,0.517526123046875,0.0253607165068388,0.06755948811769485,0.08167480677366257
1761469477384481500,0.5274814453125,0.02111031301319599,0.04460863396525383,0.07608217000961304
1761469477394435300,0.537435302734375,0.02105219103395939,0.015492098405957222,0.06153877079486847
1761469477404390400,0.547390380859375,0.023924674838781357,-0.01000127661973238,0.03727684170007706
1761469477414345200,0.55734521484375,0.031960051506757736,-0.028712041676044464,0.015530742704868317
1761469477424300500,0.567300537109375,0.035808585584163666,-0.028888076543807983,-0.004626457579433918
1761469477434255400,0.57725537109375,0.03373865410685539,-0.010945877060294151,-0.015863923355937004
1761469477444209400,0.58720947265625,0.027100196108222008,0.012703792192041874,-0.020205941051244736
1761469477454164200,0.597164306640625,0.020005853846669197,0.034170057624578476,-0.021990947425365448
1761469477464119600,0.60711962890625,0.012232886627316475,0.045115385204553604,-0.023723598569631577
1761469477474074400,0.617074462890625,0.012343985959887505,0.040658365935087204,-0.030840814113616943
1761469477484029200,0.627029296875,0.019033845514059067,0.026523105800151825,-0.043318524956703186
1761469477493983200,0.636983154296875,0.026519836857914925,0.015992674976587296,-0.051108043640851974
1761469477503938600,0.6469384765625,0.033562831580638885,0.011375552974641323,-0.06017664074897766
1761469477513893400,0.656893310546875,0.03995836153626442,0.004387595225125551,-0.06767333298921585
1761469477523848200,0.66684814453125,0.04585380107164383,-0.006703138817101717,-0.06726373732089996
1761469477533803300,0.67680322265625,0.05593307316303253,-0.022715885192155838,-0.059968460351228714
1761469477543758300,0.68675830078125,0.054390572011470795,-0.044123440980911255,-0.04803670197725296
1761469477553712400,0.69671240234375,0.05233679711818695,-0.04820168390870094,-0.029424820095300674
1761469477563667200,0.706667236328125,0.04366661235690117,-0.0310895424336195,-0.0015891948714852333
1761469477573622300,0.716622314453125,0.02824132889509201,-0.00023139642144087702,0.02098400890827179
1761469477583577300,0.726577392578125,0.012694058939814568,0.015317736193537712,0.027089837938547134
1761469477593532400,0.736532470703125,-0.0020186426118016243,0.018331682309508324,0.015178220346570015
1761469477603487200,0.7464873046875,-0.013890748843550682,0.006849462632089853,-0.0127764493227005
1761469477613441300,0.756441162109375,-0.02508905529975891,-0.008218289352953434,-0.05197625234723091
1761469477623396400,0.766396240234375,-0.027649950236082077,-0.01743815466761589,-0.09249810874462128
1761469477633351400,0.776351318359375,-0.017990801483392715,-0.024858659133315086,-0.12769335508346558
1761469477643306200,0.78630615234375,-0.002874965313822031,-0.017793292179703712,-0.14046160876750946
1761469477653261300,0.79626123046875,0.005776876118034124,-0.005401948466897011,-0.12496045976877213
1761469477663215400,0.80621533203125,0.010565239004790783,0.0072994655929505825,-0.08038073778152466
1761469477673170400,0.81617041015625,0.009876254945993423,0.008927018381655216,-0.021892409771680832
1761469477683125200,0.826125244140625,0.00792788714170456,-0.005408511031419039,0.03546275943517685
1761469477693080300,0.836080322265625,0.0031854305416345596,-0.025332247838377953,0.08451198786497116
1761469477703035400,0.846035400390625,0.0005768639966845512,-0.04348382353782654,0.11850244551897049
1761469477712990200,0.855990234375,-0.0021929768845438957,-0.05697192624211311,0.13308103382587433
1761469477722944300,0.8659443359375,0.0010297142434865236,-0.05658949911594391,0.12971772253513336
1761469477732899300,0.8758994140625,0.007123290561139584,-0.03627413883805275,0.11738361418247223
1761469477742854400,0.8858544921875,0.012867196463048458,-0.0044930377043783665,0.09631241858005524
1761469477752809200,0.895809326171875,0.01814180798828602,0.012539959512650967,0.06744872778654099
1761469477762764300,0.905764404296875,0.018721312284469604,0.01502282451838255,0.03379223123192787
1761469477772718300,0.91571826171875,0.01627168245613575,0.0016443140339106321,-0.0006976816803216934
1761469477782673400,0.92567333984375,0.0119040971621871,-0.023710843175649643,-0.03643197566270828
1761469477792628200,0.935628173828125,0.004315931349992752,-0.059163521975278854,-0.06556222587823868
1761469477802583300,0.945583251953125,-0.006016068160533905,-0.09219364076852798,-0.07622046768665314
1761469477812538400,0.955538330078125,-0.021340297535061836,-0.11971542984247208,-0.07400096207857132
1761469477822492400,0.965492431640625,-0.04123890399932861,-0.12405744194984436,-0.06515287607908249
1761469477832447200,0.975447265625,-0.05711577087640762,-0.12837906181812286,-0.06074674800038338
1761469477842402300,0.98540234375,-0.0717218816280365,-0.14627230167388916,-0.058449771255254745
1761469477852357400,0.995357421875,-0.08423839509487152,-0.14202053844928741,-0.04527978226542473
1761469477862312200,1.005312255859375,-0.08989255130290985,-0.1047794297337532,-0.026202492415905
1761469477872267300,1.015267333984375,-0.0878085270524025,-0.05989992991089821,-0.005186229944229126
1761469477882221300,1.02522119140625,-0.07914073765277863,-0.016369765624403954,0.007767385803163052
1761469477892176400,1.03517626953125,-0.06840743869543076,0.029667451977729797,0.012808403000235558
1761469477902131200,1.045131103515625,-0.06235833466053009,0.05406147614121437,0.012901879847049713
1761469477912086300,1.055086181640625,-0.060372184962034225,0.04279712587594986,0.009529469534754753
1761469477922041300,1.065041259765625,-0.06482738256454468,0.00910068117082119,0.0041592055931687355
1761469477931996400,1.074996337890625,-0.0765061229467392,-0.030712872743606567,-0.0017207709606736898
1761469477941950200,1.0849501953125,-0.09301399439573288,-0.05120962858200073,-0.0014989299234002829
1761469477951905300,1.0949052734375,-0.10801690816879272,-0.043347977101802826,0.0013522504596039653
1761469477961860400,1.1048603515625,-0.11620905995368958,-0.018382171168923378,0.006564056500792503
1761469477971815400,1.1148154296875,-0.11412627249956131,0.002087197732180357,0.008155198767781258
1761469477981770200,1.124770263671875,-0.11029878258705139,0.004736776929348707,0.012516391463577747
1761469477991724300,1.134724365234375,-0.10195928812026978,0.0008996225660666823,0.01526598446071148
1761469478001679400,1.144679443359375,-0.0982886552810669,0.004889304284006357,0.02393217571079731
1761469478011634400,1.154634521484375,-0.09606111794710159,0.01759173534810543,0.033173173666000366
1761469478021589200,1.16458935546875,-0.08666495233774185,0.02691785804927349,0.03823770955204964
1761469478031544300,1.17454443359375,-0.07425513118505478,0.02799631655216217,0.03506435081362724
1761469478041498400,1.184498291015625,-0.05929402634501457,0.02812148444354534,0.024967506527900696
1761469478051453400,1.194453369140625,-0.04890984669327736,0.01589050702750683,0.007732530124485493
1761469478061408300,1.204408203125,-0.04136218503117561,0.006300198379904032,-0.01036098599433899
1761469478071363300,1.21436328125,-0.029791193082928658,0.0017111380584537983,-0.024714196100831032
1761469478081318400,1.224318359375,-0.02469736523926258,0.009065457619726658,-0.03697779029607773
1761469478091273200,1.234273193359375,-0.017339495941996574,0.018570348620414734,-0.04979723319411278
1761469478101227300,1.244227294921875,-0.0173080712556839,0.014916225336492062,-0.06331650912761688
1761469478111182300,1.254182373046875,-0.019370269030332565,0.010081280954182148,-0.07137998938560486
1761469478121137400,1.264137451171875,-0.023212943226099014,0.016716280952095985,-0.06857647746801376
1761469478131092200,1.27409228515625,-0.026520710438489914,0.024727553129196167,-0.05807562172412872
1761469478141047300,1.28404736328125,-0.025974763557314873,0.024941138923168182,-0.04429429769515991
1761469478151001000,1.2940009765625,-0.020429041236639023,0.016184084117412567,-0.01896132528781891
1761469478160956400,1.303956298828125,-0.00936280656605959,0.011558173224329948,0.008631685748696327
1761469478170911200,1.3139111328125,0.0043932292610406876,0.006550171412527561,0.035003405064344406
1761469478180866300,1.3238662109375,0.01950853317975998,-0.010506575927138329,0.04381261020898819
1761469478190821000,1.333821044921875,0.03545602038502693,-0.03488470986485481,0.028620978817343712
1761469478200775200,1.343775146484375,0.0502522774040699,-0.04430271312594414,0.0007059909403324127
1761469478210730200,1.353730224609375,0.05727662891149521,-0.035269301384687424,-0.025268036872148514
1761469478220685300,1.363685302734375,0.0574641153216362,-0.005742035806179047,-0.04391256347298622
1761469478230640000,1.37364013671875,0.05554831400513649,0.02348003350198269,-0.048302605748176575
1761469478240595200,1.38359521484375,0.04797321930527687,0.056243304163217545,-0.03545205295085907
1761469478250550300,1.39355029296875,0.04564845561981201,0.08617743104696274,-0.01028166338801384
1761469478260504300,1.40350439453125,0.04382738843560219,0.1037289947271347,0.019658923149108887
1761469478270459100,1.413459228515625,0.03807016462087631,0.10133481025695801,0.05240648612380028
1761469478280414200,1.423414306640625,0.028447633609175682,0.08311665803194046,0.07547584921121597
1761469478290369300,1.433369384765625,0.018935328349471092,0.03828829899430275,0.08371618390083313
1761469478300324000,1.443323974609375,0.01110936515033245,-0.011877934448421001,0.06828929483890533
1761469478310278100,1.453278076171875,0.0008682138286530972,-0.0337531641125679,0.03990670293569565
1761469478320233200,1.463233154296875,-0.0005943941650912166,-0.03746294975280762,0.005743673536926508
1761469478330188300,1.473188232421875,0.00391098577529192,-0.039784714579582214,-0.03755510598421097
1761469478340143000,1.48314306640625,0.013365739956498146,-0.03731010854244232,-0.0742766335606575
1761469478350098200,1.49309814453125,0.020784607157111168,-0.01934957690536976,-0.0974680483341217
1761469478360053200,1.50305322265625,0.023884793743491173,0.002964781830087304,-0.1090429425239563
1761469478370007300,1.51300732421875,0.024122202768921852,0.01615333743393421,-0.1088986024260521
1761469478379962000,1.522962158203125,0.02645912580192089,0.01723644509911537,-0.09693621844053268
1761469478389917200,1.532917236328125,0.031801965087652206,0.013632949441671371,-0.06936269253492355
1761469478399872300,1.542872314453125,0.030659735202789307,0.017510512843728065,-0.02933272160589695
1761469478409827300,1.552827392578125,0.025139860808849335,0.0117526575922966,0.0060294559225440025
1761469478419781000,1.562781005859375,0.017543461173772812,-0.019524570554494858,0.022558365017175674
1761469478429736200,1.572736083984375,0.0043857516720891,-0.06620007753372192,0.023645758628845215
1761469478439691300,1.582691162109375,-0.011520245112478733,-0.10430271923542023,0.0066795567981898785
1761469478449646300,1.592646240234375,-0.01990419626235962,-0.11914330720901489,-0.017659451812505722
1761469478459601200,1.60260107421875,-0.012561595998704433,-0.1220293715596199,-0.04158715531229973
1761469478469555200,1.61255517578125,0.008484065532684326,-0.1100529283285141,-0.06440608948469162
1761469478479510300,1.62251025390625,0.036340463906526566,-0.09547983855009079,-0.0612100251019001
1761469478489465300,1.63246533203125,0.057202279567718506,-0.09943901747465134,-0.04584582895040512
1761469478499420200,1.642420166015625,0.053960416465997696,-0.10382657498121262,-0.02737707644701004
1761469478509375000,1.652375,0.05552695319056511,-0.11656374484300613,-0.0007748808711767197
1761469478519330300,1.662330322265625,0.08038809895515442,-0.10209505259990692,0.05054263770580292
1761469478529284400,1.672284423828125,0.11084634065628052,-0.05210045352578163,0.1376851499080658
1761469478539239200,1.6822392578125,0.12324974685907364,0.01370705384761095,0.22732608020305634
1761469478549194000,1.692194091796875,0.1264444887638092,0.04377121478319168,0.2988907992839813
1761469478559149300,1.7021494140625,0.11711303144693375,0.03732103854417801,0.35664623975753784
1761469478569104100,1.712104248046875,0.0847490206360817,0.028623275458812714,0.402471125125885
1761469478579058200,1.72205810546875,0.05059504508972168,0.03648066148161888,0.44933661818504333
1761469478589013000,1.732012939453125,0.013897668570280075,0.042183004319667816,0.5078848004341125
1761469478598968300,1.74196826171875,-0.03380433842539787,0.014205699786543846,0.5882112979888916
1761469478608923100,1.751923095703125,-0.09151153266429901,-0.03151087462902069,0.7027438282966614
1761469478618878200,1.761878173828125,-0.1511271893978119,-0.06456869840621948,0.83973628282547
1761469478628833300,1.771833251953125,-0.21119599044322968,-0.11496201902627945,0.988806426525116
1761469478638787300,1.781787353515625,-0.26033344864845276,-0.15100736916065216,1.137812614440918
1761469478648742100,1.7917421875,-0.28357023000717163,-0.1373017132282257,1.2765737771987915
1761469478658697200,1.801697265625,-0.27997735142707825,-0.05020570755004883,1.3917754888534546
1761469478668652300,1.81165234375,-0.24526424705982208,0.04946849122643471,1.4846065044403076
1761469478678607000,1.821607177734375,-0.2334773689508438,0.1494094729423523,1.5795176029205322
1761469478688561200,1.83156103515625,-0.219731867313385,0.28847402334213257,1.660956859588623
1761469478698516200,1.84151611328125,-0.19165389239788055,0.47544044256210327,1.7245291471481323
1761469478708471300,1.85147119140625,-0.14940829575061798,0.7410786747932434,1.7553378343582153
1761469478718426000,1.861426025390625,-0.11709775775671005,1.0521467924118042,1.7586820125579834
1761469478728381200,1.871381103515625,-0.10982170701026917,1.406015396118164,1.715897798538208
1761469478738336000,1.8813359375,-0.06920397281646729,1.7396479845046997,1.634832501411438
1761469478748290300,1.891290283203125,-0.016421696171164513,1.9260642528533936,1.5101652145385742
1761469478758245000,1.9012451171875,0.016014007851481438,1.9462382793426514,1.3276681900024414
1761469478768200200,1.9112001953125,0.11220680922269821,1.8592876195907593,1.0439072847366333
1761469478778155000,1.921155029296875,0.10700911283493042,1.4410336017608643,0.6784080266952515
1761469478788110300,1.9311103515625,0.01311276014894247,0.673452615737915,0.3061847388744354
1761469478798064000,1.941064208984375,-0.038635388016700745,-0.1936710774898529,-0.036660484969615936
1761469478808019200,1.951019287109375,0.06452642381191254,-0.8417038321495056,-0.388555109500885
1761469478817974000,1.96097412109375,0.255300909280777,-1.1927012205123901,-0.778125524520874
1761469478827929300,1.970929443359375,0.5056877136230469,-1.301133632659912,-1.1627814769744873
1761469478837884200,1.98088427734375,0.7680516839027405,-1.3129596710205078,-1.503892183303833
1761469478847839200,1.990839111328125,0.9814165234565735,-1.3262102603912354,-1.7660317420959473
1761469478857793000,2.00079296875,0.9705662727355957,-1.2118924856185913,-1.8645460605621338
1761469478867748400,2.010748291015625,0.6115519404411316,-0.42348772287368774,-1.717208743095398
1761469478877703200,2.020703125,-0.09076600521802902,0.6954966187477112,-1.3880316019058228
1761469478887658200,2.030658203125,-0.4661981761455536,0.8931132555007935,-1.2818129062652588
1761469478897613300,2.04061328125,-0.23003998398780823,0.33056944608688354,-1.2339950799942017
1761469478907567400,2.0505673828125,0.0077490732073783875,-0.1443866342306137,-1.105120301246643
1761469478917522200,2.060522216796875,0.01020530704408884,-0.5833442807197571,-0.8999897837638855
1761469478927477200,2.070477294921875,-0.11002529412508011,-0.9272392988204956,-0.5324262976646423
1761469478937432300,2.080432373046875,-0.2325085997581482,-0.8375999331474304,-0.08577823638916016
1761469478947387100,2.09038720703125,-0.06502431631088257,-0.5636252164840698,0.40939170122146606
1761469478957342200,2.10034228515625,0.32431358098983765,-1.1059068441390991,0.6287559866905212
1761469478967296000,2.1102958984375,0.8143450617790222,-2.079768180847168,0.7813591957092285
1761469478977251300,2.120251220703125,1.1004844903945923,-2.914555311203003,0.9364020228385925
1761469478987206100,2.1302060546875,0.9951351284980774,-3.349062442779541,1.1515934467315674
1761469478997161200,2.1401611328125,0.5840343832969666,-3.2330713272094727,1.2557693719863892
1761469479007116300,2.1501162109375,0.4176180064678192,-1.618809461593628,1.1404662132263184
1761469479017070300,2.1600703125,0.5177563428878784,-0.028149167075753212,1.1597493886947632
1761469479027025200,2.170025146484375,0.6451925039291382,0.518698513507843,1.332392930984497
1761469479036980200,2.179980224609375,0.7987719178199768,0.6653417348861694,1.3062363862991333
1761469479046935300,2.189935302734375,0.7830349802970886,0.570562481880188,1.238531470298767
1761469479056890400,2.199890380859375,0.3934004306793213,0.18253250420093536,1.3111764192581177
1761469479066845200,2.20984521484375,-0.0859902948141098,-0.40597257018089294,1.45021653175354
1761469479076799200,2.21979931640625,-0.3242345452308655,-0.8345654606819153,1.5972249507904053
1761469479086754000,2.229754150390625,-0.3795647919178009,-1.1895170211791992,1.6598058938980103
1761469479096709400,2.23970947265625,-0.28589287400245667,-1.181918740272522,1.4692718982696533
1761469479106664200,2.249664306640625,-0.1366618573665619,-0.9550882577896118,0.985813558101654
1761469479116619000,2.259618896484375,-0.08730921894311905,-0.6812527179718018,0.36498385667800903
1761469479126573000,2.269572998046875,-0.18825609982013702,-0.29869696497917175,-0.30741405487060547
1761469479136528100,2.279528076171875,-0.3684692978858948,0.17317073047161102,-0.9120283126831055
1761469479146483200,2.289483154296875,-0.5106105804443359,0.1926497519016266,-1.2704986333847046
1761469479156438000,2.29943798828125,-0.7797773480415344,-0.034054774791002274,-1.4602572917938232
1761469479166393300,2.309393310546875,-1.059738278388977,-0.06254810839891434,-1.4202615022659302
1761469479176348200,2.31934814453125,-1.1979038715362549,-0.12458617985248566,-1.2006816864013672
1761469479186302200,2.32930224609375,-1.2704498767852783,-0.11625280976295471,-0.8502873182296753
1761469479196257300,2.33925732421875,-1.193342924118042,-0.013625500723719597,-0.47326788306236267
1761469479206212400,2.34921240234375,-1.08367121219635,0.03840874508023262,-0.02356886863708496
1761469479216167200,2.359167236328125,-0.9715883135795593,0.04847123473882675,0.5379144549369812
1761469479226122500,2.36912255859375,-0.8747223615646362,-0.01821545511484146,1.1034945249557495
1761469479236077300,2.379077392578125,-0.8417209982872009,0.038394294679164886,1.6726490259170532
1761469479246031400,2.38903125,-0.8234012722969055,0.15182939171791077,2.2163705825805664
1761469479255986200,2.398986083984375,-0.8027144074440002,0.17399542033672333,2.6887855529785156
1761469479265941500,2.40894140625,-0.8257080912590027,0.047220807522535324,3.028250217437744
1761469479275896300,2.418896240234375,-0.902493417263031,-0.17005318403244019,3.246781826019287
1761469479285851100,2.42885107421875,-1.0341607332229614,-0.53801029920578,3.326378345489502
1761469479295805200,2.43880517578125,-1.1850827932357788,-1.0006519556045532,3.246263265609741
1761469479305760300,2.44876025390625,-1.2744765281677246,-1.4682796001434326,3.045484781265259
1761469479315715300,2.45871533203125,-1.248232126235962,-1.8181860446929932,2.7110025882720947
1761469479325670100,2.468670166015625,-1.1546748876571655,-1.9152580499649048,2.2117152214050293
1761469479335625500,2.47862548828125,-1.0134721994400024,-1.7148131132125854,1.625373125076294
1761469479345580300,2.488580322265625,-0.8539599776268005,-1.2706331014633179,1.0134199857711792
1761469479355534300,2.498534423828125,-0.675571084022522,-0.7315559983253479,0.45758840441703796
1761469479365489200,2.5084892578125,-0.5063561797142029,-0.19864648580551147,-0.0013401166070252657
1761469479375444500,2.518444580078125,-0.331443727016449,0.1854947954416275,-0.3290330469608307
1761469479385399300,2.5283994140625,-0.15841315686702728,0.37080180644989014,-0.5316110849380493
1761469479395354400,2.538354248046875,-0.01219683326780796,0.43904078006744385,-0.6031755805015564
1761469479405308200,2.54830810546875,0.06737065315246582,0.3772846758365631,-0.5790327191352844
1761469479415263500,2.558263427734375,0.09990089386701584,0.1016850695014,-0.552160918712616
1761469479425218300,2.56821826171875,0.05474460497498512,-0.12006623297929764,-0.5446963310241699
1761469479435173400,2.57817333984375,-0.1986415833234787,0.0481904111802578,-0.5914100408554077
1761469479445128400,2.58812841796875,-0.5698415040969849,0.45073673129081726,-0.7106267809867859
1761469479455083300,2.598083251953125,-0.838059663772583,0.7074944376945496,-0.9067406058311462
1761469479465037300,2.608037353515625,-0.9556454420089722,0.9601718783378601,-1.0212750434875488
1761469479474992400,2.617992431640625,-0.9589312672615051,1.0014508962631226,-1.1209020614624023
1761469479484947500,2.627947509765625,-0.7391750812530518,0.9743136763572693,-1.048244595527649
1761469479494902300,2.63790234375,-0.22373147308826447,0.9105634689331055,-0.7063485383987427
1761469479504857300,2.647857421875,0.5251340270042419,0.08151712268590927,-0.4305703938007355
1761469479514812200,2.657812255859375,1.1765083074569702,-1.6040092706680298,-0.5586438775062561
1761469479524766500,2.667766357421875,1.583017110824585,-3.7260396480560303,-0.547609806060791
1761469479534721300,2.67772119140625,1.312537670135498,-3.692683696746826,-1.2779217958450317
1761469479544676400,2.68767626953125,1.0904796123504639,-2.369307041168213,-1.4190647602081299
1761469479554631200,2.697631103515625,0.4946674406528473,-0.11843768507242203,-1.696250081062317
1761469479564586500,2.70758642578125,-0.0068310098722577095,1.8377474546432495,-1.6530570983886719
1761469479574541300,2.717541259765625,-0.4627513885498047,2.6284842491149902,-1.3669898509979248
1761469479584495400,2.727495361328125,-0.8553035259246826,2.3767709732055664,-0.9369584918022156
1761469479594450200,2.7374501953125,-0.9648856520652771,1.479413628578186,-0.44336631894111633
1761469479604405500,2.747405517578125,-0.6802716851234436,0.48258382081985474,-0.024112161248922348
1761469479614360300,2.7573603515625,-0.07371651381254196,-0.1742190420627594,0.2183942198753357
1761469479624315100,2.767315185546875,0.4665294885635376,-0.5604749321937561,0.1813756227493286
1761469479634269200,2.777269287109375,0.7200048565864563,-0.6802985668182373,-0.1291569471359253
1761469479644224500,2.787224609375,0.7768381834030151,-0.2633458971977234,-0.5769038796424866
1761469479654179300,2.797179443359375,0.8026819825172424,0.4314076006412506,-1.195533275604248
1761469479664134100,2.807134033203125,0.9477162957191467,0.9334644079208374,-1.8731790781021118
1761469479674089500,2.81708935546875,1.0200673341751099,1.1180957555770874,-2.309659719467163
1761469479684044300,2.827044189453125,1.1268171072006226,1.6740944385528564,-1.8529608249664307
1761469479693998300,2.836998291015625,1.115750789642334,1.782026767730713,-1.2091909646987915
1761469479703953200,2.846953125,1.071980595588684,1.6966474056243896,-0.7064453363418579
1761469479713908500,2.856908447265625,1.0485175848007202,1.2084777355194092,-0.4992261826992035
1761469479723863300,2.86686328125,0.9380946755409241,0.9716542959213257,-0.2884659767150879
1761469479733818400,2.876818359375,0.7982774376869202,0.7368252873420715,-0.1768297404050827
1761469479743772200,2.886772216796875,0.5963348150253296,0.48061445355415344,-0.24754422903060913
1761469479753727500,2.8967275390625,0.4462994635105133,0.5784909725189209,-0.3944298028945923
1761469479763682300,2.906682373046875,0.36789050698280334,1.1088874340057373,-0.5179420113563538
1761469479773637400,2.916637451171875,0.33972570300102234,1.7460649013519287,-0.5757925510406494
1761469479783592200,2.92659228515625,0.31543225049972534,2.213000774383545,-0.5271533131599426
1761469479793547300,2.93654736328125,0.23853906989097595,2.422330617904663,-0.3325191140174866
1761469479803501300,2.946501220703125,0.10767173767089844,2.336737632751465,0.09789220243692398
1761469479813456400,2.956456298828125,-0.054043661803007126,1.958258032798767,0.7392618060112
1761469479823411200,2.9664111328125,-0.1220720112323761,1.4500755071640015,1.4662541151046753
1761469479833366300,2.9763662109375,-0.04289916530251503,0.7341073155403137,2.1020617485046387
1761469479843321300,2.9863212890625,0.1505957543849945,-0.181716650724411,2.5187149047851562
1761469479853275400,2.996275390625,0.43048837780952454,-1.077021837234497,2.759538173675537
1761469479863230200,3.006230224609375,0.5977262258529663,-1.8921420574188232,2.7687551975250244
1761469479873185300,3.016185302734375,0.7689134478569031,-2.5600099563598633,2.447789192199707
1761469479883140400,3.026140380859375,0.87633216381073,-2.736798048019409,1.712526798248291
1761469479893095200,3.03609521484375,0.9563489556312561,-2.3298943042755127,0.6872560977935791
1761469479903050500,3.046050537109375,1.0284645557403564,-1.48963463306427,-0.4989262521266937
1761469479913004300,3.05600439453125,1.0755620002746582,-0.37700021266937256,-1.5550366640090942
1761469479922959400,3.06595947265625,1.0892294645309448,0.7836751937866211,-2.1182873249053955
1761469479932914200,3.0759140625,0.9281652569770813,1.757773518562317,-2.214193344116211
1761469479942869500,3.085869384765625,0.6611208319664001,2.2374818325042725,-1.9714064598083496
1761469479952824300,3.09582421875,0.3682384192943573,2.2772457599639893,-1.4505677223205566
1761469479962779400,3.105779296875,0.1381814032793045,2.063502550125122,-0.7643235325813293
1761469479972733200,3.115733154296875,0.025689750909805298,1.6442230939865112,-0.09829120337963104
1761469479982688500,3.1256884765625,0.013336269184947014,1.0533777475357056,0.3965592086315155
1761469479992643300,3.135643310546875,0.0799693614244461,0.4196937382221222,0.6659694314002991
1761469480002598400,3.145598388671875,0.20332404971122742,-0.13817669451236725,0.7117975950241089
1761469480012553200,3.15555322265625,0.34011417627334595,-0.4974336624145508,0.5555671453475952
1761469480022507500,3.165507568359375,0.45918262004852295,-0.5602245926856995,0.21929824352264404
1761469480032462300,3.17546240234375,0.5140882134437561,-0.3022820055484772,-0.2655150294303894
1761469480042417400,3.18541748046875,0.49780377745628357,0.11169426888227463,-0.7556887269020081
1761469480052372200,3.195372314453125,0.43911516666412354,0.5658681392669678,-1.0267395973205566
1761469480062327300,3.205327392578125,0.3547161817550659,0.9974832534790039,-0.9409588575363159
1761469480072282400,3.215282470703125,0.2967391610145569,1.133235216140747,-0.5705655813217163
1761469480082236400,3.225236328125,0.21126313507556915,0.7470536231994629,-0.03750946745276451
1761469480092191200,3.235191162109375,0.13273529708385468,-0.2641749978065491,0.4312920868396759
1761469480102146300,3.245146240234375,0.15384911000728607,-1.6826117038726807,0.583083987236023
1761469480112101400,3.255101318359375,0.3600326180458069,-2.7903366088867188,0.394042432308197
1761469480122056200,3.26505615234375,0.6840400695800781,-2.965848922729492,0.0027256838511675596
1761469480132010200,3.27501025390625,0.935545802116394,-2.228463649749756,-0.3430367708206177
1761469480141965300,3.28496533203125,0.9382578730583191,-1.2695084810256958,-0.6409511566162109
1761469480151920400,3.29492041015625,0.6844580769538879,-0.9668458104133606,-0.9022152423858643
1761469480161875200,3.304875244140625,0.22946925461292267,-1.1321941614151,-0.9260820746421814
1761469480171830500,3.31483056640625,-0.33194026350975037,-1.486299991607666,-0.803573727607727
1761469480181785300,3.324785400390625,-0.7672182321548462,-1.9228743314743042,-0.9594196677207947
1761469480191740000,3.334739990234375,-0.9795554876327515,-2.1014041900634766,-1.5571805238723755
1761469480201694700,3.34469482421875,-1.0387587547302246,-1.8171015977859497,-2.410627841949463
1761469480211649800,3.35464990234375,-0.9307327270507812,-1.1063978672027588,-3.080000638961792
1761469480221604900,3.36460498046875,-0.7243809103965759,-0.3079637885093689,-3.3619654178619385
1761469480231559700,3.3745595703125,-0.6333109140396118,0.2648025155067444,-3.0823516845703125
1761469480241513700,3.384513671875,-0.5559177398681641,0.3935365080833435,-2.255824089050293
1761469480251468800,3.39446875,-0.41424426436424255,-0.24612604081630707,-1.2682112455368042
1761469480261423900,3.404423828125,-0.38628607988357544,-1.2648371458053589,-0.45789700746536255
1761469480271378700,3.414378662109375,0.000987609033472836,-2.098742961883545,0.2798263132572174
1761469480281334000,3.424333984375,0.3629778325557709,-2.3121466636657715,0.7357435822486877
1761469480291288800,3.434288818359375,0.6193355917930603,-2.0861473083496094,0.872601330280304
1761469480301243000,3.444242919921875,0.7003783583641052,-1.5000156164169312,0.7403127551078796
1761469480311197700,3.45419775390625,0.5299102067947388,-0.5735562443733215,0.4344465732574463
1761469480321153000,3.464153076171875,0.172934427857399,0.5648511052131653,0.14666897058486938
1761469480331107800,3.47410791015625,-0.2546547055244446,1.5235190391540527,0.035183459520339966
1761469480341063000,3.48406298828125,-0.6389350891113281,1.9806814193725586,0.1699831485748291
1761469480351016700,3.4940166015625,-0.8958313465118408,1.8613622188568115,0.5198010802268982
1761469480360972000,3.503971923828125,-0.9733466506004333,1.3215361833572388,0.977985680103302
1761469480370926800,3.5139267578125,-0.8549001812934875,0.5635933876037598,1.3874757289886475
1761469480380881700,3.523881591796875,-0.5950894951820374,-0.28396499156951904,1.6006745100021362
1761469480390836700,3.533836669921875,-0.3736247718334198,-1.0950291156768799,1.5141342878341675
1761469480400791800,3.543791748046875,-0.06261361390352249,-1.599834680557251,1.2640944719314575
1761469480410745900,3.553745849609375,0.2382093369960785,-1.841325044631958,0.7461148500442505
1761469480420700700,3.56370068359375,0.3936915993690491,-1.7452338933944702,0.06336338073015213
1761469480430655700,3.57365576171875,0.43506327271461487,-1.4140831232070923,-0.6586393117904663
1761469480440610800,3.58361083984375,0.28054919838905334,-0.8821396827697754,-1.2311166524887085
1761469480450566000,3.59356591796875,-0.03925437107682228,-0.17450609803199768,-1.460334062576294
1761469480460520700,3.603520751953125,-0.3792831301689148,0.5149559378623962,-1.2650744915008545
1761469480470474800,3.613474853515625,-0.6312922239303589,0.9398376941680908,-0.8189729452133179
1761469480480429800,3.623429931640625,-0.7480391263961792,1.009987235069275,-0.3266623616218567
1761469480490385000,3.633385009765625,-0.7152705192565918,0.7209572196006775,0.1327206790447235
1761469480500339700,3.643339599609375,-0.5450214147567749,0.23783299326896667,0.5204007625579834
1761469480510295000,3.653294921875,-0.31110692024230957,-0.1870565116405487,0.7586636543273926
1761469480520248800,3.663248779296875,-0.09285900741815567,-0.47335192561149597,0.8100631833076477
1761469480530204000,3.673203857421875,0.029957188293337822,-0.5690099596977234,0.7015002369880676
1761469480540158700,3.68315869140625,0.04016416519880295,-0.39272210001945496,0.43574580550193787
1761469480550113800,3.69311376953125,-0.03731784224510193,-0.06440147757530212,0.06649292260408401
1761469480560068900,3.70306884765625,-0.11649587750434875,0.3943607211112976,-0.26495152711868286
1761469480570023000,3.71302294921875,-0.12468376755714417,0.8693898320198059,-0.43926259875297546
1761469480579977700,3.722977783203125,-0.06349766999483109,1.1758207082748413,-0.484395295381546
1761469480589932800,3.732932861328125,0.03246534243226051,1.3030204772949219,-0.33088454604148865
1761469480599888000,3.742887939453125,0.10083094239234924,1.1466718912124634,0.13425886631011963
1761469480609842700,3.7528427734375,0.1631891280412674,0.5877292156219482,0.7573125958442688
1761469480619798000,3.762798095703125,0.173820361495018,-0.39938750863075256,1.220442295074463
1761469480629751800,3.772751708984375,0.15979109704494476,-1.6910730600357056,1.2784024477005005
1761469480639707000,3.782706787109375,0.21351099014282227,-2.839254140853882,0.89488685131073
1761469480649661700,3.79266162109375,0.326956570148468,-3.166348695755005,0.33563852310180664
1761469480659616800,3.80261669921875,0.31117716431617737,-2.293243169784546,-0.01913115568459034
1761469480669571800,3.81257177734375,0.0032893833704292774,-0.7037948369979858,-0.1099899560213089
1761469480679527000,3.82252685546875,-0.45271071791648865,0.6134243607521057,-0.1476690173149109
1761469480689480700,3.832480712890625,-0.7606562972068787,0.8812432885169983,-0.38427862524986267
1761469480699435800,3.842435791015625,-0.7893379926681519,0.22835159301757812,-0.8007602691650391
1761469480709390800,3.852390869140625,-0.5730499029159546,-0.46601492166519165,-1.159449577331543
1761469480719346000,3.862345947265625,-0.2720743715763092,-0.8053576350212097,-1.343370795249939
1761469480729300700,3.87230078125,-0.025378292426466942,-0.983091413974762,-1.423164963722229
1761469480739254800,3.8822548828125,0.20854179561138153,-1.1776245832443237,-1.4677350521087646
1761469480749209900,3.8922099609375,0.4676165282726288,-1.1357709169387817,-1.3995277881622314
1761469480759165000,3.9021650390625,0.7082679867744446,-0.9120686650276184,-1.2199528217315674
1761469480769119700,3.91211962890625,0.8106937408447266,-0.6292923092842102,-0.947581946849823
1761469480779074800,3.92207470703125,0.7812275886535645,-0.405990332365036,-0.5896409749984741
1761469480789030000,3.93202978515625,0.7128323316574097,-0.3016396760940552,-0.21311819553375244
1761469480798984000,3.94198388671875,0.6820307970046997,-0.2437707930803299,0.14930890500545502
1761469480808938800,3.951938720703125,0.7050698399543762,-0.1791268289089203,0.47570300102233887
1761469480818893800,3.961893798828125,0.7486555576324463,-0.25640779733657837,0.6673188805580139
1761469480828849000,3.971848876953125,0.7324254512786865,-0.3890742361545563,0.7232141494750977
1761469480838803700,3.9818037109375,0.6111536026000977,-0.40295761823654175,0.7142997980117798
1761469480848757800,3.9917578125,0.4207093119621277,-0.20948055386543274,0.6432647705078125
1761469480863067000,4.00606689453125,0.10318955779075623,0.4876154363155365,0.48589813709259033
1761469480873022000,4.01602197265625,-0.09695977717638016,1.2418344020843506,0.45401689410209656
1761469480882976800,4.025976806640625,-0.22377216815948486,2.001636266708374,0.5527510046958923
1761469480892931800,4.035931884765625,-0.23706454038619995,2.482679605484009,0.7442631721496582
1761469480902887000,4.045886962890625,-0.18885214626789093,2.525146961212158,0.9628649353981018
1761469480912841000,4.055841064453125,-0.1414303034543991,2.218858480453491,1.180422067642212
1761469480922795800,4.065795654296875,-0.13417550921440125,1.7315067052841187,1.4129419326782227
1761469480932750800,4.075750732421875,-0.12640494108200073,1.0907330513000488,1.6424411535263062
1761469480942706000,4.085705810546875,-0.0829489678144455,0.3670043349266052,1.7894444465637207
1761469480952660700,4.09566064453125,-0.016821345314383507,-0.22875864803791046,1.770361065864563
1761469480962614800,4.10561474609375,0.05415424704551697,-0.5612080097198486,1.6020547151565552
1761469480972569900,4.11556982421875,0.13238726556301117,-0.617601215839386,1.3544117212295532
1761469480982525000,4.12552490234375,0.199660062789917,-0.4184643030166626,1.0685765743255615
1761469480992479700,4.135479736328125,0.22671085596084595,-0.13692370057106018,0.7430386543273926
1761469481002434800,4.145434814453125,0.2280350923538208,0.10297330468893051,0.4082168936729431
1761469481012388900,4.155388916015625,0.21318450570106506,0.24003076553344727,0.0719829648733139
1761469481022344000,4.165343994140625,0.1342805176973343,0.23826813697814941,-0.21788930892944336
1761469481032298800,4.175298828125,-0.014772355556488037,0.10955915600061417,-0.4225047826766968
1761469481042253800,4.18525390625,-0.1469753086566925,-0.0035105731803923845,-0.5200937390327454
1761469481052209000,4.195208984375,-0.2199946641921997,-0.0052994186989963055,-0.5333173871040344
1761469481062163700,4.205163818359375,-0.25552472472190857,0.10530710965394974,-0.505754828453064
1761469481072117800,4.21511767578125,-0.2596563398838043,0.24682003259658813,-0.45578834414482117
1761469481082072800,4.22507275390625,-0.26718491315841675,0.32057082653045654,-0.3877928853034973
1761469481092028000,4.23502783203125,-0.28147783875465393,0.3084523677825928,-0.3084101974964142
1761469481101982700,4.244982666015625,-0.2619669735431671,0.24243217706680298,-0.2241019606590271
1761469481111937800,4.254937744140625,-0.25240862369537354,0.12239579111337662,-0.1690397709608078
1761469481121892900,4.264892822265625,-0.2300773411989212,-0.003274640068411827,-0.17652568221092224
1761469481131847000,4.274846923828125,-0.16889841854572296,0.025843031704425812,-0.26523664593696594
1761469481141801700,4.2848017578125,-0.12159498780965805,0.2634778618812561,-0.3630079925060272
1761469481151756800,4.2947568359375,-0.0887286514043808,0.66173255443573,-0.3223055601119995
1761469481161711900,4.3047119140625,-0.03377307578921318,1.0142133235931396,-0.15151511132717133
1761469481171667000,4.3146669921875,0.11746997386217117,0.8570563793182373,-0.02601763792335987
1761469481181620700,4.324620849609375,0.26455530524253845,-0.16339892148971558,-0.13921155035495758
1761469481191575800,4.334575927734375,0.22167441248893738,-1.6218827962875366,-0.5140162706375122
1761469481201529900,4.34452978515625,-0.09725379943847656,-2.525033473968506,-0.9387282133102417
1761469481212107800,4.355107666015625,-0.5624907612800598,-2.021059274673462,-1.1806966066360474
1761469481222061800,4.365061767578125,-1.011009693145752,-0.5233889222145081,-1.0917714834213257
1761469481232017000,4.375016845703125,-1.251990556716919,0.7899686694145203,-0.942441999912262
1761469481241972000,4.384971923828125,-1.1016244888305664,1.0488086938858032,-1.0341005325317383
1761469481251926800,4.3949267578125,-0.7106140851974487,0.6478069424629211,-1.1193161010742188
1761469481261881900,4.4048818359375,-0.3808535933494568,0.011372408829629421,-0.883029043674469
1761469481271836000,4.4148359375,-0.2998463809490204,-0.5973731875419617,-0.35603663325309753
1761469481281791000,4.424791015625,-0.3329105079174042,-1.1569312810897827,0.25997212529182434
1761469481291745800,4.434745849609375,-0.44326815009117126,-1.6084704399108887,0.8085529208183289
1761469481301700900,4.444700927734375,-0.4055635929107666,-1.8113822937011719,1.3403239250183105
1761469481311655700,4.45465576171875,-0.34207943081855774,-1.7132314443588257,1.7126649618148804
1761469481321611000,4.464611083984375,-0.1995803862810135,-1.3275293111801147,2.0037810802459717
1761469481331564800,4.474564697265625,-0.06726815551519394,-0.8460010290145874,2.3295867443084717
1761469481341520000,4.484519775390625,-0.043424129486083984,-0.4826842248439789,2.7750425338745117
1761469481351474700,4.494474609375,-0.23081719875335693,-0.29963451623916626,3.0930519104003906
1761469481361430000,4.504429931640625,-0.4046900272369385,-0.08883682638406754,3.3474159240722656
1761469481371384800,4.514384765625,-0.5553575754165649,0.08840027451515198,3.3116559982299805
1761469481381340000,4.52433984375,-0.5582173466682434,0.5907820463180542,3.0306508541107178
1761469481391293700,4.534293701171875,-0.391990602016449,1.2999149560928345,2.7174785137176514
1761469481401249000,4.5442490234375,-0.21853767335414886,1.9053400754928589,2.550283670425415
1761469481411203800,4.554203857421875,-0.428767591714859,2.0800373554229736,2.4148504734039307
1761469481421159000,4.564158935546875,-0.6829182505607605,1.730399250984192,2.4454617500305176
1761469481431114000,4.574114013671875,-1.032942295074463,1.4316805601119995,2.6054015159606934
1761469481441068000,4.584068115234375,-1.3447061777114868,1.0527527332305908,2.8307671546936035
1761469481451022800,4.59402294921875,-1.3803362846374512,0.7649142742156982,3.0859668254852295
1761469481460978000,4.60397802734375,-1.3417894840240479,0.6365563869476318,3.2082693576812744
1761469481470933000,4.61393310546875,-1.1955550909042358,0.595445990562439,3.144658327102661
1761469481480887800,4.6238876953125,-1.024994969367981,0.36536285281181335,2.8981716632843018
1761469481490843000,4.6338427734375,-0.7291674613952637,-0.020095359534025192,2.5096940994262695
1761469481500796700,4.643796630859375,-0.3445388376712799,-0.12598276138305664,1.8961130380630493
1761469481510752000,4.653751953125,0.1365063339471817,-0.20493589341640472,1.1284440755844116
1761469481520706800,4.663706787109375,0.5729840397834778,-0.32545554637908936,0.07512172311544418
1761469481530662000,4.673661865234375,0.8419108986854553,-0.2000206857919693,-0.9890910387039185
1761469481540616700,4.68361669921875,0.9921294450759888,-0.03680858388543129,-1.9379703998565674
1761469481550572000,4.693572021484375,0.9611084461212158,0.2004266083240509,-2.702314853668213
1761469481560525800,4.70352587890625,0.7482253313064575,0.43099066615104675,-3.245701789855957
1761469481570481000,4.71348095703125,0.39825958013534546,0.5764021873474121,-3.5387420654296875
1761469481580435700,4.723435791015625,-0.01285079400986433,0.6023465394973755,-3.6059515476226807
1761469481590391000,4.73339111328125,-0.44208523631095886,0.6465025544166565,-3.3113577365875244
1761469481600345900,4.743345947265625,-0.8527735471725464,0.6765456795692444,-2.833503246307373
1761469481610300000,4.7532998046875,-0.9490912556648254,0.6203926801681519,-2.263453722000122
1761469481620254700,4.763254638671875,-0.8896777629852295,0.4425956904888153,-1.7045507431030273
1761469481630210000,4.7732099609375,-0.812229335308075,0.2257813811302185,-1.23838472366333
1761469481640164900,4.783164794921875,-0.6656841039657593,-0.03291479870676994,-0.8688742518424988
1761469481650119700,4.79311962890625,-0.4826226532459259,-0.1634778529405594,-0.5454360246658325
1761469481660075000,4.803074951171875,-0.36180779337882996,-0.2637191414833069,-0.325198233127594
1761469481670028800,4.81302880859375,-0.33270692825317383,-0.29916316270828247,-0.20406673848628998
1761469481679983900,4.82298388671875,-0.4011928141117096,-0.26113826036453247,-0.14110194146633148
1761469481689938700,4.832938720703125,-0.43035122752189636,-0.293791800737381,-0.08032087981700897
1761469481699894000,4.84289404296875,-0.4544832706451416,-0.26086708903312683,-0.08303079009056091
1761469481709848800,4.852848876953125,-0.48088157176971436,-0.15951623022556305,-0.0499761700630188
1761469481719803000,4.862802978515625,-0.4597780108451843,-0.06148478016257286,0.11874867230653763
1761469481729757700,4.8727578125,-0.42076483368873596,-0.14954887330532074,0.24525761604309082
1761469481739713000,4.882713134765625,-0.20920275151729584,-0.4645976424217224,0.24759677052497864
1761469481749667800,4.892667724609375,0.5689119100570679,-1.675795316696167,0.23394300043582916
1761469481759623000,4.902622802734375,1.4226019382476807,-2.7995357513427734,0.05584964528679848
1761469481769578000,4.912577880859375,1.983549952507019,-2.7586073875427246,-0.17564216256141663
1761469481779532000,4.922531982421875,1.980026364326477,-1.7372987270355225,-0.5065674185752869
1761469481789486800,4.93248681640625,1.5370286703109741,-0.19239632785320282,-0.7054097056388855
1761469481799442000,4.94244189453125,0.8995515704154968,0.6434001326560974,-1.091380000114441
1761469481809397000,4.95239697265625,0.4303039610385895,0.9968242645263672,-1.6369717121124268
1761469481819351800,4.962351806640625,0.2637597322463989,0.9384801387786865,-2.196274995803833
1761469481829305900,4.972305908203125,0.3115656077861786,0.3139457106590271,-2.657045364379883
1761469481839261000,4.982260986328125,0.4683615565299988,0.08880720287561417,-2.679995536804199
1761469481849216000,4.992216064453125,0.7793319225311279,-0.006770984269678593,-2.34032940864563
1761469481859170800,5.0021708984375,1.1495097875595093,-0.28461113572120667,-1.8056684732437134
1761469481869126000,5.0121259765625,1.2972739934921265,-0.5585132241249084,-1.1453964710235596
1761469481879080700,5.022080810546875,1.2419278621673584,-0.9710597395896912,-0.39217492938041687
1761469481889035000,5.032034912109375,1.0443015098571777,-1.0754506587982178,0.6004545092582703
1761469481898989800,5.04198974609375,0.7680882215499878,-0.8381761908531189,1.4758111238479614
1761469481908945000,5.05194482421875,0.5054203867912292,-0.4352550804615021,1.9689075946807861
1761469481918899700,5.061899658203125,0.3094097673892975,-0.4137635827064514,1.9037986993789673
1761469481928855000,5.07185498046875,0.1409642994403839,-0.3176029622554779,1.5904099941253662
1761469481938809900,5.081809814453125,-0.10151807963848114,-0.211884006857872,1.171590805053711
1761469481948764000,5.091763916015625,-0.3479782044887543,-0.07084114849567413,0.8025478720664978
1761469481958718700,5.10171875,-0.4535953402519226,-0.056688763201236725,0.5404839515686035
1761469481968674000,5.111674072265625,-0.5251057147979736,-0.19169718027114868,0.3437355160713196
1761469481978628900,5.12162890625,-0.6222497820854187,-0.2657245099544525,0.2302546203136444
1761469481988583700,5.131583740234375,-0.8340048789978027,-0.31676533818244934,0.026669003069400787
1761469481998537700,5.141537841796875,-0.9567931294441223,0.14758586883544922,-0.006044655106961727
1761469482008493000,5.1514931640625,-0.911918044090271,0.7707205414772034,0.06309313327074051
1761469482018448000,5.16144775390625,-0.7581957578659058,1.3227564096450806,0.1776481568813324
1761469482028402700,5.171402587890625,-0.5850250720977783,1.605464220046997,0.32824352383613586
1761469482038358000,5.18135791015625,-0.3898037075996399,1.4874546527862549,0.5574853420257568
1761469482048312800,5.191312744140625,-0.1831466555595398,1.129852533340454,0.7933157086372375
1761469482058267000,5.201266845703125,0.01836429350078106,0.7617508172988892,0.9374083280563354
1761469482068221700,5.2112216796875,0.18238678574562073,0.5072935223579407,0.9514002799987793
1761469482078177000,5.221177001953125,0.2832592725753784,0.37501901388168335,0.8566497564315796
1761469482088131800,5.2311318359375,0.30683037638664246,0.35278642177581787,0.6647205352783203
1761469482098087000,5.2410869140625,0.24975508451461792,0.40380480885505676,0.40517884492874146
1761469482108040700,5.251040771484375,0.14923939108848572,0.4330087900161743,0.13139203190803528
1761469482117996000,5.26099609375,0.07892127335071564,0.5196966528892517,-0.15779265761375427
1761469482127950800,5.270950927734375,0.03299771994352341,0.7618648409843445,-0.414702445268631
1761469482137906000,5.280906005859375,0.03862958773970604,1.096850037574768,-0.6095466613769531
1761469482147860700,5.29086083984375,0.0678926631808281,1.3041414022445679,-0.7636448740959167
1761469482157815800,5.30081591796875,0.09316901862621307,1.3205615282058716,-0.8492949604988098
1761469482167769900,5.310769775390625,0.1328945904970169,1.1093995571136475,-0.8165615200996399
1761469482177725000,5.320724853515625,0.19656170904636383,0.7168428301811218,-0.6713830828666687
1761469482187679700,5.3306796875,0.2421417087316513,0.2965976297855377,-0.4859040677547455
1761469482197634800,5.340634765625,0.25088515877723694,-0.01760970987379551,-0.32477661967277527
1761469482207590100,5.350590087890625,0.17618001997470856,-0.08943330496549606,-0.16856971383094788
1761469482217544200,5.360544189453125,0.03861282765865326,0.0026717858854681253,-0.03663060814142227
1761469482227499000,5.3704990234375,-0.07010699063539505,0.11873181164264679,0.00748838298022747
1761469482237453800,5.380453857421875,-0.18181785941123962,0.265718549489975,-0.04213304445147514
1761469482247409200,5.3904091796875,-0.2706105709075928,0.4439825415611267,-0.08504588901996613
1761469482257364000,5.400364013671875,-0.2872365713119507,0.45237115025520325,-0.08074389398097992
1761469482267319000,5.410319091796875,-0.24918614327907562,0.26234209537506104,-0.059723298996686935
1761469482277272800,5.42027294921875,-0.19396205246448517,-0.005502206273376942,0.002977601485326886
1761469482287228200,5.430228271484375,-0.10653340071439743,0.013974555768072605,0.1618327647447586
1761469482297183000,5.440182861328125,0.18089595437049866,-0.6400755643844604,0.3126656711101532
1761469482307138000,5.450137939453125,0.6966801881790161,-1.8707513809204102,0.5231254696846008
1761469482317092900,5.4600927734375,0.9991337060928345,-2.8912909030914307,0.800460159778595
1761469482327047200,5.470047119140625,0.7168309092521667,-2.447572946548462,1.3776215314865112
1761469482337002000,5.480001953125,-0.04115228354930878,-0.77108234167099,2.180250883102417
1761469482346957000,5.48995703125,-0.9304419755935669,0.9050947427749634,2.7103147506713867
1761469482356911900,5.499911865234375,-1.337019681930542,1.4888585805892944,2.4866366386413574
1761469482366867000,5.509866943359375,-1.2005486488342285,1.5327903032302856,1.8774625062942505
1761469482376822000,5.519822021484375,-0.7568846940994263,1.32972252368927,1.1295069456100464
1761469482386776000,5.529776123046875,-0.21475006639957428,1.0339629650115967,0.5155737996101379
1761469482396731000,5.53973095703125,0.277974933385849,0.581403911113739,0.11825696378946304
1761469482406686000,5.54968603515625,0.5652250647544861,0.17965033650398254,-0.030550887808203697
1761469482416641000,5.55964111328125,0.5622334480285645,0.08397937566041946,-0.08825766295194626
1761469482426595800,5.569595947265625,0.35666051506996155,0.19614478945732117,-0.2572576105594635
1761469482436550000,5.5795498046875,0.15047939121723175,0.46258652210235596,-0.5831374526023865
1761469482446505000,5.5895048828125,0.0872998833656311,0.9906327724456787,-1.0613501071929932
1761469482456460000,5.5994599609375,0.2046145647764206,1.7142711877822876,-1.5100170373916626
1761469482466414800,5.609414794921875,0.42112505435943604,2.4132187366485596,-1.6881260871887207
1761469482476370200,5.6193701171875,0.5998013019561768,2.669658899307251,-1.5523221492767334
1761469482486325000,5.629324951171875,0.649236261844635,2.4257407188415527,-1.159787893295288
1761469482496279000,5.639279052734375,0.5257906913757324,1.8292062282562256,-0.5865501165390015
1761469482506233900,5.64923388671875,0.27168914675712585,0.8980145454406738,0.06549211591482162
1761469482516189200,5.659189208984375,0.018668048083782196,-0.0704428032040596,0.7526786923408508
1761469482526144000,5.66914404296875,-0.17451685667037964,-0.784591019153595,1.369299292564392
1761469482536099000,5.67909912109375,-0.2902030944824219,-1.0186043977737427,1.9051544666290283
1761469482546052900,5.689052978515625,-0.3971647024154663,-0.7352979183197021,2.4028666019439697
1761469482556008200,5.69900830078125,-0.5047364830970764,-0.23680876195430756,2.86542010307312
1761469482565963000,5.708962890625,-0.5972501635551453,0.18969593942165375,3.2352263927459717
1761469482575918000,5.71891796875,-0.6391716003417969,0.3846043348312378,3.4488182067871094
1761469482585873000,5.728872802734375,-0.5970089435577393,0.32126182317733765,3.536416530609131
1761469482595828000,5.738827880859375,-0.5526494383811951,-0.002364711370319128,3.5130369663238525
1761469482605782000,5.748781982421875,-0.5729653239250183,-0.09845369309186935,3.325831890106201
1761469482615737000,5.758737060546875,-0.48352956771850586,-0.3991284966468811,3.0291991233825684
1761469482625692000,5.76869189453125,-0.33030378818511963,-0.8519942164421082,2.6650171279907227
1761469482635647000,5.77864697265625,-0.2393302321434021,-0.9907447099685669,2.1234169006347656
1761469482645602000,5.78860205078125,-0.1740705370903015,-0.8915683031082153,1.5187580585479736
1761469482655555800,5.798555908203125,-0.09242087602615356,-0.5556475520133972,0.9848212599754333
1761469482665511000,5.808510986328125,-0.022496119141578674,-0.07078923285007477,0.5135219097137451
1761469482675466000,5.818466064453125,-0.08982692658901215,0.3521723747253418,0.2169685810804367
1761469482685421000,5.828421142578125,-0.26530686020851135,0.6358789205551147,0.11577776819467545
1761469482695376000,5.8383759765625,-0.46117737889289856,0.7466555833816528,0.21162927150726318
1761469482705331200,5.848331298828125,-0.6957374811172485,0.5060528516769409,0.46384739875793457
1761469482715285000,5.858284912109375,-0.9542106986045837,0.10049821436405182,0.7795236110687256
1761469482725240000,5.868239990234375,-1.1634949445724487,-0.31722766160964966,1.0386011600494385
1761469482735195000,5.87819482421875,-1.3010551929473877,-0.6192964911460876,1.2884784936904907
1761469482745150200,5.888150146484375,-1.2983273267745972,-0.7733017206192017,1.4835715293884277
1761469482755105000,5.89810498046875,-1.1609324216842651,-0.7711405754089355,1.5624420642852783
1761469482765059000,5.90805908203125,-0.9138324856758118,-0.6595005989074707,1.5011101961135864
1761469482775014000,5.918013916015625,-0.5741608142852783,-0.5029314756393433,1.3047751188278198
1761469482784969200,5.92796923828125,-0.24927301704883575,-0.4782780706882477,1.082721471786499
1761469482794924000,5.937924072265625,-0.0821790099143982,-0.696334958076477,0.9911901950836182
1761469482804878800,5.94787890625,-0.12469664961099625,-1.0724067687988281,1.1124264001846313
1761469482814833000,5.9578330078125,-0.28495070338249207,-1.4368689060211182,1.4395681619644165
1761469482824788000,5.9677880859375,-0.34798985719680786,-1.646449089050293,1.9421018362045288
1761469482834743000,5.977742919921875,-0.24990564584732056,-1.652999758720398,2.3371968269348145
1761469482844697900,5.98769775390625,-0.14937211573123932,-1.5830504894256592,2.3052663803100586
1761469482854653000,5.99765283203125,-0.11284889280796051,-1.348920226097107,1.874294400215149
1761469482864608000,6.00760791015625,0.0206681527197361,-0.7205806374549866,1.4504573345184326
1761469482874562000,6.01756201171875,0.27439355850219727,-0.01841163821518421,1.3059782981872559
1761469482884516900,6.027516845703125,0.3336041569709778,0.6712450385093689,1.4324795007705688
1761469482894472000,6.037471923828125,0.16114215552806854,0.9713742136955261,1.6467941999435425
1761469482904427000,6.047427001953125,-0.16202817857265472,0.6276088953018188,1.7255324125289917
1761469482914382000,6.057382080078125,-0.48964664340019226,0.038452088832855225,1.632803201675415
1761469482924335900,6.0673359375,-0.6157872676849365,-0.29296791553497314,1.4375783205032349
1761469482934291000,6.077291015625,-0.47318732738494873,-0.3375915586948395,1.0834014415740967
1761469482944246000,6.08724609375,-0.18384848535060883,-0.15381959080696106,0.6144493818283081
1761469482954201000,6.097201171875,0.08093328773975372,0.2645988166332245,0.0775490328669548
1761469482964156000,6.107156005859375,0.3676753044128418,0.8648958802223206,-0.4036734998226166
1761469482974110000,6.11710986328125,0.679362952709198,1.337575078010559,-0.731643795967102
1761469482984065000,6.12706494140625,0.9970335960388184,1.364703893661499,-0.8116803169250488
1761469482994020000,6.13702001953125,1.115887999534607,0.7998046278953552,-0.6848921179771423
1761469483003975000,6.146974853515625,0.9465054869651794,0.13423357903957367,-0.5400574803352356
1761469483013930000,6.156929931640625,0.5594156384468079,-0.2510477602481842,-0.4641394317150116
1761469483023885000,6.166885009765625,0.13045363128185272,-0.26157575845718384,-0.49530455470085144
1761469483033839000,6.176839111328125,-0.2103337198495865,0.07314924895763397,-0.6706181764602661
1761469483043794000,6.1867939453125,-0.4699628949165344,0.6175673007965088,-0.9643262028694153
1761469483053749000,6.1967490234375,-0.610973060131073,1.2735053300857544,-1.2616045475006104
1761469483063704000,6.2067041015625,-0.6143520474433899,1.8716638088226318,-1.4285961389541626
1761469483073659000,6.216658935546875,-0.5732012987136841,2.1876280307769775,-1.3557231426239014
1761469483083613000,6.226613037109375,-0.48354387283325195,2.087399959564209,-0.9267237782478333
1761469483093568000,6.236568115234375,-0.3148382008075714,1.5433822870254517,-0.16133850812911987
1761469483103523000,6.246523193359375,-0.14777570962905884,0.4767318665981293,0.766505241394043
1761469483113478000,6.256477783203125,-0.10335101932287216,-0.7588204145431519,1.601675033569336
1761469483123433200,6.26643310546875,-0.03421216458082199,-1.7352840900421143,2.1236846446990967
1761469483133388000,6.276387939453125,0.0639815703034401,-2.4023313522338867,2.161867141723633
1761469483143342000,6.286342041015625,0.20319858193397522,-2.495396614074707,1.804996132850647
1761469483153297000,6.296296875,0.08309555053710938,-1.525057077407837,1.374281883239746
1761469483163252000,6.306251953125,-0.16209368407726288,-0.2424619197845459,0.8925280570983887
1761469483173207000,6.31620703125,-0.31938931345939636,0.8544034361839294,0.34639281034469604
1761469483183161900,6.326161865234375,-0.3804478645324707,1.5205638408660889,-0.15860484540462494
1761469483193116000,6.336115966796875,-0.42194864153862,1.641180157661438,-0.5453320741653442
1761469483203071200,6.3460712890625,-0.5528949499130249,1.3118656873703003,-0.7157539129257202
1761469483213026300,6.3560263671875,-0.6397528648376465,0.7822163701057434,-0.7164015769958496
1761469483222981000,6.365981201171875,-0.5607781410217285,0.22571928799152374,-0.7154391407966614
1761469483232936200,6.375936279296875,-0.38343676924705505,-0.20478475093841553,-0.685899555683136
1761469483242890200,6.38589013671875,-0.4443930387496948,-0.26734215021133423,-0.5625102519989014
1761469483252845300,6.39584521484375,-0.645301878452301,0.10299865156412125,-0.15104764699935913
1761469483262800100,6.405800048828125,-0.7570319175720215,0.5322996973991394,0.43142271041870117
1761469483272755200,6.415755126953125,-0.7378801107406616,0.776247501373291,0.8044717907905579
1761469483282710300,6.425710205078125,-0.6786671280860901,0.7714109420776367,0.9457655549049377
1761469483292665300,6.435665283203125,-0.5970911979675293,0.508522629737854,0.8932450413703918
1761469483302619100,6.445619140625,-0.479918509721756,0.1886676698923111,0.668474555015564
1761469483312574200,6.45557421875,-0.36829856038093567,-0.17387954890727997,0.3081974387168884
1761469483322529300,6.465529296875,-0.30125269293785095,-0.5400029420852661,-0.037506166845560074
1761469483332484400,6.475484375,-0.2917899489402771,-0.8413337469100952,-0.3150073289871216
1761469483342439200,6.485439208984375,-0.29886865615844727,-0.9759560227394104,-0.5031234622001648
1761469483352393200,6.495393310546875,-0.2616979479789734,-0.9394758939743042,-0.5316344499588013
1761469483362348300,6.505348388671875,-0.1920352727174759,-0.6486048698425293,-0.3260735869407654
1761469483372303400,6.515303466796875,-0.09389203786849976,-0.16992858052253723,-0.035419296473264694
1761469483382258200,6.525258056640625,-0.06004592776298523,0.1656012237071991,0.08253210783004761
1761469483392213000,6.535212890625,-0.11260173469781876,0.04557763412594795,0.0365825891494751
1761469483402168300,6.545168212890625,-0.2153286337852478,-0.48910972476005554,-0.10435748845338821
1761469483412122400,6.555122314453125,-0.30814576148986816,-0.8983351588249207,-0.3329692482948303
1761469483422077200,6.5650771484375,-0.29637619853019714,-0.9954611659049988,-0.5874556303024292
1761469483432032000,6.575031982421875,-0.23436874151229858,-0.8290694952011108,-0.8301652073860168
1761469483441987300,6.5849873046875,-0.19351372122764587,-0.6285486817359924,-1.1490298509597778
1761469483451942100,6.594942138671875,-0.05274972692131996,-0.35678356885910034,-1.3912540674209595
1761469483461896200,6.604896240234375,0.20685388147830963,0.11750862747430801,-1.3679401874542236
1761469483471851000,6.61485107421875,0.46708258986473083,0.6623448729515076,-1.1851943731307983
1761469483481806300,6.624806396484375,0.7422508001327515,1.1170101165771484,-0.9166524410247803
1761469483491761200,6.63476123046875,0.9730826020240784,1.3710803985595703,-0.6476386189460754
1761469483501716200,6.64471630859375,1.1256295442581177,1.3668185472488403,-0.44807860255241394
1761469483511670000,6.654669921875,1.2396022081375122,1.0115070343017578,-0.36453041434288025
1761469483521625300,6.664625244140625,1.2252240180969238,0.393200159072876,-0.4896196126937866
1761469483531580200,6.674580078125,0.99651700258255,-0.30860602855682373,-0.8746972680091858
1761469483541535200,6.68453515625,0.6051154136657715,-0.7373225092887878,-1.4604384899139404
1761469483551490300,6.694490234375,0.18309178948402405,-0.7709559798240662,-2.088782787322998
1761469483561445000,6.704445068359375,-0.06406766176223755,-0.4764961302280426,-2.6899497509002686
1761469483571399200,6.714399169921875,-0.11864463239908218,-0.021855972707271576,-3.188551425933838
1761469483581354200,6.724354248046875,-0.03082370199263096,0.3943612277507782,-3.4137470722198486
1761469483591309300,6.734309326171875,0.17682799696922302,0.6805216073989868,-3.161135673522949
1761469483601264000,6.74426416015625,0.41040560603141785,0.7223641276359558,-2.3406271934509277
1761469483611219200,6.75421923828125,0.6210574507713318,0.3536685109138489,-1.1489033699035645
1761469483621173200,6.76417333984375,0.7895128130912781,-0.3637913465499878,-0.023666128516197205
1761469483631128300,6.77412841796875,0.8278935551643372,-1.1851868629455566,0.7820002436637878
1761469483641083100,6.784083251953125,0.7577935457229614,-1.6519891023635864,1.2421693801879883
1761469483651038200,6.7940380859375,0.6811187267303467,-1.7406893968582153,1.3794556856155396
1761469483660993000,6.803992919921875,0.6127577424049377,-1.5128464698791504,1.2530384063720703
1761469483670947300,6.813947265625,0.47887730598449707,-1.0765581130981445,0.9278718829154968
1761469483680902100,6.823902099609375,0.2784890830516815,-0.5929844975471497,0.3570730686187744
1761469483690857200,6.833857177734375,0.07483772188425064,-0.12997782230377197,-0.3362633287906647
1761469483700812000,6.84381201171875,-0.06679104268550873,0.31114470958709717,-0.939179003238678
1761469483710767400,6.853767333984375,-0.15875974297523499,0.693801760673523,-1.2679526805877686
1761469483720721200,6.86372119140625,-0.24701955914497375,0.9183786511421204,-1.3881279230117798
1761469483730676200,6.87367626953125,-0.36680713295936584,0.9864560961723328,-1.3292800188064575
1761469483740631000,6.883631103515625,-0.5180032849311829,0.847093939781189,-1.0945721864700317
1761469483750586400,6.89358642578125,-0.6186115145683289,0.505757212638855,-0.8198263645172119
1761469483760541200,6.903541259765625,-0.6305376887321472,0.15101513266563416,-0.5791916251182556
1761469483770496300,6.913496337890625,-0.5907998085021973,-0.1459295153617859,-0.37481266260147095
1761469483780450000,6.923449951171875,-0.49183547496795654,-0.3511596620082855,-0.2147609442472458
1761469483790405400,6.9334052734375,-0.3523752689361572,-0.42298653721809387,-0.12623529136180878
1761469483800360200,6.943360107421875,-0.22940142452716827,-0.30603355169296265,-0.11469101160764694
1761469483810315000,6.95331494140625,-0.11683635413646698,-0.0397932305932045,-0.1945410817861557
1761469483820270300,6.963270263671875,-0.012292105704545975,0.23357944190502167,-0.38316240906715393
1761469483830224400,6.973224365234375,0.02124524489045143,0.4794963300228119,-0.6509194374084473
1761469483840179200,6.98317919921875,-0.021991441026329994,0.6476912498474121,-0.9404916167259216
1761469483850134000,6.993134033203125,-0.07316909730434418,0.6836000084877014,-1.1242741346359253
1761469483860089300,7.00308935546875,-0.10542796552181244,0.5967580676078796,-1.1466652154922485
1761469483870044200,7.013044189453125,-0.1285220980644226,0.3714753985404968,-1.0777255296707153
1761469483879999200,7.022999267578125,-0.03836078196763992,0.07513134181499481,-0.9098539352416992
1761469483889953000,7.032953125,0.2580501437187195,-0.223333477973938,-0.5675410628318787
1761469483899908400,7.042908447265625,0.5791597366333008,-0.5380035638809204,-0.17664815485477448
1761469483909863200,7.05286328125,0.8727241158485413,-0.8803301453590393,-0.0033343485556542873
1761469483919818200,7.062818359375,1.1471034288406372,-1.0348355770111084,-0.08100863546133041
1761469483929773000,7.07277294921875,1.2362908124923706,-1.087767481803894,-0.413802832365036
1761469483939727400,7.082727294921875,1.1323226690292358,-0.8578400611877441,-0.7871963977813721
1761469483949682200,7.09268212890625,0.8657299280166626,-0.3732234835624695,-0.909541666507721
1761469483959637200,7.10263720703125,0.47353631258010864,0.38731831312179565,-0.556338369846344
1761469483969592000,7.112592041015625,0.09357248246669769,1.3319917917251587,0.12849865853786469
1761469483979547100,7.122547119140625,-0.09725871682167053,1.7920705080032349,0.6108216047286987
1761469483989501200,7.132501220703125,0.03095930442214012,1.704965353012085,0.8200406432151794
1761469483999456300,7.142456298828125,0.2459898591041565,0.8806093335151672,0.6042388677597046
1761469484009411000,7.1524111328125,0.4791089594364166,-0.04690569266676903,0.12323518842458725
1761469484019366100,7.1623662109375,0.7906734943389893,-0.49239182472229004,-0.4977559447288513
1761469484029321200,7.1723212890625,1.0889723300933838,-0.5346074104309082,-1.0720335245132446
1761469484039275300,7.182275146484375,1.3132145404815674,-0.4781361520290375,-1.4978559017181396
1761469484049230000,7.19222998046875,1.4351119995117188,-0.3633987605571747,-1.7935339212417603
1761469484059185200,7.20218505859375,1.3879148960113525,-0.24218444526195526,-2.052248001098633
1761469484069140200,7.21214013671875,1.2575786113739014,-0.26707780361175537,-2.3783650398254395
1761469484079095000,7.222094970703125,1.1226279735565186,-0.4633285403251648,-2.809178113937378
1761469484089050400,7.23205029296875,0.9960744976997375,-0.3803212642669678,-3.1125245094299316
1761469484099004200,7.242004150390625,0.7521928548812866,0.03004736267030239,-3.105865955352783
1761469484108959200,7.251959228515625,0.7006275057792664,0.7208106517791748,-2.727728843688965
1761469484118914000,7.2619140625,0.8785048127174377,1.2516919374465942,-2.10642671585083
1761469484128869400,7.271869384765625,0.9760905504226685,1.5053379535675049,-1.5248620510101318
1761469484138824200,7.28182421875,0.9008604884147644,1.7576290369033813,-1.200485348701477
1761469484148778200,7.2917783203125,0.7575579881668091,1.8735265731811523,-1.091099739074707
1761469484158733000,7.301733154296875,0.6197503209114075,1.8815184831619263,-0.9830372929573059
1761469484168688400,7.3116884765625,0.4146336615085602,1.7106266021728516,-0.8428388237953186
1761469484178643200,7.321643310546875,0.14438967406749725,1.3558993339538574,-0.5988815426826477
1761469484188598300,7.331598388671875,-0.09738900512456894,0.9310234785079956,-0.23877982795238495
1761469484198552600,7.341552490234375,-0.2717387080192566,0.45219460129737854,0.16075211763381958
1761469484208507600,7.351507568359375,-0.4160986840724945,-0.015039682388305664,0.5584331154823303
1761469484218462500,7.36146240234375,-0.473661333322525,-0.34904375672340393,0.8826234340667725
1761469484228417500,7.37141748046875,-0.38499975204467773,-0.5262371301651001,1.0929770469665527
1761469484238372600,7.38137255859375,-0.21739131212234497,-0.5263305902481079,1.208184003829956
1761469484248327400,7.391327392578125,-0.08582194894552231,-0.18361569941043854,1.1592556238174438
1761469484258281500,7.401281494140625,0.06436115503311157,-0.1096368134021759,0.9933960437774658
1761469484268236500,7.411236572265625,0.18208535015583038,-0.17669527232646942,0.7140099406242371
1761469484278191600,7.421191650390625,0.18439510464668274,-0.06438469886779785,0.35925528407096863
1761469484288146400,7.431146484375,0.13444913923740387,0.09917617589235306,0.06853798776865005
1761469484298101800,7.441101806640625,0.11037257313728333,0.011491064913570881,-0.14661960303783417
1761469484308055600,7.4510556640625,0.013191604055464268,0.06315602362155914,-0.23451951146125793
1761469484318010600,7.4610107421875,-0.08141452819108963,0.14571641385555267,-0.16726776957511902
1761469484327965400,7.47096533203125,-0.21235391497612,0.3682416081428528,-0.07283616065979004
1761469484337920800,7.480920654296875,-0.3549425005912781,0.5984582901000977,0.11094912141561508
1761469484347875600,7.49087548828125,-0.42756256461143494,0.6479660272598267,0.3645991086959839
1761469484357830400,7.500830322265625,-0.45048224925994873,0.8007035851478577,0.5603204369544983
1761469484367784400,7.510784423828125,-0.5098905563354492,0.9128201603889465,0.6941105127334595
1761469484377739800,7.52073974609375,-0.6415234208106995,0.8332436084747314,0.7790358066558838
1761469484387694600,7.530694580078125,-0.8325707912445068,0.6557804346084595,0.791398823261261
1761469484397649400,7.5406494140625,-1.0355039834976196,0.43695491552352905,0.699786901473999
1761469484407604700,7.550604736328125,-1.2327784299850464,0.18247629702091217,0.514470100402832
1761469484417558800,7.560558837890625,-1.340764045715332,-0.18564818799495697,0.3215576708316803
1761469484427513600,7.570513671875,-1.1723114252090454,-0.4469674527645111,0.08230606466531754
1761469484437468400,7.580468505859375,-0.7483991384506226,-0.28245893120765686,-0.06428444385528564
1761469484447423700,7.590423828125,-0.2996293604373932,0.17881569266319275,-0.10556352883577347
1761469484457378600,7.600378662109375,-0.07216477394104004,0.2954365909099579,-0.17618389427661896
1761469484467332600,7.61033251953125,-0.04920122027397156,-0.3625054359436035,-0.2922835052013397
1761469484477287400,7.620287353515625,-0.04933837801218033,-1.328444004058838,-0.3829396367073059
1761469484487242500,7.630242431640625,0.0926697626709938,-1.796700358390808,-0.362751305103302
1761469484497197600,7.640197509765625,0.3299672603607178,-1.8339091539382935,-0.336418479681015
1761469484507152600,7.650152587890625,0.5132119059562683,-1.108386516571045,-0.36349228024482727
1761469484517106400,7.6601064453125,0.5287354588508606,-0.6164307594299316,-0.426013708114624
1761469484527061500,7.6700615234375,0.3007945716381073,-0.18812024593353271,-0.6202937364578247
1761469484537016600,7.6800166015625,0.04559209942817688,-0.03804018720984459,-0.8798153400421143
1761469484546971600,7.6899716796875,-0.03002607263624668,-0.06112740561366081,-1.1490811109542847
1761469484556926500,7.699926513671875,0.006573216523975134,-0.3774299919605255,-1.6334540843963623
1761469484566881500,7.709881591796875,-0.1071074977517128,-0.9357675313949585,-2.41878342628479
1761469484576835600,7.719835693359375,-0.1002993956208229,-1.0798766613006592,-3.0176401138305664
1761469484586790700,7.729790771484375,0.03650998696684837,-1.0968436002731323,-3.286895513534546
1761469484596745500,7.739745361328125,0.1760692149400711,-0.8580803275108337,-3.070988178253174
1761469484606700500,7.749700439453125,0.23805734515190125,-0.6729001998901367,-2.427915573120117
1761469484616655600,7.759655517578125,0.20734204351902008,-0.5612179040908813,-1.5389115810394287
1761469484626609700,7.769609619140625,0.14804500341415405,-0.45977655053138733,-0.6517437100410461
1761469484636564500,7.779564453125,0.1618036925792694,-0.43607842922210693,0.012030275538563728
1761469484646519600,7.78951953125,0.20658241212368011,-0.5016615390777588,0.33708280324935913
1761469484656474600,7.799474609375,0.21130606532096863,-0.6731264591217041,0.36896857619285583
1761469484666429400,7.809429443359375,0.2669769525527954,-0.8843899965286255,0.18697454035282135
1761469484676383500,7.819383544921875,0.43934178352355957,-0.9752930402755737,-0.15667763352394104
1761469484686338600,7.829338623046875,0.6218507289886475,-0.8643288016319275,-0.6427512168884277
1761469484696293600,7.839293701171875,0.7949463129043579,-0.6513190269470215,-1.1717110872268677
1761469484706248400,7.84924853515625,0.9035556316375732,-0.4242398142814636,-1.6043494939804077
1761469484716203800,7.859203857421875,0.9126498103141785,-0.21650898456573486,-1.8437026739120483
1761469484726157600,7.869157470703125,0.8435545563697815,0.026027852669358253,-1.8629323244094849
1761469484736112600,7.879112548828125,0.6940391063690186,0.4295867681503296,-1.6013281345367432
1761469484746067500,7.8890673828125,0.3854707181453705,0.9513788223266602,-1.0869174003601074
1761469484756022800,7.899022705078125,-0.15001802146434784,1.358390212059021,-0.5319180488586426
1761469484765977600,7.9089775390625,-0.7565175294876099,1.2831286191940308,-0.17002105712890625
1761469484775932700,7.9189326171875,-1.134718656539917,0.8570410013198853,0.0869380310177803
1761469484785886500,7.928886474609375,-1.3181027173995972,0.39000552892684937,0.3016972541809082
1761469484795841800,7.938841796875,-1.3506799936294556,0.04647613689303398,0.46330106258392334
1761469484805796600,7.948796630859375,-1.2411043643951416,-0.040014687925577164,0.5521412491798401
1761469484815751700,7.958751708984375,-1.0071840286254883,0.041266851127147675,0.567100465297699
1761469484825706500,7.96870654296875,-0.7325091361999512,0.23513561487197876,0.5449035167694092
1761469484835660800,7.978660888671875,-0.5301786661148071,0.5096643567085266,0.5026193857192993
1761469484845615600,7.98861572265625,-0.4416934847831726,0.7417392730712891,0.47115984559059143
1761469484855570400,7.9985703125,-0.4113222658634186,0.8309471607208252,0.4695529043674469
1761469484866147600,8.009147705078124,-0.4327583611011505,0.8761205077171326,0.5078705549240112
1761469484876101400,8.019101318359375,-0.5106135010719299,0.9453907012939453,0.5572660565376282
1761469484886056700,8.029056640625,-0.6357092261314392,1.193221926689148,0.6881716251373291
1761469484896011500,8.039011474609374,-0.8196031451225281,1.325992465019226,0.841426432132721
1761469484905966600,8.048966552734376,-1.0760788917541504,1.207802176475525,0.925199031829834
1761469484915921700,8.058921630859375,-1.2700212001800537,1.1080777645111084,0.9830266237258911
1761469484925875700,8.068875732421875,-1.3346433639526367,1.040468454360962,1.0612599849700928
1761469484935830500,8.07883056640625,-1.244590163230896,0.637570858001709,0.9976262450218201
1761469484945785600,8.08878564453125,-0.867504894733429,0.3443071246147156,0.9585044384002686
1761469484955740700,8.09874072265625,-0.36108535528182983,0.05647880584001541,0.9233003854751587
1761469484965695700,8.10869580078125,0.1870090216398239,-0.2746904194355011,0.9262334704399109
1761469484975649500,8.1186494140625,0.6252401471138,-0.7531917691230774,0.800998866558075
1761469484985604600,8.1286044921875,0.8466696739196777,-1.6324235200881958,0.49728381633758545
1761469484995559700,8.1385595703125,0.7408433556556702,-2.4677398204803467,0.242641419172287
1761469485005514500,8.148514404296876,0.4124862551689148,-2.5402615070343018,0.15301139652729034
