time,seconds_elapsed,z,y,x
1761468624299449600,0.06444970703125,0.2464782678335905,0.01227832068428397,-0.13373013279289006
1761468624309405400,0.074405517578125,0.05354103605151176,-0.07320800568237901,-0.30789361745677885
1761468624319360800,0.08436083984375,-0.23416356066167354,-0.15438991285338996,-0.5005806373374536
1761468624329316600,0.094316650390625,-0.5159107102751732,-0.1172068680152297,-0.6659499536383897
1761468624339272700,0.104272705078125,-0.7219827334403991,-0.034906916599720714,-0.6732778853736817
1761468624349227800,0.114227783203125,-0.7466337750941514,-0.04204772826507688,-0.5248437756521627
1761468624359183600,0.12418359375,-0.5592974320590496,-0.04705298920646309,-0.33991350737810133
1761468624369138700,0.134138671875,-0.22300562230944632,-0.031558482954651114,-0.24503132042828946
1761468624379094500,0.144094482421875,0.1422013162791729,-0.005930412962287664,-0.2310587630467489
1761468624389050600,0.154050537109375,0.3480056284189224,-0.05321487283706665,-0.21470559413898735
1761468624399005700,0.164005615234375,0.467249262958765,-0.13290361884087323,-0.2334235924819484
1761468624408961500,0.17396142578125,0.44380642805099485,-0.20188757708743213,-0.3463017836431041
1761468624418917600,0.183917724609375,0.23390637103021145,-0.19663155625537038,-0.4078765981443226
1761468624428872400,0.19387255859375,-0.04949731361865997,-0.1381521870188415,-0.3785025465566665
1761468624438828500,0.20382861328125,-0.2450666474699974,-0.07021817621663212,-0.2998183744855225
1761468624448784400,0.213784423828125,-0.38282793547511096,-0.06884674173295498,-0.21185539233963935
1761468624458739200,0.2237392578125,-0.4240718000113964,-0.01325549515336752,-0.1689186062803492
1761468624468695300,0.2336953125,-0.33376024544537064,0.07273892686590552,-0.14005093331225216
1761468624478651400,0.2436513671875,-0.17425825027525424,0.10746098841801285,-0.04730769461989402
1761468624488606500,0.2536064453125,0.00434007503092289,0.11956950549334287,0.05797094479035586
1761468624498562300,0.263562255859375,0.14738310283124445,0.11060717748925089,0.10541910732686519
1761468624508518400,0.273518310546875,0.2242354563653469,0.09359539854228496,0.08197656468003987
1761468624518473500,0.283473388671875,0.19859715723991392,0.002778086411207914,0.006565861321613192
1761468624528429600,0.2934296875,0.14430150342881679,-0.08957038080990314,-0.12106854841206222
1761468624538385400,0.303385498046875,0.14666121829748152,-0.14147051778659223,-0.23457075322307644
1761468624548340200,0.31334033203125,0.1505307532072067,-0.16004019370004532,-0.26932379443533716
1761468624558296300,0.32329638671875,0.16276830348968505,-0.2334437219545245,-0.24926398956198245
1761468624568251400,0.33325146484375,0.19676760372519492,-0.2548870536081493,-0.23833770454116165
1761468624578207500,0.34320751953125,0.19328443778455257,-0.28140827304795385,-0.25114425035063176
1761468624588163300,0.353163330078125,0.12456921347677707,-0.2929500961512327,-0.306851524525322
1761468624598118400,0.363118408203125,0.09891220965087413,-0.24988807627707718,-0.33105102301929146
1761468624608074500,0.373074462890625,0.12821663006842135,-0.20589578981548545,-0.31197504155151545
1761468624618030300,0.3830302734375,0.15112170483767987,-0.19359028886333107,-0.20719028660543262
1761468624627985400,0.3929853515625,0.1496948869049549,-0.1414741710484028,-0.12493863131105899
1761468624637941200,0.402941162109375,0.10797522155046463,-0.0763471804909408,-0.09502828088961542
1761468624647897600,0.412897705078125,-0.018741525349020956,-0.058644642800837754,-0.10204122839160262
1761468624657852400,0.422852294921875,-0.1928606594145298,-0.0609942746669054,-0.1575703695204109
1761468624667808300,0.432808349609375,-0.279967280459404,-0.0527365878008306,-0.20896949817240237
1761468624677764400,0.442764404296875,-0.2751981663614511,-0.03034808425158262,-0.18374036436975003
1761468624687719400,0.452719482421875,-0.20054361513257027,-0.057111149623245,-0.1762022239498794
1761468624697675500,0.462675537109375,-0.11312427487671374,-0.08138751274570823,-0.17352124123759566
1761468624707631400,0.47263134765625,-0.03968319109082222,-0.08436141398996114,-0.19139533610232173
1761468624717586200,0.482586181640625,0.026859949874877928,-0.09507233922705054,-0.18786248580105602
1761468624727542500,0.49254248046875,0.07634908018708228,-0.09743906835839151,-0.19478760888911784
1761468624737498400,0.502498291015625,0.14764964481294154,-0.08032455968931317,-0.1884220193799585
1761468624747453400,0.512453369140625,0.18690087422728538,-0.10224500733539461,-0.17707601110972462
1761468624757409300,0.5224091796875,0.14478724111914634,-0.10058058125451207,-0.1534760859441012
1761468624767365400,0.532365478515625,0.09683657242059707,-0.07542012877389788,-0.1844255701549351
1761468624777320400,0.542320556640625,0.057387190085649485,-0.028909868142008778,-0.1726607519507408
1761468624787276500,0.552276611328125,0.030255437532067296,0.012476035213470458,-0.11672061886824667
1761468624797232400,0.562232421875,-0.02872515922486782,0.005196399599313736,-0.0903330357454717
1761468624807187200,0.572187255859375,-0.07567512644827365,0.01726896857842803,-0.08931267972178757
1761468624817143600,0.5821435546875,-0.07078676988482475,-0.006865647985786199,-0.11823650332391261
1761468624827099400,0.592099365234375,-0.059063598865270614,-0.03970554905310273,-0.16945815651714802
1761468624837054500,0.602054443359375,0.013288520640134811,-0.061575581686198706,-0.198253385303542
1761468624847010300,0.61201025390625,0.07574059289991855,-0.07622311571985482,-0.20261516070961952
1761468624856966400,0.62196630859375,0.1000070191502571,-0.09169161074757576,-0.20546507024802266
1761468624866921500,0.63192138671875,0.08325812892317772,-0.08547609723359346,-0.22037658898010848
1761468624876877300,0.641877197265625,0.018858429726958274,-0.070486033372581,-0.21979155563376843
1761468624886832400,0.651832275390625,-0.01689969687461853,-0.04121127744093537,-0.22232728465646504
1761468624896788500,0.66178857421875,-0.044588498789072034,-0.004722060085833073,-0.18422559060342608
1761468624906744600,0.67174462890625,-0.004686111989617347,-0.001487315948307514,-0.13868841278739272
1761468624916699400,0.681699462890625,0.053182724133133887,0.045158115370571614,-0.06767061062566936
1761468624926655200,0.6916552734375,0.04345101919174194,0.0624113018579781,-0.02413381284661591
1761468624936611300,0.701611328125,-0.011968670213222503,0.08026786106601357,0.03607194179110229
1761468624946566400,0.71156640625,-0.04459843566119671,0.07260711717978119,0.039137832167744635
1761468624956522500,0.7215224609375,-0.06791969001591205,0.08079948372468351,0.006132365275174379
1761468624966478300,0.731478271484375,-0.09647592241466045,0.06784472508355975,-0.03678052845187485
1761468624976433200,0.74143310546875,-0.0850321528583765,0.005659340935945511,-0.08111680604554712
1761468624986389500,0.751389404296875,-0.0583715249478817,-0.003932955534756183,-0.12249920226968825
1761468624996345300,0.761345458984375,-0.024790157863497732,-0.0083393738001585,-0.13270159346275032
1761468625006300400,0.771300537109375,-0.08251227899193764,-0.007479249839484691,-0.09188150729648768
1761468625016256300,0.78125634765625,-0.10110650482475757,0.037654315611720085,-0.08183540264368057
1761468625026212400,0.79121240234375,-0.09479074580669403,0.02074453573450446,-0.09333623614944517
1761468625036167400,0.80116748046875,-0.11297522179484366,0.013053835101425647,-0.11882241345308721
1761468625046123500,0.81112353515625,-0.09231880273520945,0.013721359099447727,-0.12315817763507365
1761468625056079400,0.821079345703125,-0.05222469275593757,0.005520224726200103,-0.09120777275338768
1761468625066034400,0.831034423828125,0.01919803694486618,-0.020595044261217117,-0.09470138702280818
1761468625075990500,0.840990478515625,0.13014029160737992,-0.027861674263328313,-0.0656800943955779
1761468625085946400,0.8509462890625,0.24761808551847933,-0.07226721770092845,-0.013065087147802114
1761468625095901400,0.8609013671875,0.322657252150774,-0.07500351079702376,0.03700213531330228
1761468625105857300,0.870857177734375,0.3493506132870912,-0.09650514850914478,0.05502952104359865
1761468625115813400,0.8808134765625,0.3155845372855663,-0.09224442232474685,0.019977277689054607
1761468625125768400,0.8907685546875,0.22047405800521372,-0.10686126895919441,-0.03808488904871046
1761468625135724300,0.900724365234375,0.07911328420341014,-0.10895181149765848,-0.08702939109019935
1761468625145680400,0.910680419921875,-0.06389993298053741,-0.06932531903013586,-0.11145612246878445
1761468625155635500,0.920635498046875,-0.19555530532598495,-0.036033436411619185,-0.15724676358923315
1761468625165591600,0.930591552734375,-0.24382979915142058,-0.013672989913076162,-0.15394194989018142
1761468625175547400,0.94054736328125,-0.20720482658743858,-0.02029006996527314,-0.12678995826616882
1761468625185502200,0.950502197265625,-0.12465981436967849,-0.04964329796060919,-0.08223901500850915
1761468625195458300,0.960458251953125,-0.058605918225646016,-0.0740424106799066,-0.05209573261402547
1761468625205413400,0.970413330078125,-0.033898762470483776,-0.07384878780394792,-0.025217443364858625
1761468625215369500,0.980369384765625,-0.01675765805542469,-0.05782587376385927,0.0029151567943394184
1761468625225325300,0.9903251953125,-0.008044190245866775,-0.0572873829729855,0.011790025710687041
1761468625235280400,1.0002802734375,-0.0022726211071014404,-0.06886018573641776,0.016047390894219277
1761468625245236500,1.010236572265625,0.02357201424539089,-0.09880144275277852,0.015299641266837714
1761468625255192300,1.0201923828125,0.03831833247840404,-0.12064750998839735,-0.03254866303578019
1761468625265147400,1.0301474609375,0.007140519404411316,-0.13613120258525013,-0.09566292553134262
1761468625275103200,1.040103271484375,-0.0106049806445837,-0.15344401030540467,-0.11547003428526222
1761468625285059300,1.050059326171875,0.027442133677005768,-0.1173905540190637,-0.07441745453737676
1761468625295014400,1.060014404296875,0.046288872966170305,-0.12180442493855953,-0.05273797604031861
1761468625304970500,1.069970458984375,0.01685176607966423,-0.13966273771226406,-0.06302315014600754
1761468625314926300,1.07992626953125,-0.027819150295853613,-0.11980083003118633,-0.12069478319622576
1761468625324881400,1.08988134765625,-0.040188218003511425,-0.12250862768515944,-0.14420344988182185
1761468625334837500,1.09983740234375,0.003571428745985031,-0.12755685098543762,-0.12064692546650767
1761468625344793300,1.10979345703125,0.051938861551880836,-0.12476838931068777,-0.07467274447269737
1761468625354748400,1.11974853515625,0.06240764859616756,-0.12469532407447695,-0.052766544547677034
1761468625364704300,1.129704345703125,0.04206920944452285,-0.10618000869676471,-0.05499415746927261
1761468625374660600,1.13966064453125,0.0015378770917654036,-0.0708607119038701,-0.07783953794054686
1761468625384615400,1.149615478515625,-0.04354980339109897,-0.07167875028848647,-0.08719473771974444
1761468625394571300,1.1595712890625,-0.13174188158512115,-0.08965265226587653,-0.12001958734840154
1761468625404527400,1.16952734375,-0.14189327324330805,-0.08658435073643922,-0.15339673709757626
1761468625414482400,1.179482421875,-0.09471300439536572,-0.07849690587073564,-0.1504098302412778
1761468625424438500,1.1894384765625,0.010174188011884688,-0.08198021794185043,-0.09602160277590155
1761468625434395000,1.199394775390625,0.12189619487524032,-0.08728343891650438,-0.06824490338228642
1761468625444349700,1.209349609375,0.14846505284905434,-0.08876973195150493,-0.08054638574644923
1761468625454305800,1.219305908203125,0.11896715568602084,-0.12960866894870995,-0.10130838407240808
1761468625464262000,1.229261962890625,0.0273012639015913,-0.14575433258563278,-0.16710823239013553
1761468625474216700,1.239216796875,-0.029898294657468794,-0.10442059780880808,-0.17166940282583235
1761468625484172800,1.2491728515625,-0.054203299352526664,-0.11974705401733517,-0.14476656365729867
1761468625494127900,1.2591279296875,-0.06702712509036064,-0.10796046237275003,-0.15345365491658447
1761468625504084000,1.269083984375,-0.09205050718784331,-0.08359042961746453,-0.14456095808260142
1761468625514039800,1.279039794921875,-0.11654898862838745,-0.07037219773456455,-0.15785649298541246
1761468625523994600,1.28899462890625,-0.09351298095583915,-0.044176556987315416,-0.1687769693199545
1761468625533950700,1.29895068359375,-0.08331424302458762,-0.016456337021291255,-0.14851846353672443
1761468625543906800,1.30890673828125,-0.09391045584082602,-0.011095102249085902,-0.1540559316586703
1761468625553862000,1.31886181640625,-0.10872282504737377,0.01567307768911123,-0.13898001614511013
1761468625563817700,1.328817626953125,-0.07664075661003589,0.02601400057002902,-0.14682356925234197
1761468625573773800,1.33877392578125,-0.031523850032687185,0.037399610198289156,-0.1489564165625721
1761468625583729000,1.34872900390625,0.03220598707795143,0.006941051309555768,-0.13599836998581885
1761468625593684700,1.358684814453125,0.13039163601994513,-0.02125233912616968,-0.11378887626528739
1761468625603640800,1.368640869140625,0.1941366706997156,-0.04428878519013524,-0.12692322925701738
1761468625613595600,1.378595703125,0.1922013187229633,-0.08392389935553074,-0.16641506249420343
1761468625623551700,1.3885517578125,0.13952595959007738,-0.10744842119738458,-0.20807627565972506
1761468625633507800,1.3985078125,0.079921093454957,-0.08479892862439155,-0.21876075128130615
1761468625643462700,1.408462646484375,0.022932547298073768,-0.05212137851193547,-0.22613003794029354
1761468625653418800,1.418418701171875,-0.0029787235498428344,-0.06477116285711526,-0.20590390005670486
1761468625663374600,1.42837451171875,-0.01883680241703987,-0.047011195891350506,-0.1802109481345862
1761468625673330000,1.438329833984375,-0.00554302107989788,-0.055342532515525816,-0.18399097812995313
1761468625683285800,1.44828564453125,0.02171148107051849,-0.07350391988903283,-0.18686967537142335
1761468625693241900,1.458241943359375,0.08722703255414962,-0.09876973244026303,-0.17668262787796557
1761468625703196700,1.46819677734375,0.12466624411046505,-0.10865063659399747,-0.14793306486420332
1761468625713152800,1.47815283203125,0.1261316404879093,-0.13612784158438443,-0.1312467184793204
1761468625723108900,1.48810888671875,0.116359603536129,-0.1348779876537621,-0.13066438854672013
1761468625733063700,1.498063720703125,0.09241817145645619,-0.14270517414808273,-0.1589665000539273
1761468625743019800,1.508019775390625,0.11269289772212504,-0.17014993817359209,-0.1575314257495105
1761468625752975600,1.5179755859375,0.15921324135661125,-0.16910817403569817,-0.1594599826592952
1761468625762931000,1.527930908203125,0.2084586260408163,-0.19847806090489029,-0.12445567009970546
1761468625772886800,1.53788671875,0.19721827010214327,-0.22884587277024984,-0.09994944374412297
1761468625782843000,1.5478427734375,0.17828911322653293,-0.2481356796517968,-0.11469210871532559
1761468625792797700,1.557797607421875,0.15148352388739586,-0.2591336051367223,-0.16324498109072447
1761468625802753800,1.56775390625,0.18590835605859754,-0.2607704125583172,-0.14210055931843815
1761468625812708900,1.577708984375,0.22288170366883275,-0.33390739883109927,-0.11766352574154734
1761468625822664700,1.587664794921875,0.22659107958078384,-0.38825755930840966,-0.12567425210922956
1761468625832620800,1.597620849609375,0.20818916144967078,-0.4120011307284236,-0.12682466425336897
1761468625842576000,1.607575927734375,0.22719430617094039,-0.44649712843969463,-0.13206702188625932
1761468625852531700,1.61753173828125,0.24356501073539255,-0.4909735451564192,-0.1196142214179039
1761468625862487800,1.62748779296875,0.29173662870824335,-0.5159349679335952,-0.08950915214195847
1761468625872442600,1.637442626953125,0.31956162422299383,-0.5187798359706998,-0.047629035528749225
1761468625882398700,1.647398681640625,0.3120616238564253,-0.5471621731072664,-0.010818623395264147
1761468625892354800,1.657354736328125,0.2454752282708883,-0.5584358467936515,-0.031843583506345745
1761468625902309600,1.6673095703125,0.10449439369738102,-0.5623913064211606,-0.037332317115738985
1761468625912265700,1.677265625,-0.0012175590962171553,-0.5735267406806349,-0.04673362105898559
1761468625922221600,1.6872216796875,-0.05181669647693634,-0.6020384032852948,-0.07054251280017197
1761468625932177000,1.697177001953125,-0.029932196927070616,-0.6058094462566077,-0.05746741571500897
1761468625942132700,1.7071328125,0.047884617725014685,-0.6513038078442216,-0.056686348339915274
1761468625952088800,1.7170888671875,0.1414385152131319,-0.6875904883645475,-0.03529533139541745
1761468625962043600,1.727043701171875,0.1998784292221069,-0.7323778707265853,-0.006263225113227963
1761468625972000000,1.737,0.22749825755357742,-0.732361796374619,-0.03679126904159784
1761468625981955800,1.746955810546875,0.23791852928102014,-0.7272429920561612,-0.0793370830219239
1761468625991910700,1.75691064453125,0.20316694937348365,-0.7198818156383932,-0.08053571822196244
1761468626001866800,1.76686669921875,0.12567746697962284,-0.6938871042907238,-0.121960200022161
1761468626011822600,1.776822509765625,0.07999182060360908,-0.6659544106177985,-0.16609788630381225
1761468626021778000,1.78677783203125,0.09478022441267966,-0.6417194024190306,-0.17915880873315035
1761468626031733800,1.796733642578125,0.09930442383885384,-0.6373454251185059,-0.2204747155923396
1761468626041689900,1.80668994140625,0.14028525352478027,-0.6922608182631432,-0.25287768654711545
1761468626051645000,1.81664501953125,0.22692016540467738,-0.7771380728207529,-0.2322084080059081
1761468626061600800,1.826600830078125,0.3797036659747362,-0.8334061957485973,-0.16157821692228316
1761468626071556900,1.836556884765625,0.5315361494302749,-0.8901894285917281,-0.05828055872879922
1761468626081511700,1.84651171875,0.6482827064573764,-0.9511479012928903,0.07988149209693074
1761468626091467800,1.8564677734375,0.6591518909960985,-0.9834317759126424,0.18567293986752628
1761468626101423600,1.866423583984375,0.7352981420874595,-0.9833172096222639,0.2460024670153856
1761468626111378700,1.876378662109375,0.7950508922606706,-1.0203209523707628,0.3742161744743585
1761468626121334800,1.886334716796875,0.8673784618467092,-1.0567363738372921,0.5085398161809891
1761468626131290600,1.89629052734375,0.8931038547337055,-1.1111255511507392,0.6188759216438978
1761468626141246000,1.906245849609375,0.8791665147960186,-1.1366941460408269,0.6564330604914576
1761468626151201800,1.916201904296875,0.7945482034355401,-1.1705397170193492,0.6866841141093522
1761468626161156600,1.926156494140625,0.62321022452116,-1.2298572906456886,0.7033418189216405
1761468626171112700,1.93611279296875,0.4311766635805368,-1.2645581632792948,0.6908970556292683
1761468626181068500,1.946068603515625,0.2671644975095987,-1.2476960219360886,0.7166734480511396
1761468626191023900,1.95602392578125,0.13006722637116908,-1.2372183209329843,0.7636998415116221
1761468626200979700,1.965979736328125,0.06879647285044192,-1.1879312890641391,0.8581156895913183
1761468626210935800,1.975935791015625,0.01236789866387844,-1.1191447530858218,0.9573472673896699
1761468626220891000,1.985890869140625,-0.107096100628376,-1.0877775549195705,1.0229633566383272
1761468626230847000,1.995846923828125,-0.21963819170296192,-1.0811639819987118,1.0078164217151702
1761468626240802800,2.005802734375,-0.2864484591722488,-1.0679125784985721,0.9414092551540583
1761468626250757600,2.015757568359375,-0.32396190500855443,-1.0674639579482377,0.8757065105352551
1761468626260713700,2.025713623046875,-0.31291151868402955,-1.0708654369547963,0.7976396666448563
1761468626270669800,2.035669921875,-0.2592868960022926,-1.049284012004733,0.7036217318415642
1761468626280625000,2.045625,-0.19450433496832847,-1.0720372572131454,0.6126845927231014
1761468626290580700,2.055580810546875,-0.17894845391809938,-1.1355391307868063,0.5302979128722101
1761468626300536800,2.065536865234375,-0.14129764543771742,-1.1872747248515485,0.4082103601433337
1761468626310492000,2.075491943359375,-0.03839665841162204,-1.2213856687679887,0.34800942781120536
1761468626320447700,2.08544775390625,0.17240063970983027,-1.2361869320586323,0.3511084167398512
1761468626330403800,2.09540380859375,0.4061573731362819,-1.2514398846395314,0.4240696811195463
1761468626340358700,2.105358642578125,0.6442150186270476,-1.267296794462949,0.4963549459338188
1761468626350314800,2.115314697265625,0.8095476196467876,-1.2970941129639744,0.5463168813895434
1761468626360270800,2.125270751953125,0.9088228173911571,-1.327491004793346,0.5435808074891567
1761468626370225700,2.1352255859375,0.8994073387920856,-1.3500551571704447,0.5713575068827719
1761468626380181800,2.145181640625,0.8251146066129207,-1.3111939499869942,0.5204215387631207
1761468626390137600,2.1551376953125,0.7819920887231826,-1.2756409905686974,0.4016893608767539
1761468626400093000,2.165093017578125,0.8252250812500714,-1.291934245982766,0.3187061033722013
1761468626410048800,2.175048828125,0.8575298525273799,-1.3327271518811583,0.2701598068680614
1761468626420004900,2.1850048828125,0.7531780821710824,-1.367377901762724,0.24488734538033602
1761468626429959400,2.19495947265625,0.5326730445057153,-1.3759421703599393,0.15566563187763094
1761468626439915800,2.204915771484375,0.3063806556105613,-1.3571724418297408,0.013492957171052693
1761468626449871600,2.21487158203125,0.13987491915822028,-1.3775471213385462,-0.1314480132050812
1761468626459826400,2.224826416015625,-0.0009387421548366546,-1.4582372994698583,-0.2644784732960164
1761468626469782500,2.234782470703125,-0.12675240273475646,-1.5298329015195369,-0.3969692735522985
1761468626479738400,2.24473828125,-0.24143209035992622,-1.5949237978503108,-0.5498707014136016
1761468626489693700,2.254693603515625,-0.3860685248315334,-1.6220352382682264,-0.6756226949341595
1761468626499649500,2.2646494140625,-0.5631494313120842,-1.6202373950660227,-0.7691643174625933
1761468626509605600,2.274605712890625,-0.747334032317996,-1.5646774204075335,-0.8224868884578347
1761468626519560400,2.284560546875,-0.8344482521474361,-1.4936958586029707,-0.813718767851591
1761468626529516500,2.2945166015625,-0.8735077583819627,-1.4078048969581722,-0.7695577006943524
1761468626539472600,2.30447265625,-0.9491559968233108,-1.3411531810514628,-0.7478238616615533
1761468626549427500,2.314427490234375,-1.0208996290415524,-1.2521303511217237,-0.689522479340434
1761468626559383600,2.324383544921875,-1.1323825664520264,-1.182457533828169,-0.6553812864162027
1761468626569339400,2.33433935546875,-1.2407500021904707,-1.0948968854054808,-0.5896195050865412
1761468626579294500,2.34429443359375,-1.3177169220149516,-0.9633531567409634,-0.4134016451761126
1761468626589250600,2.35425048828125,-1.2742220636814832,-0.8668724120207131,-0.2490374507971108
1761468626599205400,2.364205322265625,-1.2265145560890436,-0.8756441858887672,-0.1660994937390089
1761468626609161700,2.37416162109375,-1.2179933959811926,-0.8940773759409785,-0.23662848947048185
1761468626619117600,2.38411767578125,-1.2695312755167483,-0.9540290096871554,-0.3796759011849761
1761468626629072600,2.39407275390625,-1.4442483754754065,-1.015572004278004,-0.529553451180458
1761468626639028500,2.404028564453125,-1.5521020164728163,-0.951338455428928,-0.7097517590291798
1761468626648984600,2.413984619140625,-1.6382874310195445,-0.8545198570564388,-0.774702077845484
1761468626658939600,2.423939697265625,-1.6697031445026396,-0.743356068597734,-0.781304983241856
1761468626668895500,2.4338955078125,-1.6292489690393208,-0.5878884435102343,-0.7792549188442528
1761468626678851600,2.4438515625,-1.4600433259785175,-0.4350238405279815,-0.7585057069346308
1761468626688806700,2.453806640625,-1.2373001539975403,-0.2307446921288967,-0.6912946035794914
1761468626698762800,2.4637626953125,-0.992095559361577,-0.046918695302307606,-0.5594295340061187
1761468626708718600,2.473718505859375,-0.7681143700182438,0.1729160418860614,-0.4608325277842581
1761468626718673400,2.48367333984375,-0.5540355660080909,0.45067295281961556,-0.41189153287410735
1761468626728629500,2.49362939453125,-0.36742403011620045,0.7157458848774433,-0.3191631264247
1761468626738585600,2.503585693359375,-0.1613590212136507,0.9323644364982843,-0.26032814868353304
1761468626748540700,2.513540771484375,0.038705870491266246,1.0916321845211088,-0.19594540062211452
1761468626758496500,2.52349658203125,0.20576748726069927,1.1802518404774367,-0.24298655326031146
1761468626768452600,2.53345263671875,0.43813364311158653,1.2142054018750785,-0.3631143502235412
1761468626778407700,2.54340771484375,0.7103203526973724,1.190791208539903,-0.5163173913799226
1761468626788363500,2.553363525390625,0.9877747735530138,1.1375628916993736,-0.6442714980546385
1761468626798319600,2.563319580078125,1.2623475014925003,1.0877242172971366,-0.7377491885013878
1761468626808274400,2.5732744140625,1.4969827713191508,1.0373520205400883,-0.7774193739801645
1761468626818230500,2.58323046875,1.5604676937580109,0.9715997376911342,-0.8345714401356875
1761468626828186600,2.5931865234375,1.5483593228131531,0.9480600182801484,-0.8853902846816927
1761468626838141400,2.603141357421875,1.4779244351059198,0.9095579997979104,-0.8708656463753431
1761468626848097500,2.61309765625,1.318094523155689,0.87008129106462,-0.854616595429182
1761468626858053400,2.623053466796875,1.1507371383100748,0.8474575174547732,-0.8376639993235468
1761468626868008700,2.6330087890625,1.0449147108793257,0.8163025007344782,-0.8002000917173921
1761468626877964500,2.642964599609375,1.0554916344732046,0.7685881250098348,-0.7548680810846388
1761468626887920600,2.652920654296875,1.142858952280879,0.6887032719120383,-0.6744518975891173
1761468626897875500,2.66287548828125,1.2702157506495713,0.6040265083625912,-0.5754099240787327
1761468626907831600,2.67283154296875,1.4154776235431432,0.4916116969294846,-0.46522776706852015
1761468626917787600,2.68278759765625,1.5558300970852375,0.3558887828841805,-0.3676953944034874
1761468626927742500,2.692742431640625,1.6305945384293794,0.20972557723671198,-0.3193525845821947
1761468626937698600,2.702698486328125,1.7046166369736193,0.05906812890991568,-0.2572933110322803
1761468626947654400,2.712654296875,1.8140268597632645,-0.07587152580320834,-0.11569492908231914
1761468626957609700,2.722609619140625,1.9183178398430347,-0.2484394849039614,-0.03024674276895821
1761468626967565600,2.732565673828125,1.9627941104292868,-0.4182366641171276,0.021436390456184742
1761468626977521700,2.742521728515625,1.9651848049581049,-0.5612763309165835,0.11840842582471668
1761468626987476500,2.7524765625,1.9398200620770454,-0.6924829365812242,0.2235495199277997
1761468626997432600,2.7624326171875,1.8347621892780064,-0.8207982047185302,0.35081352544650435
1761468627007388700,2.772388671875,1.7210680055588483,-0.9592385610289871,0.5312255491111427
1761468627017343500,2.782343505859375,1.6267974842339754,-1.1249624994538723,0.7282946930661797
1761468627027299600,2.792299560546875,1.552501829445362,-1.2629153645083306,0.8420033437021076
1761468627037255400,2.80225537109375,1.3780512714684008,-1.4225393786229192,0.882216842277348
1761468627047210500,2.81221044921875,1.1382628566622734,-1.6057618565984069,0.8681796221617609
1761468627057166600,2.82216650390625,0.8910708876013755,-1.8288383521869778,0.7989313138905912
1761468627067121400,2.832121337890625,0.6210790577113628,-1.9986310013554989,0.754761405839771
1761468627077077500,2.842077392578125,0.30680618754625316,-2.093264510773867,0.6597424042351544
1761468627087033600,2.85203369140625,-0.13922259272933005,-2.1779285609722137,0.5627176157660781
1761468627096988700,2.86198876953125,-0.6762626002728939,-2.2694351705417035,0.44574199922345575
1761468627106944500,2.871944580078125,-1.2325292863339186,-2.3236244413688776,0.29615159560628235
1761468627116900400,2.881900390625,-1.8461293864667414,-2.3761903487779197,0.1659349508270621
1761468627126855700,2.891855712890625,-2.4664754537284375,-2.321239445928484,-0.0028397534705698487
1761468627136811500,2.9018115234375,-3.0143788005918264,-2.180487451674789,-0.1328999655790627
1761468627146767600,2.911767578125,-3.4991683964163065,-1.9294076813951133,-0.24129122058451175
1761468627156722400,2.921722412109375,-3.8027725730508566,-1.7185276734262704,-0.2726628026649356
1761468627166678800,2.9316787109375,-3.8567362184286114,-1.691229186003655,-0.19428353182449937
1761468627176634600,2.941634521484375,-3.646196694460511,-1.7542293936654925,-0.18203619080036879
1761468627186589400,2.95158935546875,-3.1397184139192102,-1.814158669449389,-0.21624153500199317
1761468627196545500,2.961545654296875,-2.6823662755966184,-1.8789292477846145,-0.3106019996326417
1761468627206501400,2.97150146484375,-2.5367227099090814,-1.9297360365666447,-0.3934074894174933
1761468627216456700,2.981456787109375,-2.8203374069601295,-1.759382392514497,-0.5406822365034372
1761468627226412500,2.99141259765625,-3.4045997689276932,-1.3506075303561984,-0.7806019495390355
1761468627236368600,3.00136865234375,-3.923523105022311,-0.7156145135827362,-0.9757830147251486
1761468627246323700,3.01132373046875,-4.218354777136445,-0.11505758102685212,-1.16512514462471
1761468627256279600,3.021279541015625,-4.062399660792947,0.48733211991414427,-1.375289843931049
1761468627266235600,3.031235595703125,-3.3240269335657358,0.998797248957306,-1.4206015424281357
1761468627276190500,3.0411904296875,-2.021561941218376,1.2743151487924158,-1.2212101660706103
1761468627286146600,3.051146484375,-0.44871582740247246,1.3377961257085202,-0.8794153749905527
1761468627296102400,3.061102294921875,0.9818892226457595,1.3337848442405462,-0.5094652604628354
1761468627306057500,3.071057373046875,2.1481594456523654,1.2284450857602058,-0.1813679361499846
1761468627316013600,3.081013671875,2.966183801743388,1.1131117565318942,0.12171133982762694
1761468627325969400,3.090969482421875,3.409918918123841,1.0308025988966225,0.3600223755575716
1761468627335924700,3.1009248046875,3.5156396387457844,1.0239821052268148,0.5086449570558965
1761468627345880600,3.110880615234375,3.3348552015721795,1.079301256866753,0.6287660320173949
1761468627355836700,3.120836669921875,2.993210924878716,1.1834773783951997,0.7168159252617508
1761468627365791500,3.13079150390625,2.5620734242647885,1.3074851585969327,0.7196722645409405
1761468627375747300,3.140747314453125,2.0403794544130562,1.4508366678245366,0.6541229569181799
1761468627385703700,3.15070361328125,1.478789527502656,1.5319459481507538,0.5564796712245792
1761468627395658500,3.160658447265625,0.932590646469593,1.652422193225473,0.4454944542031735
1761468627405614600,3.170614501953125,0.6078659403949975,1.7720327613815665,0.27712277774848043
1761468627415570400,3.1805703125,0.4108078292906284,1.7897217089377342,0.1613144514195621
1761468627425525800,3.19052587890625,0.35139410181343556,1.6770711890526115,-0.03483816221244633
1761468627435481000,3.200481201171875,0.4429764069676399,1.494561681652069,-0.15378785530701278
1761468627445437000,3.21043701171875,0.6154489428699016,1.238861704225838,-0.2350106059450656
1761468627455392000,3.22039208984375,0.7957090639084577,1.0085217935055493,-0.2726671865791082
1761468627465348000,3.23034814453125,0.9896662863880396,0.8224917107634245,-0.2691605666976422
1761468627475304200,3.24030419921875,1.1680033304095268,0.6584164163284003,-0.17100297480635343
1761468627485259000,3.250259033203125,1.3015426168054343,0.5007658942438662,-0.042030046477913856
1761468627495215000,3.260215087890625,1.3582716352432966,0.36850992565676566,0.08582973297685384
1761468627505171000,3.2701708984375,1.3441887493550777,0.2666612241625786,0.1950589001111686
1761468627515126000,3.2801259765625,1.3230863400936126,0.18463234477341173,0.25537198758088053
1761468627525082000,3.29008203125,1.2572089695602655,0.10508446854501963,0.20866693502925335
1761468627535038000,3.300037841796875,1.1199053621947765,0.012475889082998036,0.0682251027032733
1761468627544993300,3.3099931640625,0.9738935477167368,-0.0722756932683289,-0.12258278889991342
1761468627554949000,3.31994921875,0.8224778283685446,-0.16747005143985152,-0.31019889872446654
1761468627564905200,3.3299052734375,0.7487947525203228,-0.25135639526396986,-0.4783040331974625
1761468627574860000,3.339860107421875,0.6996294473350048,-0.320917130485177,-0.5903688621491193
1761468627584815900,3.34981591796875,0.6344026496648788,-0.3694393154613673,-0.6677794340878724
1761468627594772200,3.359772216796875,0.6269587633997201,-0.4047133118078112,-0.7444004630841314
1761468627604727000,3.36972705078125,0.7646405564278363,-0.43953634951636195,-0.8148638462334871
1761468627614683100,3.37968310546875,1.037805171135068,-0.5237761829532682,-0.7844301295250654
1761468627624639000,3.389638916015625,1.326043436333537,-0.6219144856221973,-0.6587946019910276
1761468627634594000,3.399593994140625,1.4849293454319237,-0.7138195929899811,-0.5209020888216793
1761468627644550100,3.409550048828125,1.4430927756994962,-0.7813571518205106,-0.4223626580059528
1761468627654506000,3.419506103515625,1.2903338250488041,-0.8438957333199679,-0.3957281874500215
1761468627664461000,3.4294609375,0.9980483302861451,-0.914471198541671,-0.43464623938724395
1761468627674417000,3.4394169921875,0.6975567327141762,-0.9725912329465151,-0.5005431914038956
1761468627684373200,3.449373291015625,0.35462709238529205,-1.025118269649893,-0.5404818185605108
1761468627694328000,3.459328125,-0.10207564211785793,-1.001646354778111,-0.5678779211387038
1761468627704284000,3.469283935546875,-0.6913835970371961,-0.9235580297082662,-0.6239157424420118
1761468627714240000,3.479239990234375,-1.267844345343113,-0.7544618383713066,-0.6735945501074194
1761468627724195000,3.489195068359375,-1.7842969074100254,-0.6238419465534388,-0.70180635298267
1761468627734151200,3.499151123046875,-2.1762819628089667,-0.600011427502334,-0.8125165524549782
1761468627744107000,3.50910693359375,-2.4484534748256204,-0.6934805693164467,-1.0306371792018414
1761468627754062000,3.51906201171875,-2.633330149748921,-0.8905657145582139,-1.3081396769829094
1761468627764018200,3.52901806640625,-2.516305360302329,-1.101919185257703,-1.6207241556696592
1761468627773974000,3.53897412109375,-2.2379554519116875,-1.308885673044622,-1.8815198487997054
1761468627783929000,3.54892919921875,-1.984073629823327,-1.53655475712046,-2.0360963702663777
1761468627793885000,3.558885009765625,-1.9066186342209577,-1.6581119292996822,-2.1176843740202487
1761468627803841000,3.568841064453125,-1.9781962622225284,-1.5549550678163766,-2.160995546349883
1761468627813796000,3.578796142578125,-2.228468077120185,-1.3034488888181746,-2.160807038040459
1761468627823752200,3.588752197265625,-2.656450913095474,-0.8905481789015233,-2.1022686320930717
1761468627833708000,3.5987080078125,-3.0062545308470723,-0.3848211551189422,-1.935704005060345
1761468627843663000,3.6086630859375,-3.213078833684325,0.16940847215652466,-1.7139036668874323
1761468627853619200,3.618619140625,-3.2234190259128805,0.8050317496575414,-1.4474597387373447
1761468627863575000,3.628574951171875,-3.0297716000348327,1.3366978090777992,-1.1228148199006915
1761468627873530000,3.638530029296875,-2.535908470916748,1.7171867802113294,-0.8212718135796487
1761468627883486000,3.64848583984375,-1.747141188970208,1.9702971795357762,-0.6086315179400146
1761468627893442000,3.658442138671875,-0.789574506676197,2.0564767488636075,-0.44322249068319797
1761468627903397000,3.668397216796875,0.14171031789183616,1.944028035160899,-0.34166970339566466
1761468627913353000,3.67835302734375,0.9149088593065738,1.708570196904987,-0.35641748293340203
1761468627923309000,3.68830908203125,1.5318424877762793,1.4388123219013214,-0.42726416631191966
1761468627933264100,3.69826416015625,2.0655267551511525,1.2225865689903497,-0.5010169463954866
1761468627943220200,3.70822021484375,2.411226444715261,0.9908382527768611,-0.596494067031145
1761468627953176000,3.718176025390625,2.5793898852467536,0.749977678694576,-0.716578244048357
1761468627963131000,3.728130859375,2.6109032138854262,0.6113632809914649,-0.819388630181551
1761468627973087000,3.7380869140625,2.5380384686827657,0.4984742761753499,-0.8806897788405418
1761468627983043000,3.74804296875,2.409451251736283,0.4600279334031045,-0.8643861481629311
1761468627992998100,3.757998046875,2.224741750073433,0.46413390741720795,-0.7618982719823718
1761468628002954000,3.7679541015625,2.0822382359772917,0.4473476077891886,-0.6770043585509061
1761468628012910000,3.77791015625,1.9509020125836132,0.4378681240431964,-0.6245834125705063
1761468628022865200,3.787865234375,1.8958938265889882,0.4391780375979841,-0.5642153069779277
1761468628032821200,3.7978212890625,1.7702093453466892,0.42569107177630067,-0.49478448174670336
1761468628042777000,3.807777099609375,1.6722417230695485,0.4665194873794913,-0.3717543144054711
1761468628052732000,3.81773193359375,1.6780191374272106,0.45409547461420297,-0.2247223630994558
1761468628062688000,3.82768798828125,1.6854156774193048,0.34364567964375015,-0.10040434790477155
1761468628072644000,3.83764404296875,1.7242898902148007,0.225798175637424,0.026202801140397785
1761468628082599200,3.84759912109375,1.711433915773034,0.12528072274699806,0.13917787680476904
1761468628092555000,3.857554931640625,1.5520008941859007,0.01608925727456808,0.2253103921204805
1761468628102511000,3.867510986328125,1.4064210413843392,-0.03410188382714987,0.3246481337070465
1761468628112466200,3.877466064453125,1.2985264838546513,-0.06079612174630165,0.4527867301031947
1761468628122422000,3.887422119140625,1.1847194874107836,-0.140236299816519,0.57965311460644
1761468628132378000,3.897378173828125,1.0658797574967145,-0.2588416364528239,0.6537764815680682
1761468628142333000,3.9073330078125,0.9585708909004926,-0.3837801216334104,0.6702667208589613
1761468628152289300,3.917289306640625,0.8457347853153944,-0.5415180297404527,0.6540937308236956
1761468628162245000,3.9272451171875,0.6924164472162723,-0.6719329005055129,0.5538656162686646
1761468628172200000,3.937199951171875,0.5077648132205009,-0.8985517448760568,0.4517600174039602
1761468628182156000,3.947156005859375,0.40502749232351776,-1.0733009935386477,0.3908379311904311
1761468628192111900,3.95711181640625,0.33725393278002735,-1.2244121769823133,0.36202947759628296
1761468628202067200,3.967067138671875,0.30501755056381225,-1.3956677383102476,0.3091745241127908
1761468628212023000,3.97702294921875,0.2377420036703348,-1.572984937764704,0.2445429158568382
1761468628221979100,3.986979248046875,0.16231412998139857,-1.6676560027144849,0.1571918185316026
1761468628235044000,4.000044189453125,-0.06069324589371681,-1.6512179320022462,0.19142127426117658
1761468628245000200,4.010000244140625,-0.3808966751515865,-1.60353234398067,0.24023484339937567
1761468628254956000,4.0199560546875,-0.7159159807473421,-1.5041682989090681,0.19135829202756285
1761468628264911000,4.0299111328125,-1.0848322952479124,-1.4423394731141626,0.10813815702721476
1761468628274867000,4.039866943359375,-1.4216145188629625,-1.434429869033396,0.07299114806130529
1761468628284823300,4.0498232421875,-1.7368547727555035,-1.3918338592357933,0.0756686967074871
1761468628294778000,4.059778076171875,-1.906281949612498,-1.4112953694224357,0.12390709630623459
1761468628304734000,4.06973388671875,-1.9052900159657,-1.4796747859045862,0.13509177653491497
1761468628314690000,4.07968994140625,-1.9023691600829362,-1.623185723477602,0.06594868220388889
1761468628324645000,4.08964501953125,-2.209162488147616,-1.842148207876086,-0.04607230760604143
1761468628334601200,4.099601318359375,-2.9277731148064134,-1.878619305052608,-0.2385230710454285
1761468628344557000,4.10955712890625,-4.143568708482384,-1.5724102066166699,-0.46511108188629147
1761468628354512000,4.119511962890625,-5.402149550917744,-0.8918823501147329,-0.7455065246298909
1761468628364468200,4.12946826171875,-6.374830800235271,-0.14339520223885774,-1.0783356267049908
1761468628374424000,4.139424072265625,-6.8256970836699,0.5782159214101732,-1.2952937855437396
1761468628384379100,4.149379150390625,-6.384142233937978,1.234548517201841,-1.3275681616827846
1761468628394335000,4.1593349609375,-5.023177121827006,1.6472202406682073,-0.9988635921917856
1761468628404291000,4.169291015625,-2.9517303289771077,1.7174024687886238,-0.29015885799750685
1761468628414246100,4.17924609375,-0.8861299240678548,1.5698765964858232,0.4242857350230217
1761468628424202000,4.189201904296875,0.8278256191372871,1.3863218178160488,0.9924572322808205
1761468628434158000,4.199157958984375,2.114118644362688,1.2107380180254579,1.4433597560726106
1761468628444113000,4.20911279296875,2.833345357093215,1.063609182216227,1.7626330648735165
1761468628454069000,4.219069091796875,3.143860920551419,0.9501353632494807,1.8653579646803438
1761468628464024800,4.22902490234375,3.1189398297846314,0.8287025481022894,1.8623095368951559
1761468628473980000,4.23897998046875,2.913540591314435,0.7403636087834835,1.827153760100901
1761468628483935700,4.248935791015625,2.588751587831974,0.6616008915834128,1.703164392338693
1761468628493891800,4.258891845703125,2.1351883203983304,0.659121934249252,1.380507140187919
1761468628503847000,4.268846923828125,1.7296645689904688,0.6550599455073476,0.9973957115963101
1761468628513803000,4.278802978515625,1.3652145862489937,0.6693835082836449,0.6799807440131902
1761468628523758800,4.2887587890625,1.029899512577057,0.767568280442804,0.36173794730380177
1761468628533714000,4.2987138671875,0.7820750908315182,0.884374604833126,0.11868307804763316
1761468628543670000,4.308669921875,0.7266969024807214,0.9323315571419895,0.07393193604275584
1761468628553625900,4.3186259765625,0.8427724283784628,0.876246827957034,0.10238383128419518
1761468628563581000,4.328580810546875,0.9578162731409072,0.7314362059623003,0.16666823353767393
1761468628574161000,4.339160888671875,1.1120663391321897,0.6066776073932647,0.22991671687215565
1761468628584116000,4.349115966796875,1.249934594643116,0.5739125251278281,0.3429949606500566
1761468628594071800,4.35907177734375,1.320284142154455,0.5461015581384301,0.5822036758720874
1761468628604028000,4.36902783203125,1.309472825282812,0.5641245599545538,0.7003872799649834
1761468628613983000,4.37898291015625,1.2978840942978858,0.5842898344963788,0.8093652488172054
1761468628623938800,4.388938720703125,1.260425008997321,0.5379746580451726,0.914938377662003
1761468628633895000,4.39889501953125,1.195558276811242,0.49343774331286544,0.9246927328266202
1761468628643849700,4.408849609375,1.1253858394324778,0.42288872770667074,0.8531893391050398
1761468628653806000,4.41880615234375,1.0552917279869318,0.345163244599849,0.6906980989910662
1761468628663762000,4.428761962890625,0.9460627069830894,0.3012421236783266,0.565182690705359
1761468628673716700,4.438716796875,0.7773807955354451,0.30772783243581653,0.4726351937808096
1761468628683672800,4.4486728515625,0.6507756923168897,0.3911242007859051,0.37951384249106046
1761468628693628700,4.458628662109375,0.62002107309103,0.41035570160895585,0.2565506029061973
1761468628703585000,4.4685849609375,0.6673153237074613,0.35149873123168945,0.11075549991875887
1761468628713539800,4.478539794921875,0.7701619501978159,0.25490152052491905,-0.04040288366749883
1761468628723496000,4.488495849609375,0.931867008370161,0.09837050398960709,-0.20345307283848524
1761468628733451800,4.49845166015625,1.0276976186186075,-0.06971972517520189,-0.36925299910902976
1761468628743407000,4.508406982421875,1.033084572353959,-0.24271380073353646,-0.5615718067318201
1761468628753363000,4.518363037109375,1.0113736758053302,-0.37900603909939523,-0.6856076439842581
1761468628763318800,4.52831884765625,0.914317323154211,-0.48094095757231115,-0.7217644145146012
1761468628773273900,4.53827392578125,0.6578367167443037,-0.5149405500687658,-0.7359263569884001
1761468628783230000,4.54822998046875,0.2813128498494625,-0.520599744874239,-0.733301707573235
1761468628793186000,4.55818603515625,-0.0836462514579296,-0.4751499530807137,-0.7743906738087535
1761468628803140900,4.568140869140625,-0.4624351406753063,-0.36029680858477947,-0.7303326286345719
1761468628813097000,4.578096923828125,-0.8407119887173176,-0.1817806086041033,-0.6422673916906118
1761468628823052800,4.588052734375,-1.2252426364570856,-0.04595101931393146,-0.6200783562362193
1761468628833007900,4.5980078125,-1.443035492554307,0.025725685147941112,-0.6521157087489963
1761468628842964000,4.6079638671875,-1.4835288309842347,0.018527151945978402,-0.6628304333783686
1761468628852919800,4.617919921875,-1.44383161136806,-0.21146321468427776,-0.6492670413196087
1761468628862875000,4.627875,-1.3498843306481838,-0.519498359503597,-0.8679938172660767
1761468628872831000,4.6378310546875,-1.2423761420875787,-0.9166384595781564,-1.2254745455168188
1761468628882787000,4.647787109375,-1.2343611779361963,-1.422485602609068,-1.503343830783665
1761468628892742000,4.657741943359375,-1.4163760336875915,-1.7918384088307617,-1.7466970984645187
1761468628902697700,4.66769775390625,-1.838558074429631,-1.8711033764645457,-2.0007143835008145
1761468628912653800,4.67765380859375,-2.4931910266965627,-1.6142128740794957,-2.146753232116252
1761468628922609000,4.68760888671875,-3.2339141164422034,-1.0825295712634921,-2.1008201868504286
1761468628932565000,4.69756494140625,-3.9066415283262725,-0.3452982691563666,-1.9351921100154519
1761468628942520800,4.707520751953125,-4.316861328595876,0.5134473889015615,-1.6153592676356434
1761468628952476000,4.717475830078125,-4.2529730860531325,1.3041001923337578,-1.1794359940499066
1761468628962432000,4.727431884765625,-3.609219255197048,1.8661751262821256,-0.6326398777760565
1761468628972387800,4.737387939453125,-2.517881231316924,2.1988022760443386,-0.1583718220964074
1761468628982343000,4.747343017578125,-1.252286126205325,2.3131550698027015,0.10866817225068807
1761468628992298800,4.757298828125,-0.08961889612674713,2.2598829138204453,0.24109672092571854
1761468629002254800,4.7672548828125,0.914818842935562,2.082570390541106,0.3029480508133769
1761468629012210000,4.7772099609375,1.7244319290339947,1.828550475156307,0.3303405001297593
1761468629022165800,4.787165771484375,2.2424621156811715,1.519472835546732,0.2692505100034177
1761468629032121900,4.797121826171875,2.570816118168831,1.1922668340504168,0.06277969677895308
1761468629042077000,4.807076904296875,2.737226577553153,0.8790985641263425,-0.23476386464238166
1761468629052033000,4.817032958984375,2.748250660392642,0.5633006763510405,-0.5209541112698615
1761468629061988900,4.82698876953125,2.657214298683405,0.2556957396425307,-0.7454460266143084
1761468629071945000,4.836945068359375,2.4675714322716,0.046519320721179244,-0.8665148307546973
1761468629081899800,4.846899658203125,2.252149981480837,0.0004836918637156486,-0.9307768750458956
1761468629091856100,4.856856201171875,1.9707938770115374,0.014048106835782528,-0.8414914486572146
1761468629101812000,4.86681201171875,1.6513281143784522,0.08366261807084083,-0.6698040717832744
1761468629111766800,4.876766845703125,1.3517185603380202,0.25185776891484857,-0.4977914084777236
1761468629121723000,4.886722900390625,1.0470412015140056,0.39355215858519077,-0.3346551484584808
1761468629131678700,4.8966787109375,0.8000573222458363,0.468699315636605,-0.13144962064027785
1761468629141634000,4.906634033203125,0.6569540886908769,0.5466230977945029,0.028519553650170563
1761468629151590000,4.91658984375,0.5678776288777589,0.5680808963648974,0.22618322943225502
1761468629161546000,4.9265458984375,0.5055798703968525,0.5836598660297692,0.4390056036405265
1761468629171500800,4.936500732421875,0.4395481860846281,0.587435731306672,0.6735090637810528
1761468629181457000,4.946456787109375,0.40339141555428504,0.5758398399285972,0.8196762149512767
1761468629191413000,4.9564130859375,0.3367728712648153,0.5486798841938376,0.9123707191310823
1761468629201367800,4.966367919921875,0.2888888380616903,0.5132118265800177,0.9527771099299192
1761468629211324000,4.976323974609375,0.2518845107913017,0.4171865705423057,0.9883883754067122
1761468629221279700,4.98627978515625,0.22015549357533454,0.2964341388747096,0.9547069089487195
1761468629231234800,4.99623486328125,0.2281342173695564,0.2073116479627788,0.9201885532751679
1761468629241191000,5.00619091796875,0.3111410018801689,0.11615224439576267,0.872490690293908
1761468629251146800,5.016146728515625,0.3753039697110653,0.007858750676363706,0.8120764074720442
1761468629261102000,5.02610205078125,0.5053928233921527,-0.15462985908910631,0.7791212094619869
1761468629271058000,5.036057861328125,0.6245388427764177,-0.33622444360181686,0.6697859516046941
1761468629281014000,5.046013916015625,0.7624719802170992,-0.5779682302594185,0.5066869548559189
1761468629290968800,5.05596875,0.9442436748623847,-0.8647619957379996,0.329861776702106
1761468629300924700,5.065924560546875,1.071531499648094,-1.126510459548235,0.2625955821588635
1761468629310881000,5.075881103515625,1.056563063097,-1.3674255402967332,0.28221447486430407
1761468629320835800,5.0858359375,0.9038286623656749,-1.5272377704598008,0.26049817148819565
1761468629330792000,5.0957919921875,0.7074386597812176,-1.681599626262486,0.1901008393123746
1761468629340747800,5.105747802734375,0.5511731623142957,-1.844532911055535,0.12729045513421297
1761468629350703000,5.115703125,0.40265374892950057,-1.9732015226751565,0.09201163648217917
1761468629360659000,5.125658935546875,0.30489421644508835,-2.057386703315377,0.06513225125446916
1761468629370615000,5.135614990234375,0.10304770202040672,-2.0537932088680564,0.03476619295477867
1761468629380569900,5.14556982421875,-0.3957511299341917,-1.9389052853196858,0.08730053618177772
1761468629390525700,5.155525634765625,-0.9983820922851562,-1.704529835473001,0.0853758517295122
1761468629400482000,5.16548193359375,-1.5443062480300664,-1.5011642947874961,0.09991510308310389
1761468629410436900,5.175436767578125,-1.9470722251623869,-1.3925304631978273,0.07384455002024769
1761468629420393000,5.18539306640625,-2.1070903531610963,-1.4060256123259662,0.028951661457121372
1761468629430348800,5.195348876953125,-2.0891110443562266,-1.6119420065380632,-0.061831163882464166
1761468629440305400,5.205305419921875,-2.0027023424476385,-1.870130001387745,-0.2312679853506386
1761468629450260500,5.215260498046875,-2.1079776573896405,-2.1042465080372987,-0.43217678053379055
1761468629460216600,5.225216552734375,-2.483432433748245,-2.155331967630237,-0.7252122168809175
1761468629470172400,5.23517236328125,-3.3339936163067816,-2.0117624317377802,-0.8638013340122997
1761468629480127500,5.24512744140625,-4.342409026828408,-1.6020780535191297,-0.8858500842131674
1761468629490083600,5.25508349609375,-5.073412686592341,-0.8925213786706327,-0.9591666648365557
1761468629500039700,5.265039794921875,-5.425651422536373,-0.06126607734560966,-0.8992613544501363
1761468629509994500,5.274994384765625,-5.253606172135472,0.8935307018436491,-0.7390512110106646
1761468629519950600,5.28495068359375,-4.454391730454564,1.655735701687634,-0.3511604391880333
1761468629529906400,5.294906494140625,-3.100202980610728,2.089190539333224,0.1758349980726838
1761468629539861500,5.304861572265625,-1.5239648862689732,2.2197549015715716,0.5343476997196674
1761468629549817600,5.314817626953125,-0.010175941577553749,2.168873147857189,0.7393630534388125
1761468629559773400,5.3247734375,1.2756775231868027,1.9710341155081985,0.9273736424736678
1761468629569728500,5.334728515625,2.14684485592246,1.7214891535803674,1.0784281272940337
1761468629579684600,5.3446845703125,2.5707325315386056,1.4682067586898804,1.1250198556642979
1761468629589640700,5.354640625,2.629671042719483,1.3132804008722305,1.1648274768523872
1761468629599595500,5.364595458984375,2.4605484017670154,1.2912155763193964,1.1233778606109321
1761468629609551400,5.37455126953125,2.126186683297157,1.3086106554955244,1.0817975306618959
1761468629619507500,5.384507568359375,1.6283686790734528,1.377490568845719,0.9201884071446955
1761468629629462500,5.394462646484375,1.0936112295091152,1.4427506842635571,0.662508288751915
1761468629639418600,5.404418701171875,0.6329489437252283,1.423475052037835,0.3885803615219891
1761468629649374500,5.41437451171875,0.2194949838399887,1.46251877618134,0.03694675186425447
1761468629659329500,5.42432958984375,-0.024539982494711874,1.4936927898630499,-0.2825495520375669
1761468629669285600,5.43428564453125,-0.10051789128184319,1.456515736374259,-0.4595530093677342
1761468629679241500,5.444241455078125,-0.017158640071749685,1.297287735839933,-0.5920657291948795
1761468629689197600,5.454197509765625,0.21661738257706165,1.091498475138843,-0.6813675221964717
1761468629699152400,5.46415234375,0.6299906784415245,0.8978665390908718,-0.6685236765839159
1761468629709108500,5.4741083984375,1.043649805510044,0.6639502311885357,-0.5286980033949017
1761468629719064600,5.484064697265625,1.379641755530238,0.5523518507048487,-0.27874606810137625
1761468629729019400,5.494019287109375,1.5998732369512318,0.5395110738322139,0.04741173951625824
1761468629738975500,5.5039755859375,1.7170348045200108,0.4472105374060571,0.3590675590507686
1761468629748931300,5.513931396484375,1.761136396574974,0.4110068589940667,0.6438862250640988
1761468629758886700,5.52388671875,1.7317296848267316,0.3971379081174731,0.8365133679836988
1761468629768842500,5.533842529296875,1.6398703162968158,0.3495563649922609,0.9786565243348478
1761468629778798600,5.543798583984375,1.4671511121571064,0.35314532939493654,1.0305198364324868
1761468629788753400,5.55375341796875,1.281645491680503,0.35251901419013737,0.9901889950878917
1761468629798709500,5.56370947265625,1.100077210652828,0.31861674458831546,0.8799490434758365
1761468629808665600,5.57366552734375,0.9946475819319486,0.23519801827594636,0.7109653726026416
1761468629818620400,5.583620361328125,0.983695395284891,0.1285699735507369,0.5115881709009409
1761468629828576500,5.593576416015625,0.9903688816994428,-0.011349807662516831,0.30037089380174875
1761468629838532400,5.603532470703125,1.0443559079527853,-0.1276646952740848,0.11851064409017562
1761468629848487700,5.61348779296875,1.096034072741866,-0.18706147161647677,-0.022348171538859603
1761468629858443500,5.623443603515625,1.0950485688358544,-0.2723078517474234,-0.15139496882110834
1761468629868399600,5.633399658203125,1.0419891788214444,-0.3733125036329031,-0.2673956759169698
1761468629878354400,5.6433544921875,0.938000981080532,-0.48090734756365416,-0.40574586972594257
1761468629888310500,5.653310546875,0.729442986318469,-0.5994080547817051,-0.5461529960647225
1761468629898266600,5.6632666015625,0.4050789302498102,-0.7244999769583345,-0.657007134052366
1761468629908221400,5.673221435546875,0.10893617553710937,-0.7391586169078945,-0.7085486668497324
1761468629918177500,5.683177490234375,-0.13789105186462403,-0.6892629516214132,-0.6381280999287963
1761468629928133400,5.69313330078125,-0.40066228285133837,-0.5715174466848373,-0.4753361233025789
1761468629938088400,5.70308837890625,-0.6619575960665941,-0.38737858451679347,-0.28987945653423663
1761468629948044500,5.71304443359375,-0.9336790262281894,-0.19989961814060805,-0.12550401010885834
1761468629958000400,5.72300048828125,-1.315767541512847,-0.04394567084088921,0.009741787943989038
1761468629967956500,5.73295654296875,-1.7166864294737576,0.02723229031860828,0.06593304624333977
1761468629977911600,5.74291162109375,-2.0126836382359263,-0.01186813244819641,0.034910423731058834
1761468629987867600,5.75286767578125,-2.2182447892695665,-0.14474237906411289,-0.047876580549031496
1761468629997823500,5.762823486328125,-2.362740353965759,-0.37926732038408517,-0.21747984462529418
1761468630007778300,5.7727783203125,-2.320032262095809,-0.6899013956554234,-0.40357305573150515
1761468630017734400,5.782734375,-2.0507968035310506,-0.9966320337474346,-0.6370999259248376
1761468630027690500,5.7926904296875,-1.7259826656073332,-1.300718440940976,-0.9068164460048079
1761468630037645600,5.8026455078125,-1.497573722949624,-1.6158566957637666,-1.0915944828592241
1761468630047601400,5.812601318359375,-1.464859786349535,-1.87180363368839,-1.1840300438418985
1761468630057557500,5.8225576171875,-1.6091881777852772,-1.871345806918293,-1.2056978319011629
1761468630067512600,5.8325126953125,-1.90700558771193,-1.569404448929429,-1.087022498768568
1761468630077468700,5.84246875,-2.3374954380720854,-1.0511289092190563,-0.9018322278514503
1761468630087424500,5.852424560546875,-2.658358792543411,-0.47291561815738675,-0.7225931204237044
1761468630097379300,5.86237939453125,-2.7384464747369286,0.17972572190091013,-0.4508768048286438
1761468630107335700,5.872335693359375,-2.5402175662875175,0.8280285943634808,-0.06827215671539306
1761468630117291500,5.88229150390625,-2.0314444528073072,1.3624331388369202,0.3614060850009322
1761468630127246600,5.89224658203125,-1.2342004344165325,1.7513130678273736,0.7261871993929148
1761468630137202400,5.902202392578125,-0.3274053234606981,1.933629829134792,0.9528652266047895
1761468630147158500,5.912158447265625,0.5279448469400405,1.9432341083042322,1.0686280332915483
1761468630157113600,5.922113525390625,1.2362632121652364,1.8166044551663099,1.0873483697220683
1761468630167069400,5.9320693359375,1.7287141363978384,1.5864990838542579,0.9986394280470907
1761468630177025500,5.942025634765625,2.055502789264917,1.3334807467274368,0.8375383271172642
1761468630186980600,5.951980712890625,2.2627976322233674,1.1187775272086262,0.6559972994226962
1761468630196936700,5.961936767578125,2.3761007707983253,0.925939956408739,0.47043870664983983
1761468630206892500,5.971892578125,2.377511222118139,0.7341285137861967,0.2839699402295053
1761468630216847400,5.981847412109375,2.2602625607877966,0.5840042955532669,0.12639189885929225
1761468630226803500,5.991803466796875,2.0400871934682128,0.4456882962748408,-0.005035802210122346
1761468630236759600,6.001759521484375,1.7485411188960074,0.3065443217396736,-0.11351020545437931
1761468630246715600,6.011715576171875,1.4559738845825194,0.20564766027331352,-0.10083630958124995
1761468630256670500,6.02167041015625,1.1967781739950178,0.1927823334813118,-0.04109656502008438
1761468630266626600,6.03162646484375,0.9517337383568286,0.1939969699680805,0.054826691947877405
1761468630276582400,6.04158251953125,0.7254658993810414,0.20458850660920141,0.1634235525280237
1761468630286537500,6.051537353515625,0.5369996755331754,0.22199469170123337,0.25085838261395693
1761468630296493600,6.06149365234375,0.3101215957045555,0.2142117827400565,0.30716113846376536
1761468630306449400,6.071449462890625,0.09758534496128558,0.1727411237105727,0.3531915066242218
1761468630316404500,6.081404541015625,-0.018758476483821868,0.13656068004369734,0.41303441929891704
1761468630326360600,6.091360595703125,-0.075176529276371,0.09741203422099351,0.5313473488599062
1761468630336316700,6.101316650390625,-0.1379430743128061,0.09484335277676582,0.7107166585385799
1761468630346271500,6.111271484375,-0.1498994695663452,0.161548698566854,0.8814359210327267
1761468630356227600,6.1212275390625,-0.12273147665560245,0.18117139066457746,1.0337566263966262
1761468630366183400,6.131183349609375,-0.11076280644237994,0.13862082744389773,1.1325317656643688
1761468630376138500,6.141138427734375,-0.07081833406686783,0.05598053815811872,1.222540245630592
1761468630386094600,6.151094482421875,0.10222644876539706,-0.026200024661421774,1.3086796290785074
1761468630396050400,6.161050537109375,0.3439987308651209,-0.15955810927152633,1.3707228282764554
1761468630406005500,6.171005615234375,0.6420616399854421,-0.37892888220995663,1.3984325268484652
1761468630415961600,6.180961669921875,0.9331342518270015,-0.5977247778698802,1.379621297264099
1761468630425917700,6.190917724609375,1.1650012259840965,-0.8004340466037392,1.3535904916897414
1761468630435872300,6.200872314453125,1.325950497353077,-1.0399687789097427,1.266745736451447
1761468630445828000,6.210828125,1.3736387157231569,-1.2957169793918728,1.1789403194874524
1761468630455784400,6.220784423828125,1.3036176695138215,-1.5114052644252776,1.0297136346161364
1761468630465739300,6.2307392578125,1.1412912645727395,-1.6954978032335637,0.9299011151246726
1761468630475695400,6.2406953125,0.9292343217790127,-1.784889028084278,0.8285672312848269
1761468630485651200,6.250651123046875,0.6580839695036411,-1.7766367480456828,0.7301369599319995
1761468630495607300,6.260607177734375,0.3065788085311651,-1.781241319231689,0.6836519798718392
1761468630505562400,6.270562255859375,-0.01899462332725525,-1.7500705204203724,0.7392582778900861
1761468630515518500,6.2805185546875,-0.32799978222250936,-1.6269050362616777,0.7497856632538139
1761468630525474300,6.290474365234375,-0.6115677175223827,-1.5099641257062553,0.7967328539982438
1761468630535429000,6.30042919921875,-0.8485831604838371,-1.413706229956448,0.8836661643028259
1761468630545385500,6.310385498046875,-0.9747188926249742,-1.301531803150475,0.9054457421734928
1761468630555341300,6.32034130859375,-1.0351257227927446,-1.2101087802112103,0.9313472222797572
1761468630565296400,6.33029638671875,-1.0267091921031475,-1.1545508513793348,0.9797897661484777
1761468630575252200,6.340252197265625,-1.1213877097070217,-1.0775848083376884,1.0386489284828304
1761468630585208300,6.350208251953125,-1.354137896439433,-1.0119196192502975,1.063574841555208
1761468630595163400,6.360163330078125,-1.5818787305772304,-0.9711401573553681,1.12366617603302
1761468630605119200,6.370119140625,-1.6340291890531777,-0.9937298825651407,1.1545204562410711
1761468630615075300,6.380075439453125,-1.5763339559316634,-1.014790790772438,1.087371458336711
1761468630625030400,6.390030517578125,-1.6813246087133884,-1.0309016753569245,1.1046649768345058
1761468630634986500,6.399986572265625,-2.049951584878564,-1.0323322926819325,1.293556586487591
1761468630644942300,6.4099423828125,-2.6380273676544426,-0.8643924317732453,1.4192390219032764
1761468630654897200,6.419897216796875,-3.253603736296296,-0.4829410453483462,1.4225607136718927
1761468630664853200,6.429853271484375,-3.8874411532938478,-0.059167643761634824,1.3056181956812738
1761468630674809300,6.439809326171875,-4.500286051145196,0.4684440257012844,1.1803877418167887
1761468630684764400,6.449764404296875,-4.9151744277477265,1.1030156021922826,1.059419475441426
1761468630694720300,6.45972021484375,-4.745689967745542,1.6258312695503234,0.9759003574945032
1761468630704676400,6.46967626953125,-3.873102831339836,2.0010054754018785,1.01548607956022
1761468630714632200,6.479632080078125,-2.4262241073608397,2.1203543238818643,1.2268239142991602
1761468630724587300,6.489587158203125,-0.8251040852189063,2.008951173709333,1.4524701142452656
1761468630734543400,6.49954345703125,0.5968605622559785,1.8043761111035943,1.6536621102839708
1761468630744499200,6.509499267578125,1.6973972071141004,1.547781230664253,1.939789082416892
1761468630754454300,6.519454345703125,2.3851000698119402,1.3271446755737066,2.2180109805136916
1761468630764410400,6.529410400390625,2.6942291473478077,1.1875170091748237,2.353345479763299
1761468630774366500,6.539366455078125,2.594724817022681,1.0889084586456417,2.4364140774637457
1761468630784321300,6.5493212890625,2.164218600049615,1.1057274914994835,2.4510974134631454
1761468630794277400,6.55927734375,1.527527547186613,1.2747636232122779,2.3847411733716726
1761468630804233200,6.569233154296875,0.8429483694672584,1.4960262012466787,2.2670414072729645
1761468630814188300,6.579188232421875,0.25818682580590246,1.667272117963433,2.1155068838506934
1761468630824144400,6.589144287109375,-0.23145196361541748,1.8641496118038892,1.9418308173775671
1761468630834100200,6.599100341796875,-0.6376099212735891,2.0917522065147756,1.7411211980283259
1761468630844055300,6.60905517578125,-0.8927566487312316,2.214414125065505,1.6418145822323857
1761468630854011400,6.619011474609375,-0.9581944588035345,2.213843923962116,1.621896560449898
1761468630863967500,6.628967529296875,-0.8268757710665464,2.1624249946311114,1.5782563022963703
1761468630873922300,6.63892236328125,-0.4728700254499912,2.081682063399255,1.6617599304132162
1761468630883878100,6.648878173828125,0.05088906023800373,1.9506345938190817,1.870542381580919
1761468630893834200,6.658834228515625,0.5290887562781572,1.8240625160872934,2.1272553354419768
1761468630903789300,6.668789306640625,0.8333248010754585,1.7548726600050926,2.3293184152267874
1761468630913745400,6.678745361328125,1.0463099646300076,1.5933926427602767,2.5018565637111663
1761468630923701200,6.688701171875,1.1564812349200249,1.431520411327481,2.562673143723607
1761468630933656300,6.69865625,1.2208873638570308,1.2964140217453242,2.549045600387454
1761468630943612400,6.7086123046875,1.2333365110635757,1.172622514642775,2.5145178923636675
1761468630953568300,6.718568359375,1.159990704345703,1.073784539271891,2.449790714778751
1761468630963524400,6.7285244140625,0.9906897842168807,0.9891828867852688,2.3157633526049555
1761468630973479200,6.738479248046875,0.7284194884896278,0.9248352100372313,2.178772318319976
1761468630983435500,6.748435546875,0.5520744950681924,0.899302124851942,2.050424755348265
1761468630993391400,6.758391357421875,0.4346516462147236,0.844282540680468,1.9611738157510756
1761468631003346200,6.76834619140625,0.3420540265381336,0.7949658443257213,1.8757861274532972
1761468631013302300,6.77830224609375,0.27244740634858605,0.6992641211539506,1.7802188443161546
1761468631023258000,6.788258056640625,0.18273732480704782,0.5289288895413279,1.6841501875281333
1761468631033213400,6.79821337890625,0.114843353754282,0.3800906194657087,1.5147446379810572
1761468631043169300,6.808169189453125,0.024953823992609977,0.24831878113374112,1.317103612422198
1761468631053125400,6.81812548828125,-0.10685293952226638,0.10440203923881053,1.1130797539584338
1761468631063080200,6.828080078125,-0.27146014887690545,-0.04997252991497517,0.8654667830064893
1761468631073036300,6.838036376953125,-0.5928320373922586,-0.1808016805693507,0.6295030410550534
1761468631082992400,6.847992431640625,-1.0197358459591865,-0.15955708635821939,0.501998212517798
1761468631092947200,6.857947265625,-1.4478127899587154,-0.07401099262833595,0.43923926626592874
1761468631102903300,6.8679033203125,-1.735477639183402,0.06368818992599845,0.3905634981632232
1761468631112859100,6.877859130859375,-1.800118745920062,0.20522899646982548,0.4275336309030652
1761468631122814500,6.887814453125,-1.6719781036972998,0.28997034968808294,0.523684266886115
1761468631132770300,6.897770263671875,-1.4576672444969414,0.2581903329372406,0.6465614356227218
1761468631142726400,6.907726318359375,-1.309487438330054,0.20714067531004546,0.6336101841129362
1761468631152682200,6.91768212890625,-1.2032061612159013,0.14494330846369266,0.5452211220420897
1761468631162637300,6.92763720703125,-1.1873761393994091,0.033115503138303755,0.4492338599272072
1761468631172593400,6.937593505859375,-1.2395417954444885,-0.15267039558440446,0.38892566782832144
1761468631182549200,6.94754931640625,-1.3198784839630127,-0.34818010820299383,0.3501679210193455
1761468631192504300,6.95750439453125,-1.3328250592976807,-0.5212497332155704,0.2992657090388238
1761468631202460400,6.96746044921875,-1.2789876706480978,-0.6193818984046578,0.24362638553380964
1761468631212416500,6.97741650390625,-1.356205934885144,-0.6873559489563107,0.11721198258176445
1761468631222371300,6.987371337890625,-1.6651064643621443,-0.6534609858781099,-0.09444602402225136
1761468631232327200,6.9973271484375,-2.189544764485955,-0.4897343587502837,-0.30230858386605974
1761468631242283300,7.007283203125,-2.712945538255572,-0.2269458843678236,-0.4053028021335602
1761468631252238300,7.01723828125,-2.937091562771797,0.23113412983790038,-0.4139423279240727
1761468631262194400,7.0271943359375,-2.8090385988324877,0.7736316721349954,-0.20397183601558208
1761468631272150300,7.037150390625,-2.280055641016364,1.2524706889919937,0.3043209466017783
1761468631282105000,7.04710498046875,-1.5701935534805058,1.594426223591715,0.8830353190533816
1761468631292061400,7.0570615234375,-0.8180074049562215,1.8084109195776283,1.3003262267529965
1761468631302017300,7.067017333984375,-0.06116495505869388,1.9056817917622624,1.6030524515092373
1761468631311972400,7.076972412109375,0.5578162535905837,1.8074451432853935,1.8540590104222296
1761468631321928200,7.08692822265625,0.9348252736538648,1.6477993557304143,1.9672180643513797
1761468631331884300,7.09688427734375,1.080780389508605,1.4462801735639572,1.9456983064606785
1761468631341840400,7.10684033203125,1.0464894128501414,1.236272710645944,1.7581790080741047
1761468631351795200,7.116795166015625,0.8730243587791919,1.0321095898419619,1.4529185886651277
1761468631361751300,7.126751220703125,0.6248650059908628,0.8563928113214672,1.1697174408510327
1761468631371707100,7.13670703125,0.33502515081465245,0.6813033709190786,0.9653488606028259
1761468631381662500,7.146662353515625,0.13591244526803492,0.5637060422815382,0.7946021255798638
1761468631391618300,7.156618408203125,0.0904518398195505,0.5081061740040779,0.7524578050725161
1761468631401574400,7.166574462890625,0.1537608211696148,0.50268444121629,0.8450206456966698
1761468631411529200,7.176529296875,0.23630524886548518,0.504014228515327,1.0331631905481218
1761468631421485300,7.1864853515625,0.29888825402855873,0.5116211963877082,1.320513859257102
1761468631431441400,7.19644140625,0.24899872622191904,0.4588486604906618,1.5409199665926396
1761468631441397000,7.20639697265625,0.1488929228723049,0.35854455808997154,1.6265402946025131
1761468631451352800,7.216352783203125,0.045258945396542544,0.3214018452621996,1.6452093392372131
1761468631461309000,7.226308837890625,-0.07455518250763415,0.32237814294844863,1.7364130203373729
1761468631471264000,7.236263916015625,-0.2166582991093397,0.3988296605966985,1.867276365522295
1761468631481220000,7.24622021484375,-0.44726972024738787,0.49378261122778055,1.9586646094091236
1761468631491176000,7.256176025390625,-0.7583060927093028,0.6146411336183547,1.9533378614284096
1761468631501130800,7.266130859375,-1.0240905340373516,0.7132413547106087,1.852702335116267
1761468631511086800,7.2760869140625,-1.1460673929333687,0.739493547950685,1.757301202326268
1761468631521043000,7.28604296875,-1.1429776102244853,0.7123423600442708,1.6798298401109872
1761468631530999000,7.2959990234375,-0.9861392813056706,0.725503162651509,1.545252296708524
1761468631540953900,7.305953857421875,-0.7648638437896966,0.6389636739701032,1.5143433637037873
1761468631550910000,7.315909912109375,-0.46886312789618967,0.542452095720172,1.4672288535684346
1761468631560865800,7.32586572265625,-0.058005029723048204,0.4283588296808302,1.417351454591006
1761468631570821000,7.335821044921875,0.3207809368848801,0.27191315334141253,1.456115485010296
1761468631580777000,7.34577685546875,0.617027736493945,0.12893340003564954,1.5154421187259255
1761468631590733000,7.355733154296875,0.8876192858427763,-0.012984423127025364,1.4965386808134615
1761468631600687900,7.36568798828125,1.1007441501289605,-0.1791477758824825,1.4905638441875577
1761468631610644000,7.37564404296875,1.2197037070304155,-0.323184052503854,1.4964384353093803
1761468631620600000,7.38560009765625,1.247640346226096,-0.4225514585763216,1.4210644837647675
1761468631630555000,7.395554931640625,1.1147060399860143,-0.49542307191118595,1.3632897556662558
1761468631640511000,7.405510986328125,0.7965876003086566,-0.5595953920923173,1.248781917476654
1761468631650466800,7.415466796875,0.3951110784649849,-0.6702437783747911,1.0394083685480058
1761468631660422000,7.425421875,0.07033727255165577,-0.755352649731189,0.8642043618552386
1761468631670378000,7.4353779296875,-0.240154910030961,-0.7610035150997341,0.6829141671165824
1761468631680333800,7.445333740234375,-0.4918325000733137,-0.7278010643303394,0.6114493518397212
1761468631690289000,7.455288818359375,-0.6503332092463969,-0.6922438671283423,0.6498502480350434
1761468631700245000,7.465244873046875,-0.7729507041335105,-0.6107805126674473,0.6773765528641641
1761468631710201000,7.475201171875,-0.8303513382226229,-0.5571699185110628,0.711293727774173
1761468631720157000,7.485156982421875,-0.77526424177289,-0.5685496829204261,0.7629010192841291
1761468631730111700,7.49511181640625,-0.6797153710752725,-0.5877443588644266,0.6964641151718794
1761468631740067800,7.50506787109375,-0.6119523329257964,-0.6150093824088573,0.6477554677128792
1761468631750024000,7.51502392578125,-0.63264733043015,-0.6335697059720754,0.632074791239202
1761468631759979000,7.52497900390625,-0.7388385911732912,-0.5904774370901287,0.597411766397953
1761468631769934800,7.534934814453125,-0.9815028536766767,-0.5286639549948274,0.5095338687196374
1761468631779891000,7.544890869140625,-1.433346457710862,-0.43196547587066886,0.3980737276628613
1761468631789846000,7.554845947265625,-1.8418933563321829,-0.27395956447720526,0.3282375365011394
1761468631799801900,7.5648017578125,-1.866581807386875,-0.1684840507879853,0.3364258113928139
1761468631809758000,7.574758056640625,-1.5787942085653544,-0.10467398804798722,0.39682723473310466
1761468631819712800,7.584712646484375,-1.1963760229349136,-0.0854338655270636,0.581488221079111
1761468631829669000,7.594669189453125,-1.004195746999979,-0.05241948467567563,0.7796123539797961
1761468631839625000,7.604625,-0.9871721314847469,0.02215352574959397,0.9639771338582038
1761468631849580000,7.614580078125,-1.3089280508816241,0.15591946050822733,1.081344599262625
1761468631859536000,7.624535888671875,-1.8126479726254938,0.4441508575744927,1.0846725746415555
1761468631869492000,7.634491943359375,-2.3466145640730858,0.8642829800494015,1.1102110666543246
1761468631879447000,7.644447021484375,-2.7442040153503418,1.1980983166828751,1.1865328204430639
1761468631889403000,7.65440283203125,-3.0065824476271867,1.5421474625609815,1.2002462884970009
1761468631899359000,7.66435888671875,-2.9488889680713415,1.8388440517641602,1.1909047519169746
1761468631909314800,7.674314697265625,-2.437766076594591,2.0342337912648913,1.2399467229835688
1761468631919270100,7.684270263671875,-1.650171930080652,2.072789731891453,1.2940506536148488
1761468631929226000,7.69422607421875,-0.7923311119079589,1.8984848659954965,1.385691849349439
1761468631939182000,7.70418212890625,-0.0053916299104690545,1.7011058523736893,1.505470321418345
1761468631949137000,7.714136962890625,0.7326058342635631,1.5116341047450899,1.6715043487057089
1761468631959092700,7.7240927734375,1.3039046697616576,1.3021964045390486,1.830161271353811
1761468631969049000,7.734049072265625,1.5523668048888444,1.2288473829507827,1.884170947830379
1761468631979004000,7.74400390625,1.5237550429105757,1.2794535345941782,1.8069957920826971
1761468631988960000,7.7539599609375,1.2549778495073318,1.3375100022435187,1.6409556273154913
1761468631998915800,7.763915771484375,0.8660644566386938,1.3470125746041535,1.479447406889498
1761468632008871000,7.773870849609375,0.4584755893945694,1.3903380677200854,1.277933047028631
1761468632018827000,7.783826904296875,0.06842354788482188,1.4129030968800187,1.0714647180221974
1761468632028782800,7.793782958984375,-0.2733177594423294,1.4359770984753966,0.8272057336732744
1761468632038738000,7.803738037109375,-0.4260451459109783,1.4461046708665788,0.5943384964324534
1761468632048694000,7.813694091796875,-0.3148077076941728,1.3458131356865166,0.4738166586503386
1761468632058650000,7.823650146484375,0.05165829104483127,1.1817188442900777,0.46941067877635356
1761468632068606000,7.83360595703125,0.5653104087382554,0.9354141794577241,0.5996893559411167
1761468632078560800,7.843560791015625,1.0391817201852798,0.7531745750397444,0.8173486487865448
1761468632088516900,7.853516845703125,1.3162141162365675,0.7141497017271816,0.9698894266419112
1761468632098473000,7.863472900390625,1.357297237253189,0.7506758900918066,1.2038134794592856
1761468632108428000,7.873427978515625,1.2904273485511542,0.8105373613364995,1.5091196377061307
1761468632118383900,7.8833837890625,1.2052204236477613,0.8995058307304978,1.7663205212146043
1761468632128340000,7.893340087890625,1.161428628194332,0.9488796640999615,1.9268734867423771
1761468632138295000,7.903294921875,1.096515134257078,0.9075171416200697,1.8990235029168425
1761468632148251000,7.9132509765625,1.028535823008418,0.7599651119627058,1.7076774858489632
1761468632158207000,7.92320703125,0.9039894058853387,0.5495869160361587,1.5111607881449163
1761468632168161800,7.933161865234375,0.7738982141166925,0.2706121537454426,1.3587160180099307
1761468632178118000,7.943117919921875,0.7562590970516204,0.031160131286829706,1.2022424307502806
1761468632188074000,7.953073974609375,0.8045277456581592,-0.1528732246801257,1.0539546341642736
1761468632198029000,7.963029052734375,0.8031231395572423,-0.29166107925400137,0.9156538324549793
1761468632207985000,7.97298486328125,0.6705155810534954,-0.36399902410358187,0.7903696025766431
1761468632217941000,7.98294091796875,0.4749643673807382,-0.40846754977479577,0.6883699483044445
1761468632227896800,7.992896728515625,0.2488531802713871,-0.46215208595022556,0.6302670111648738
1761468632247184100,8.01218408203125,0.10382102448046207,-0.6007054011158645,0.5264074082396925
1761468632257140000,8.022139892578124,-0.15332242975234983,-0.7194765958383679,0.33941622538045046
1761468632267094800,8.0320947265625,-0.45365737545788287,-0.8348245381139219,0.09287906696647405
1761468632277051000,8.04205078125,-0.7045534597337245,-0.915224647257477,-0.1492182093039155
1761468632287007000,8.052007080078125,-0.9519827446818351,-0.9818402689374983,-0.2890716472826898
1761468632296963000,8.061963134765625,-1.0283762485325336,-1.0962746034994721,-0.37763708883374925
1761468632306918000,8.07191796875,-0.8408218788325786,-1.2658208766914902,-0.4324691876091063
1761468632316874000,8.0818740234375,-0.4587164124131202,-1.4261770044729112,-0.37197891694158314
1761468632326829800,8.091829833984375,-0.10022270772755146,-1.4323913489431142,-0.13776698709353805
1761468632336785000,8.101784912109375,0.10269757340848445,-1.372492614427954,0.11439604837819933
1761468632346741000,8.111740966796875,0.04005085535943508,-1.2138304310828447,0.2805054789893329
1761468632356696800,8.12169677734375,-0.16830489482879638,-0.97560327424407,0.3178087892062962
1761468632366652000,8.13165185546875,-0.6065121876984835,-0.7606655153170228,0.3280966667257249
1761468632376608000,8.14160791015625,-1.1197983946889638,-0.6209187525831162,0.288814896042645
1761468632386564000,8.151564208984375,-1.5575532676160335,-0.5972518996611237,0.1990330644391477
1761468632396519000,8.161518798828125,-1.6896663206011056,-0.661112961935997,0.05364011251181364
1761468632406474800,8.171474853515624,-1.6879893272995947,-0.8336106322795153,-0.14480346160158514
1761468632416430800,8.181430908203126,-1.8944623324811458,-1.0168092909879982,-0.2567566468723118
1761468632426386000,8.191385986328125,-2.2398937264978884,-0.9801002934023737,-0.28024434383511543
1761468632436342000,8.201342041015625,-2.579623694002628,-0.7266891575656831,-0.23541297620087862
1761468632446297600,8.211297607421875,-2.8384821354597807,-0.35255656972154975,-0.13621610438972712
1761468632456253400,8.22125341796875,-3.027320699751377,0.15338731168210507,0.051879240319132804
1761468632466208800,8.231208740234376,-3.2059348071485756,0.7180677519537508,0.27797172272801396
1761468632476164600,8.24116455078125,-3.3112679897576567,1.2024119420982897,0.5685124196499586
1761468632486120700,8.25112060546875,-3.2320471535265445,1.4945739566117524,0.7739902763143182
1761468632496075500,8.261075439453125,-2.9604063873857256,1.651374145477265,0.8592331493139267
1761468632506031900,8.271031982421874,-2.502028997668624,1.7006671686954795,0.7891209176898002
1761468632515987700,8.28098779296875,-1.8152338974654674,1.5967276324018835,0.6165959209479391
1761468632525942500,8.290942626953125,-1.0013841967105865,1.4066022431701422,0.38954935268461705
1761468632535898600,8.300898681640625,-0.12364099271595477,1.1980328502312303,0.18608108227699993
1761468632545854500,8.3108544921875,0.7746896567553281,0.9572316051207482,0.10637129348516464
1761468632555809800,8.320809814453124,1.4877309588491916,0.8058332752987742,0.14362754969000815
1761468632565765600,8.330765625,1.960705029195547,0.7488174027435481,0.21403774134740233
1761468632576344800,8.3413447265625,2.2421347834229466,0.809549811603874,0.2244853394731879
1761468632586300700,8.35130078125,2.120094211640954,0.7973508397661149,0.18631109164059162
1761468632596256800,8.3612568359375,1.8850871858924627,0.7827014060363173,0.164430099222064
1761468632606211600,8.371211669921875,1.6561171022206544,0.6917614904388785,0.0782103440143168
1761468632616167400,8.38116748046875,1.5732470958322287,0.5548848763138056,-0.02870294739305973
1761468632626123800,8.391123779296874,1.5686030694186686,0.4399798555001616,-0.03819280640259385
1761468632636078600,8.40107861328125,1.5590420448690652,0.38205066749230027,0.051558337801694866
1761468632646034700,8.41103466796875,1.5136977592766283,0.36671646636873484,0.08041413766890763
1761468632655990500,8.420990478515625,1.295155546116829,0.39776524623557924,0.10968567873016
1761468632665945600,8.430945556640625,1.0936363639503717,0.48371100680753587,0.16320771782025695
1761468632675901700,8.440901611328124,0.9405325453847646,0.5342372250825166,0.24780805513262746
1761468632685857500,8.450857421875,0.7799386633247136,0.6025844928607345,0.39429757012501354
1761468632695812600,8.4608125,0.5064981542855501,0.7731902119778096,0.6376387089766562
1761468632705768700,8.470768798828125,0.24199790754914283,0.9081617231339215,0.8296854216597974
1761468632715724800,8.480724853515625,0.02094166574180126,0.9333734674103558,0.9144405111424624
1761468632725680600,8.4906806640625,-0.12706746003329752,0.8788707467198371,0.9554919218465685
1761468632735635700,8.5006357421875,-0.1962491328090429,0.7491130246892571,0.9982450219020247
1761468632745591600,8.510591552734375,-0.08601999485194682,0.5756299965701996,1.0317505472712218
1761468632755547600,8.520547607421875,0.19514614000320432,0.3237355489067733,1.0094348166972398
1761468632765502700,8.530502685546875,0.44344577804505825,-0.03391396003961563,0.9657549571856856
1761468632775458600,8.54045849609375,0.6169172618567943,-0.32352102937325833,0.8896763645030558
1761468632785414700,8.55041455078125,0.8221066569685935,-0.5665607010602951,0.7664835539460182
1761468632795369700,8.56036962890625,1.0212918432295321,-0.8725356984794139,0.7410755564451217
1761468632805325800,8.570325927734375,1.1206623180419206,-1.1299629380896687,0.7271056294120848
1761468632815281700,8.58028173828125,1.1985574586272238,-1.2577766864456235,0.725416507281363
1761468632825237800,8.59023779296875,1.1591799724847078,-1.3617001483872533,0.7691291000187397
1761468632835192600,8.600192626953126,1.1047937177807092,-1.4691478389322756,0.7555880659222602
1761468632845148700,8.610148681640625,0.9547843580991029,-1.5732197694338856,0.7135486670941114
1761468632855104800,8.620104736328125,0.7653951741874218,-1.6676505958870051,0.5813853452265262
1761468632865059600,8.6300595703125,0.5732908860981464,-1.8208423849970101,0.46675592648386954
1761468632875015700,8.640015625,0.36692543294429775,-1.9358507200546562,0.49047012567892667
1761468632884971500,8.649971435546876,0.10752923134863376,-1.9410275381706654,0.47946825467124576
1761468632894926600,8.659926513671875,-0.17319558947980404,-1.9303990305200218,0.4304596013523638
1761468632904882700,8.669882568359375,-0.4198492138803005,-1.8962080071046947,0.4125973430559039
1761468632914838500,8.679838623046875,-0.7013812594383955,-1.8204206524536013,0.3444533427648246
1761468632924793600,8.689793701171874,-1.0302373662292956,-1.722527702847868,0.2378365500859916
1761468632934749700,8.699749755859376,-1.4341700490534304,-1.5723255970731376,0.1792752016544342
1761468632944705800,8.709705810546875,-1.8187205705374478,-1.4399769817665218,0.1351480367667973
1761468632954661600,8.71966162109375,-1.999032714024186,-1.3677473195970058,0.15251359758749602
1761468632964616400,8.729616455078125,-1.931068015822768,-1.4308020339250564,0.33773104877248405
1761468632974572500,8.739572509765624,-1.6017951449245214,-1.5208514304235576,0.405737686419487
1761468632984528600,8.749528564453126,-1.177151097983122,-1.4562350197367369,0.292860079780221
1761468632994483700,8.759483642578125,-1.107910388496518,-1.4200595445059239,0.3061665744684636
1761468633004439600,8.769439453125,-1.7336626987159252,-1.2396280124232173,0.39905309408903117
1761468633014395600,8.779395751953125,-2.66667887712121,-0.7895613549336791,0.36937764840200543
1761468633024350700,8.789350830078124,-3.4883962425112722,-0.0979378116607666,0.2245757942356169
1761468633034306600,8.799306640625,-4.232644583773613,0.5399212620683014,0.13204714814200996
1761468633044262700,8.8092626953125,-4.533177682399749,1.090361726193875,0.0017819149807095527
1761468633054218500,8.819218505859375,-4.153568708971142,1.4721445365302264,-0.015430062713474035
1761468633064173800,8.829173828125,-3.1923440886914727,1.6310095489710568,0.13875950526222586
1761468633074129700,8.839129638671874,-1.8792817144840954,1.5736736506812274,0.37697891718596216
1761468633084085800,8.849085693359376,-0.6598182459503412,1.4776802510865032,0.5749205331265926
1761468633094040600,8.85904052734375,0.1973433577865362,1.3731281358525156,0.812349817585945
1761468633103996700,8.86899658203125,0.7454039410382509,1.3279178519032895,0.9928764806061983
1761468633113952500,8.878952392578125,1.0048732078701257,1.35716937308982,1.0243455317117274
1761468633123907600,8.888907470703124,0.9507295297503471,1.4266549972482025,1.0675615731038153
1761468633133863700,8.89886376953125,0.8169038276284932,1.5752265792116522,1.0550140800893306
1761468633143819500,8.908819580078125,0.7155757890075445,1.7084097456462681,1.0162738689370452
1761468633153774800,8.91877490234375,0.6240700562208891,1.7422196607895195,0.9375013609953224
1761468633163730700,8.928730712890625,0.5543558840036392,1.7309310817949473,0.7922938486374914
1761468633173686800,8.938686767578124,0.49957683058977126,1.6888853993564843,0.5383810468889773
1761468633183642600,8.948642578125,0.43179976391494274,1.6156261018782854,0.22059417725354433
1761468633193597400,8.958597412109375,0.43290392576456066,1.5356978480301797,0.0491856173209846
1761468633203553800,8.9685537109375,0.5452320818275213,1.3836061291165649,-0.1268599547624588
1761468633213509600,8.978509521484375,0.7411269943714142,1.238973932428658,-0.25281667707487937
1761468633223464700,8.988464599609374,0.9510089312136173,1.076098953694105,-0.28978140298724175
1761468633233420500,8.998420654296876,1.1693804639816283,0.9376122740238905,-0.2340392036296427
1761468633243376600,9.008376708984375,1.494517257988453,0.8313388879552484,-0.10654825748726725
1761468633253331700,9.018331787109375,1.8291648076623677,0.7322310096018015,0.12917466144561768
1761468633263287600,9.02828759765625,2.0928233428776264,0.6966299732580781,0.4115618625283241
1761468633273243600,9.03824365234375,2.1887977455109358,0.6431032579928636,0.7587816012665629
1761468633283199500,9.048199462890626,2.1292127531200644,0.6098227735511959,1.002912721452117
1761468633293154800,9.05815478515625,1.9875760849863289,0.5701238003693521,1.0605671841718256
1761468633303110700,9.068110595703125,1.8650375005543232,0.4837396483801305,1.0712006602585316
1761468633313066800,9.078066650390625,1.8038725454956293,0.36144407892376185,1.065356610405445
1761468633323021600,9.088021484375,1.7885510577231645,0.2117084216170013,0.9866947232313453
1761468633332977400,9.097977294921876,1.6547715328305959,0.04304842974022031,0.7746651068359613
1761468633342933800,9.107933837890625,1.500554200065136,-0.08217793247103691,0.5898791789360344
1761468633352888600,9.117888671875,1.300119890525937,-0.20742650651410222,0.4367803288064897
1761468633362844700,9.1278447265625,0.9805611889123916,-0.3456375841133296,0.24210823605582116
1761468633372800500,9.137800537109374,0.5615227068930864,-0.44314825640320776,0.09481675703078508
1761468633382756600,9.147756591796876,0.28666064061820506,-0.5556852329112589,0.017536533473432064
1761468633392711700,9.157711669921875,0.1627484297454357,-0.7103938563250005,-0.04067234825864434
1761468633402667800,9.167667724609375,0.04157996462285518,-0.8339296351008116,-0.07379793439954518
1761468633412623600,9.17762353515625,-0.11761340298950672,-0.9457042489342391,-0.16064897324815391
1761468633422578700,9.18757861328125,-0.27780805659890173,-1.0680812130637467,-0.2557905783191323
1761468633432534800,9.19753466796875,-0.4495423413544893,-1.1254122890479863,-0.4070226116634905
1761468633442490000,9.207489990234375,-0.7083388234913349,-1.1490572223991156,-0.5341923630274832
1761468633452445000,9.21744482421875,-0.9522849424988031,-1.0676711709581315,-0.5578951640456915
1761468633462401000,9.227401123046874,-1.173851471915841,-0.918525734629482,-0.5423733313955367
1761468633472357000,9.237357177734374,-1.4348410801827907,-0.7036205627977847,-0.5359070579908788
1761468633482312200,9.247312255859375,-1.6598668101429939,-0.5084088102124631,-0.5071021115280687
1761468633492268000,9.25726806640625,-1.8250316533803939,-0.36031565941572186,-0.48049555189237
1761468633502224100,9.26722412109375,-1.9155296704292297,-0.2591606392741203,-0.5667709828101098
1761468633512180000,9.277179931640624,-1.924904232496023,-0.2475778996385634,-0.6624488867148757
1761468633522135300,9.28713525390625,-1.7046406023710965,-0.4067331271976232,-0.730884709559381
1761468633532091100,9.297091064453125,-1.158338260963559,-0.6955136825792491,-0.8947552752025425
1761468633542047200,9.307047119140625,-0.5029974526882172,-1.0202040479928254,-1.0765835223406552
1761468633552002300,9.317002197265625,-0.03678513156175613,-1.2183050922788679,-1.2052464348718523
1761468633561958100,9.326958251953124,-0.13466624459922313,-1.3625763466998935,-1.2323453080691396
1761468633571914200,9.336914306640624,-0.7689934909403323,-1.2024807695508002,-1.4069482801288367
1761468633581869000,9.346869140625,-1.800174860021472,-0.8171472809955477,-1.6686990820266305
1761468633591825200,9.3568251953125,-3.0222201617419717,-0.2697109671220183,-1.718207647691667
1761468633601781200,9.36678125,-3.949862830415368,0.5028011994637549,-1.597065047662705
1761468633611737300,9.3767373046875,-4.493932882726193,1.278471683949977,-1.2905495136260985
1761468633621692200,9.386692138671876,-4.524268399757147,1.913425830017775,-0.9476981992304324
1761468633631648000,9.39664794921875,-3.8215900862455365,2.320733396102488,-0.6571266687788069
1761468633641604000,9.40660400390625,-2.5995132203429936,2.3984917585656045,-0.40212636405453084
1761468633651559200,9.41655908203125,-1.3277221832007169,2.2808425536103547,-0.22506562357917426
1761468633661515300,9.426515380859374,-0.21349428212046623,2.1437923364840445,-0.11163717812411486
1761468633671471000,9.43647119140625,0.6718915455818176,1.9328120830111204,-0.010715382216498256
