time,seconds_elapsed,z,y,x
1761468624299449600,0.06444970703125,0.1794627606868744,-0.42121368646621704,0.03186073899269104
1761468624309405400,0.074405517578125,0.17526660859584808,-0.4157077670097351,0.03603291139006615
1761468624319360800,0.08436083984375,0.16265441477298737,-0.3624453544616699,0.0659407377243042
1761468624329316600,0.094316650390625,0.13490530848503113,-0.2928992807865143,0.13912032544612885
1761468624339272700,0.104272705078125,0.09035620838403702,-0.2423354685306549,0.24276630580425262
1761468624349227800,0.114227783203125,0.04340818151831627,-0.2155134379863739,0.33746761083602905
1761468624359183600,0.12418359375,0.01556403748691082,-0.20448556542396545,0.3832116425037384
1761468624369138700,0.134138671875,0.005899383220821619,-0.18783093988895416,0.36302053928375244
1761468624379094500,0.144094482421875,0.011306931264698505,-0.15925654768943787,0.27967262268066406
1761468624389050600,0.154050537109375,0.018268007785081863,-0.11844778060913086,0.15834666788578033
1761468624399005700,0.164005615234375,0.020123697817325592,-0.06534728407859802,0.00887649692595005
1761468624408961500,0.17396142578125,0.018704529851675034,0.0019596698693931103,-0.13496991991996765
1761468624418917600,0.183917724609375,0.01814579777419567,0.0675240308046341,-0.20870673656463623
1761468624428872400,0.19387255859375,0.002614038996398449,0.09498371183872223,-0.20913593471050262
1761468624438828500,0.20382861328125,-0.01667017675936222,0.07038835436105728,-0.16003203392028809
1761468624448784400,0.213784423828125,-0.030864477157592773,0.03182782977819443,-0.08239170163869858
1761468624458739200,0.2237392578125,-0.03487066924571991,0.018088847398757935,0.005357591435313225
1761468624468695300,0.2336953125,-0.024156687781214714,0.009116843342781067,0.07545105367898941
1761468624478651400,0.2436513671875,0.006194560322910547,-0.009095183573663235,0.11657212674617767
1761468624488606500,0.2536064453125,0.04320694878697395,-0.039409950375556946,0.13596640527248383
1761468624498562300,0.263562255859375,0.08352454751729965,-0.06243164837360382,0.14253509044647217
1761468624508518400,0.273518310546875,0.11799001693725586,-0.08560078591108322,0.14048199355602264
1761468624518473500,0.283473388671875,0.13860207796096802,-0.0931580439209938,0.12879258394241333
1761468624528429600,0.2934296875,0.14761075377464294,-0.06506640464067459,0.10962244868278503
1761468624538385400,0.303385498046875,0.1494627147912979,-0.024909134954214096,0.0855911374092102
1761468624548340200,0.31334033203125,0.14778199791908264,0.00037251925095915794,0.06001468002796173
1761468624558296300,0.32329638671875,0.13712136447429657,0.015251600183546543,0.042703598737716675
1761468624568251400,0.33325146484375,0.11934670060873032,0.011584768071770668,0.02781684696674347
1761468624578207500,0.34320751953125,0.09538304805755615,-0.008242465555667877,0.014604371972382069
1761468624588163300,0.353163330078125,0.07337374240159988,-0.00027232145657762885,0.010393492877483368
1761468624598118400,0.363118408203125,0.05734311416745186,0.011504709720611572,0.011781798675656319
1761468624608074500,0.373074462890625,0.04823360964655876,-0.0021847228053957224,0.006097692064940929
1761468624618030300,0.3830302734375,0.04937850311398506,-0.02891273982822895,-0.0015724776312708855
1761468624627985400,0.3929853515625,0.05763088911771774,-0.05267694219946861,-0.0017159923445433378
1761468624637941200,0.402941162109375,0.06892189383506775,-0.08164281398057938,0.0009839204140007496
1761468624647897600,0.412897705078125,0.07876832783222198,-0.09460103511810303,0.01377902738749981
1761468624657852400,0.422852294921875,0.08371834456920624,-0.08528050035238266,0.03809129074215889
1761468624667808300,0.432808349609375,0.08405710756778717,-0.06042983755469322,0.070042684674263
1761468624677764400,0.442764404296875,0.08450531959533691,-0.046437591314315796,0.09984451532363892
1761468624687719400,0.452719482421875,0.08344545215368271,-0.05395533889532089,0.10921868681907654
1761468624697675500,0.462675537109375,0.0772397518157959,-0.04317699372768402,0.1080346405506134
1761468624707631400,0.47263134765625,0.07544824481010437,-0.024140719324350357,0.09809385985136032
1761468624717586200,0.482586181640625,0.07562374323606491,-0.013356247916817665,0.07685142010450363
1761468624727542500,0.49254248046875,0.07679839432239532,0.003663204377517104,0.05446994677186012
1761468624737498400,0.502498291015625,0.0699484795331955,0.003436835715547204,0.03201310336589813
1761468624747453400,0.512453369140625,0.06311461329460144,-0.020053032785654068,0.011254837736487389
1761468624757409300,0.5224091796875,0.05783462896943092,-0.04124060645699501,0.0032690824009478092
1761468624767365400,0.532365478515625,0.047300975769758224,-0.04530184343457222,0.0030749505385756493
1761468624777320400,0.542320556640625,0.04066917300224304,-0.04989419877529144,0.015092197805643082
1761468624787276500,0.552276611328125,0.03992152959108353,-0.06730372458696365,0.030510498210787773
1761468624797232400,0.562232421875,0.04178973659873009,-0.08816639333963394,0.05198942497372627
1761468624807187200,0.572187255859375,0.04278597980737686,-0.101832315325737,0.07677307724952698
1761468624817143600,0.5821435546875,0.03813343867659569,-0.10924043506383896,0.0908990204334259
1761468624827099400,0.592099365234375,0.02542669139802456,-0.09582654386758804,0.09453512728214264
1761468624837054500,0.602054443359375,0.009549724869430065,-0.08238823711872101,0.0841623842716217
1761468624847010300,0.61201025390625,-0.008136498741805553,-0.07227771729230881,0.0620083212852478
1761468624856966400,0.62196630859375,-0.02071940153837204,-0.06061067059636116,0.030596069991588593
1761468624866921500,0.63192138671875,-0.031964562833309174,-0.040765322744846344,-0.0006091168615967035
1761468624876877300,0.641877197265625,-0.04024779424071312,-0.008052918128669262,-0.02203957363963127
1761468624886832400,0.651832275390625,-0.047403618693351746,0.023673759773373604,-0.03582349047064781
1761468624896788500,0.66178857421875,-0.05238506197929382,0.045707423239946365,-0.04329099506139755
1761468624906744600,0.67174462890625,-0.05373932421207428,0.049655113369226456,-0.05063571408390999
1761468624916699400,0.681699462890625,-0.045095767825841904,0.04210878163576126,-0.05601024255156517
1761468624926655200,0.6916552734375,-0.033268384635448456,0.022332774475216866,-0.05113823339343071
1761468624936611300,0.701611328125,-0.018146425485610962,-0.0003040951560251415,-0.03857557103037834
1761468624946566400,0.71156640625,-0.005615705158561468,-0.024953873828053474,-0.022962670773267746
1761468624956522500,0.7215224609375,0.0028028134256601334,-0.05001261830329895,-0.002591619733721018
1761468624966478300,0.731478271484375,0.0046820747666060925,-0.06350808590650558,0.012113668955862522
1761468624976433200,0.74143310546875,-0.00119285867549479,-0.05952293798327446,0.016504421830177307
1761468624986389500,0.751389404296875,-0.008202966302633286,-0.04670790210366249,0.007611216977238655
1761468624996345300,0.761345458984375,-0.011110338382422924,-0.03167648985981941,-0.0005535024683922529
1761468625006300400,0.771300537109375,-0.012935914099216461,-0.012666217982769012,-0.004763406701385975
1761468625016256300,0.78125634765625,-0.014217427000403404,0.010141626000404358,-0.006202844902873039
1761468625026212400,0.79121240234375,-0.011725697666406631,0.030951298773288727,-0.008562452159821987
1761468625036167400,0.80116748046875,-0.0137006975710392,0.056501664221286774,-0.0070838648825883865
1761468625046123500,0.81112353515625,-0.0158128272742033,0.07025785744190216,-0.0044342223554849625
1761468625056079400,0.821079345703125,-0.01593613065779209,0.07952672243118286,-0.0006219069473445415
1761468625066034400,0.831034423828125,-0.01334798987954855,0.08635072410106659,-0.0008817079942673445
1761468625075990500,0.840990478515625,-0.01072956994175911,0.07546026259660721,-0.0032117075752466917
1761468625085946400,0.8509462890625,-0.008771614171564579,0.04554896801710129,-0.011316239833831787
1761468625095901400,0.8609013671875,-0.005057569593191147,-0.0004131988971494138,-0.018387997522950172
1761468625105857300,0.870857177734375,-0.004728479776531458,-0.048774603754282,-0.028234457597136497
1761468625115813400,0.8808134765625,-0.010187161155045033,-0.09188585728406906,-0.03541141003370285
1761468625125768400,0.8907685546875,-0.022381292656064034,-0.11723959445953369,-0.03876857832074165
1761468625135724300,0.900724365234375,-0.03626195341348648,-0.12229560315608978,-0.04414736479520798
1761468625145680400,0.910680419921875,-0.04014827311038971,-0.08780845999717712,-0.04383324086666107
1761468625155635500,0.920635498046875,-0.03941057622432709,-0.0268431156873703,-0.037831541150808334
1761468625165591600,0.930591552734375,-0.02960006147623062,0.03141939640045166,-0.02833639085292816
1761468625175547400,0.94054736328125,-0.028474077582359314,0.06318345665931702,-0.029604852199554443
1761468625185502200,0.950502197265625,-0.03236633911728859,0.07879099994897842,-0.03575275093317032
1761468625195458300,0.960458251953125,-0.026976631954312325,0.08689792454242706,-0.04694335162639618
1761468625205413400,0.970413330078125,-0.01962142251431942,0.08775936812162399,-0.054934095591306686
1761468625215369500,0.980369384765625,-0.005631305277347565,0.0828319862484932,-0.05437083542346954
1761468625225325300,0.9903251953125,0.003013504669070244,0.06613236665725708,-0.04515305534005165
1761468625235280400,1.0002802734375,0.010280205868184566,0.038174767047166824,-0.0345534086227417
1761468625245236500,1.010236572265625,0.012433371506631374,0.015597021207213402,-0.025208376348018646
1761468625255192300,1.0201923828125,0.014522088691592216,0.002095060423016548,-0.020405367016792297
1761468625265147400,1.0301474609375,0.009296497330069542,0.0034219366498291492,-0.01619240827858448
1761468625275103200,1.040103271484375,0.005918543785810471,0.01358083076775074,-0.01152655016630888
1761468625285059300,1.050059326171875,0.00269832625053823,0.008798857219517231,-0.010446949861943722
1761468625295014400,1.060014404296875,0.0006713944603689015,-0.00151556555647403,-0.013193467631936073
1761468625304970500,1.069970458984375,0.0004495671018958092,0.006632018368691206,-0.01606876775622368
1761468625314926300,1.07992626953125,-0.0012697696220129728,0.02760201506316662,-0.021239828318357468
1761468625324881400,1.08988134765625,-0.000524385366588831,0.04396367445588112,-0.025608612224459648
1761468625334837500,1.09983740234375,-0.002166490536183119,0.04699807986617088,-0.03196238353848457
1761468625344793300,1.10979345703125,0.000525530194863677,0.03349887579679489,-0.03857876732945442
1761468625354748400,1.11974853515625,0.0013678880641236901,0.019679199904203415,-0.0386863574385643
1761468625364704300,1.129704345703125,0.00890803337097168,0.008669336326420307,-0.03329462558031082
1761468625374660600,1.13966064453125,0.015684179961681366,-0.006607354152947664,-0.023762106895446777
1761468625384615400,1.149615478515625,0.017080392688512802,-0.015561620704829693,-0.010359340347349644
1761468625394571300,1.1595712890625,0.013615087606012821,-0.010801486670970917,0.005223347805440426
1761468625404527400,1.16952734375,0.009348452091217041,0.01273217611014843,0.01587153971195221
1761468625414482400,1.179482421875,0.014073698781430721,0.030834747478365898,0.018008193001151085
1761468625424438500,1.1894384765625,0.02212301827967167,0.04099505394697189,0.005131950601935387
1761468625434395000,1.199394775390625,0.03103475458920002,0.04647184535861015,-0.014924314804375172
1761468625444349700,1.209349609375,0.03737369924783707,0.03643909469246864,-0.033207911998033524
1761468625454305800,1.219305908203125,0.028897922486066818,0.023260707035660744,-0.039664480835199356
1761468625464262000,1.229261962890625,0.019698385149240494,0.01244899071753025,-0.03461793065071106
1761468625474216700,1.239216796875,0.007923750206828117,-0.0006814589723944664,-0.025850804522633553
1761468625484172800,1.2491728515625,-0.0020079349633306265,-0.022266119718551636,-0.016255350783467293
1761468625494127900,1.2591279296875,-0.010771599598228931,-0.03785653039813042,-0.00775320827960968
1761468625504084000,1.269083984375,-0.01327398419380188,-0.04025842621922493,-0.0020062734838575125
1761468625514039800,1.279039794921875,-0.012918985448777676,-0.033316098153591156,-0.00042621977627277374
1761468625523994600,1.28899462890625,-0.01263478770852089,-0.01544735487550497,-0.002183823613449931
1761468625533950700,1.29895068359375,-0.010299728251993656,-0.0003283238038420677,-0.0045284703373909
1761468625543906800,1.30890673828125,-0.007690425496548414,0.01690570078790188,-0.007819176651537418
1761468625553862000,1.31886181640625,0.000006109708920121193,0.03592546284198761,-0.004211658611893654
1761468625563817700,1.328817626953125,0.006884661968797445,0.049900490790605545,-0.0019247436430305243
1761468625573773800,1.33877392578125,0.016024364158511162,0.05292743816971779,0.0012931538512930274
1761468625583729000,1.34872900390625,0.01946800760924816,0.039470311254262924,0.0017024113330990076
1761468625593684700,1.358684814453125,0.023536520078778267,0.015095197595655918,-0.001771948765963316
1761468625603640800,1.368640869140625,0.02051403373479843,-0.010193736292421818,-0.011014021001756191
1761468625613595600,1.378595703125,0.011489380151033401,-0.03316536545753479,-0.017935309559106827
1761468625623551700,1.3885517578125,-0.00038899003993719816,-0.04144628718495369,-0.02038361132144928
1761468625633507800,1.3985078125,-0.008453840389847755,-0.03661930561065674,-0.01461147703230381
1761468625643462700,1.408462646484375,-0.011631169356405735,-0.02621069923043251,-0.006697023753076792
1761468625653418800,1.418418701171875,-0.013075667433440685,-0.010555041022598743,-0.0022703176364302635
1761468625663374600,1.42837451171875,-0.01105003897100687,0.005037585273385048,-0.00032544462010264397
1761468625673330000,1.438329833984375,-0.00939861312508583,0.020848507061600685,-0.004069848917424679
1761468625683285800,1.44828564453125,-0.008802169002592564,0.03211678937077522,-0.010477069765329361
1761468625693241900,1.458241943359375,-0.01055239886045456,0.029782796278595924,-0.023677825927734375
1761468625703196700,1.46819677734375,-0.008418926037847996,0.019700244069099426,-0.03195108845829964
1761468625713152800,1.47815283203125,-0.008002141490578651,0.013754203915596008,-0.03776689991354942
1761468625723108900,1.48810888671875,-0.008512782864272594,0.0049692317843437195,-0.03379354998469353
1761468625733063700,1.498063720703125,-0.010967151261866093,0.006697623059153557,-0.030035831034183502
1761468625743019800,1.508019775390625,-0.010324837639927864,0.011766956187784672,-0.027204709127545357
1761468625752975600,1.5179755859375,-0.0068568699061870575,0.015838395804166794,-0.03377046436071396
1761468625762931000,1.527930908203125,-0.004244042094796896,0.01395128108561039,-0.041037965565919876
1761468625772886800,1.53788671875,-0.0031381805893033743,0.007482721470296383,-0.04788198694586754
1761468625782843000,1.5478427734375,-0.0010294802486896515,0.013408973813056946,-0.05124592036008835
1761468625792797700,1.557797607421875,0.002098668599501252,0.03974044695496559,-0.05472773686051369
1761468625802753800,1.56775390625,0.008900178596377373,0.041368793696165085,-0.059566061943769455
1761468625812708900,1.577708984375,0.011755886487662792,0.030761156231164932,-0.06031947210431099
1761468625822664700,1.587664794921875,0.00705413892865181,0.02657475508749485,-0.059363823384046555
1761468625832620800,1.597620849609375,0.002486018929630518,0.032500822097063065,-0.06186347082257271
1761468625842576000,1.607575927734375,-0.0013902216451242566,0.04098333790898323,-0.07171867042779922
1761468625852531700,1.61753173828125,-0.0035290063824504614,0.051546234637498856,-0.08913547545671463
1761468625862487800,1.62748779296875,-0.0010653650388121605,0.04971779137849808,-0.10414157807826996
1761468625872442600,1.637442626953125,0.006950749550014734,0.039300039410591125,-0.12070537358522415
1761468625882398700,1.647398681640625,0.018674757331609726,0.025850458070635796,-0.14120341837406158
1761468625892354800,1.657354736328125,0.028007006272673607,0.016088640317320824,-0.1477271020412445
1761468625902309600,1.6673095703125,0.03655118867754936,0.01797335408627987,-0.1427639126777649
1761468625912265700,1.677265625,0.04787095636129379,0.02670346200466156,-0.1278827041387558
1761468625922221600,1.6872216796875,0.058751821517944336,0.047543857246637344,-0.11173899471759796
1761468625932177000,1.697177001953125,0.07055122405290604,0.05973340943455696,-0.10606193542480469
1761468625942132700,1.7071328125,0.0805278792977333,0.06748881191015244,-0.10342397540807724
1761468625952088800,1.7170888671875,0.08686220645904541,0.06108550354838371,-0.10971462726593018
1761468625962043600,1.727043701171875,0.09732700139284134,0.03489108383655548,-0.10469406843185425
1761468625972000000,1.737,0.09890492260456085,-0.010388246737420559,-0.10550979524850845
1761468625981955800,1.746955810546875,0.10048937052488327,-0.0477384515106678,-0.10281029343605042
1761468625991910700,1.75691064453125,0.10439463704824448,-0.07640471309423447,-0.09939505904912949
1761468626001866800,1.76686669921875,0.11059894412755966,-0.08596137911081314,-0.0942562147974968
1761468626011822600,1.776822509765625,0.12146517634391785,-0.07867976278066635,-0.09553266316652298
1761468626021778000,1.78677783203125,0.13935956358909607,-0.0407639779150486,-0.09798075258731842
1761468626031733800,1.796733642578125,0.15036161243915558,0.0026961462572216988,-0.10446261614561081
1761468626041689900,1.80668994140625,0.15246839821338654,0.04467892274260521,-0.11186489462852478
1761468626051645000,1.81664501953125,0.15054665505886078,0.08952922374010086,-0.12161606550216675
1761468626061600800,1.826600830078125,0.147593155503273,0.12139865010976791,-0.133897066116333
1761468626071556900,1.836556884765625,0.14601017534732819,0.13106031715869904,-0.1505892276763916
1761468626081511700,1.84651171875,0.15208926796913147,0.12151582539081573,-0.16143743693828583
1761468626091467800,1.8564677734375,0.14962583780288696,0.11039446294307709,-0.15576569736003876
1761468626101423600,1.866423583984375,0.1466868370771408,0.10035257041454315,-0.14343996345996857
1761468626111378700,1.876378662109375,0.15488457679748535,0.06277856230735779,-0.13561318814754486
1761468626121334800,1.886334716796875,0.1662789285182953,0.01872444711625576,-0.1419868767261505
1761468626131290600,1.89629052734375,0.18197986483573914,-0.01665937528014183,-0.15767556428909302
1761468626141246000,1.906245849609375,0.1945534199476242,-0.05313436686992645,-0.18539950251579285
1761468626151201800,1.916201904296875,0.20257645845413208,-0.09606185555458069,-0.2178482562303543
1761468626161156600,1.926156494140625,0.2033890038728714,-0.103999063372612,-0.25192132592201233
1761468626171112700,1.93611279296875,0.1968056708574295,-0.08525573462247849,-0.28708916902542114
1761468626181068500,1.946068603515625,0.19488492608070374,-0.06433837115764618,-0.32099419832229614
1761468626191023900,1.95602392578125,0.20043841004371643,-0.03290056064724922,-0.3469219207763672
1761468626200979700,1.965979736328125,0.21595755219459534,-0.01825316995382309,-0.3640773892402649
1761468626210935800,1.975935791015625,0.2431204617023468,-0.0382564403116703,-0.3712697923183441
1761468626220891000,1.985890869140625,0.27714812755584717,-0.06697836518287659,-0.3635077178478241
1761468626230847000,1.995846923828125,0.3119412660598755,-0.09344273060560226,-0.3426983058452606
1761468626240802800,2.005802734375,0.34166982769966125,-0.11890637129545212,-0.31898191571235657
1761468626250757600,2.015757568359375,0.3729023039340973,-0.13456417620182037,-0.29567021131515503
1761468626260713700,2.025713623046875,0.40485143661499023,-0.1333552598953247,-0.2707425653934479
1761468626270669800,2.035669921875,0.43590840697288513,-0.11459381878376007,-0.24681085348129272
1761468626280625000,2.045625,0.4654480814933777,-0.08669667690992355,-0.22203263640403748
1761468626290580700,2.055580810546875,0.4848366975784302,-0.046326350420713425,-0.19368354976177216
1761468626300536800,2.065536865234375,0.48964250087738037,0.0192159041762352,-0.1557817906141281
1761468626310492000,2.075491943359375,0.4881122410297394,0.08808525651693344,-0.11510946601629257
1761468626320447700,2.08544775390625,0.49663370847702026,0.13871930539608002,-0.08149591088294983
1761468626330403800,2.09540380859375,0.5154217481613159,0.1567971110343933,-0.06171688064932823
1761468626340358700,2.105358642578125,0.5448122620582581,0.14676037430763245,-0.04976386949419975
1761468626350314800,2.115314697265625,0.5707280039787292,0.11913246661424637,-0.039497118443250656
1761468626360270800,2.125270751953125,0.5879396796226501,0.0573212094604969,-0.02412373200058937
1761468626370225700,2.1352255859375,0.6011857390403748,-0.00806578528136015,0.0032793974969536066
1761468626380181800,2.145181640625,0.6208470463752747,-0.03893369063735008,0.0465175025165081
1761468626390137600,2.1551376953125,0.64323490858078,-0.05401277542114258,0.0861075147986412
1761468626400093000,2.165093017578125,0.664074182510376,-0.07988192141056061,0.11127971857786179
1761468626410048800,2.175048828125,0.6861411333084106,-0.11828603595495224,0.11276336014270782
1761468626420004900,2.1850048828125,0.7086234092712402,-0.1573580652475357,0.10907325148582458
1761468626429959400,2.19495947265625,0.7218550443649292,-0.18199950456619263,0.11238622665405273
1761468626439915800,2.204915771484375,0.7217448949813843,-0.20684599876403809,0.1295774132013321
1761468626449871600,2.21487158203125,0.7111955881118774,-0.25015324354171753,0.13456684350967407
1761468626459826400,2.224826416015625,0.6857405304908752,-0.31130287051200867,0.13561099767684937
1761468626469782500,2.234782470703125,0.6328477263450623,-0.3688761591911316,0.12941008806228638
1761468626479738400,2.24473828125,0.5540599822998047,-0.42719948291778564,0.12021324038505554
1761468626489693700,2.254693603515625,0.4518822133541107,-0.47599124908447266,0.10503242909908295
1761468626499649500,2.2646494140625,0.34209612011909485,-0.4886064827442169,0.09316956996917725
1761468626509605600,2.274605712890625,0.24085630476474762,-0.4716528058052063,0.08121144771575928
1761468626519560400,2.284560546875,0.15787412226200104,-0.44177594780921936,0.0640937015414238
1761468626529516500,2.2945166015625,0.08739756792783737,-0.40574416518211365,0.047651078552007675
1761468626539472600,2.30447265625,0.016308460384607315,-0.3672991991043091,0.0342840775847435
1761468626549427500,2.314427490234375,-0.04966310039162636,-0.32294586300849915,0.022749926894903183
1761468626559383600,2.324383544921875,-0.1086328998208046,-0.2696448266506195,0.0181054025888443
1761468626569339400,2.33433935546875,-0.1426185667514801,-0.17120562493801117,0.023868218064308167
1761468626579294500,2.34429443359375,-0.13965268433094025,-0.07148914784193039,0.03808634728193283
1761468626589250600,2.35425048828125,-0.1148298904299736,-0.03412552922964096,0.040270403027534485
1761468626599205400,2.364205322265625,-0.10155872255563736,-0.0719420537352562,0.033354151993989944
1761468626609161700,2.37416162109375,-0.1184397041797638,-0.1512099802494049,0.016939224675297737
1761468626619117600,2.38411767578125,-0.16717012226581573,-0.22105447947978973,0.0027911572251468897
1761468626629072600,2.39407275390625,-0.2374112606048584,-0.2663761377334595,-0.001158843282610178
1761468626639028500,2.404028564453125,-0.3204483389854431,-0.2689782381057739,0.007551790215075016
1761468626648984600,2.413984619140625,-0.40816834568977356,-0.22370052337646484,0.021064670756459236
1761468626658939600,2.423939697265625,-0.49475741386413574,-0.12311176210641861,0.0338977575302124
1761468626668895500,2.4338955078125,-0.5729348063468933,0.030527599155902863,0.04032609611749649
1761468626678851600,2.4438515625,-0.6377074718475342,0.20845524966716766,0.035210419446229935
1761468626688806700,2.453806640625,-0.6794613003730774,0.37542054057121277,0.030597824603319168
1761468626698762800,2.4637626953125,-0.7023794054985046,0.5118764638900757,0.03982902318239212
1761468626708718600,2.473718505859375,-0.7042937278747559,0.5926080942153931,0.06301716715097427
1761468626718673400,2.48367333984375,-0.6856288909912109,0.6194437742233276,0.11306045949459076
1761468626728629500,2.49362939453125,-0.6428254842758179,0.5994447469711304,0.1869991421699524
1761468626738585600,2.503585693359375,-0.5836350321769714,0.5301573276519775,0.2795915901660919
1761468626748540700,2.513540771484375,-0.5140913724899292,0.43065255880355835,0.3787376284599304
1761468626758496500,2.52349658203125,-0.4515995979309082,0.3304758071899414,0.47645363211631775
1761468626768452600,2.53345263671875,-0.4099797308444977,0.2401203215122223,0.5507702231407166
1761468626778407700,2.54340771484375,-0.3887118697166443,0.15080605447292328,0.5855315327644348
1761468626788363500,2.553363525390625,-0.38191336393356323,0.0711064413189888,0.5764509439468384
1761468626798319600,2.563319580078125,-0.3803867697715759,0.005347672384232283,0.518012523651123
1761468626808274400,2.5732744140625,-0.3818539083003998,-0.06030164286494255,0.4268355071544647
1761468626818230500,2.58323046875,-0.39027053117752075,-0.10439161211252213,0.32224470376968384
1761468626828186600,2.5931865234375,-0.4138203263282776,-0.13113242387771606,0.22243157029151917
1761468626838141400,2.603141357421875,-0.43852129578590393,-0.15414993464946747,0.13489799201488495
1761468626848097500,2.61309765625,-0.4643608629703522,-0.16452133655548096,0.0707179382443428
1761468626858053400,2.623053466796875,-0.4856800436973572,-0.15126146376132965,0.029697930440306664
1761468626868008700,2.6330087890625,-0.4944162666797638,-0.11166851967573166,0.004067668691277504
1761468626877964500,2.642964599609375,-0.4990265369415283,-0.06693317741155624,-0.01657075248658657
1761468626887920600,2.652920654296875,-0.501438558101654,-0.02420649304986,-0.04287585988640785
1761468626897875500,2.66287548828125,-0.5004233121871948,0.015077712945640087,-0.0716882050037384
1761468626907831600,2.67283154296875,-0.4931054413318634,0.05593806132674217,-0.10177180916070938
1761468626917787600,2.68278759765625,-0.47979554533958435,0.0802423283457756,-0.13404613733291626
1761468626927742500,2.692742431640625,-0.46951523423194885,0.09703249484300613,-0.1673998236656189
1761468626937698600,2.702698486328125,-0.4583294689655304,0.12048393487930298,-0.19647125899791718
1761468626947654400,2.712654296875,-0.4421744644641876,0.12845982611179352,-0.22717325389385223
1761468626957609700,2.722609619140625,-0.42184877395629883,0.11643663793802261,-0.2612900733947754
1761468626967565600,2.732565673828125,-0.4066549241542816,0.10281030833721161,-0.2830965518951416
1761468626977521700,2.742521728515625,-0.3827812969684601,0.08179344236850739,-0.2976244390010834
1761468626987476500,2.7524765625,-0.3522162139415741,0.043479081243276596,-0.29622122645378113
1761468626997432600,2.7624326171875,-0.3207179009914398,-0.0076130470260977745,-0.2764246463775635
1761468627007388700,2.772388671875,-0.2840680181980133,-0.06122008338570595,-0.24641160666942596
1761468627017343500,2.782343505859375,-0.22836509346961975,-0.11165724694728851,-0.2231944054365158
1761468627027299600,2.792299560546875,-0.16162122786045074,-0.16593725979328156,-0.20824821293354034
1761468627037255400,2.80225537109375,-0.09103420376777649,-0.21284866333007812,-0.1866929531097412
1761468627047210500,2.81221044921875,-0.03172347694635391,-0.2660423517227173,-0.1593923568725586
1761468627057166600,2.82216650390625,0.008867714554071426,-0.34349891543388367,-0.1335691660642624
1761468627067121400,2.832121337890625,0.037440236657857895,-0.4114265739917755,-0.10913359373807907
1761468627077077500,2.842077392578125,0.06870342791080475,-0.47736430168151855,-0.08722546696662903
1761468627087033600,2.85203369140625,0.10433918237686157,-0.5341019034385681,-0.06089266389608383
1761468627096988700,2.86198876953125,0.13005101680755615,-0.564303457736969,-0.030942479148507118
1761468627106944500,2.871944580078125,0.1374543458223343,-0.5787854790687561,0.003115888452157378
1761468627116900400,2.881900390625,0.12340719252824783,-0.5609313249588013,0.05167529731988907
1761468627126855700,2.891855712890625,0.10030613839626312,-0.4947424829006195,0.11388114094734192
1761468627136811500,2.9018115234375,0.0930483341217041,-0.3473375737667084,0.18987208604812622
1761468627146767600,2.911767578125,0.11990045756101608,-0.12946972250938416,0.26523634791374207
1761468627156722400,2.921722412109375,0.17422907054424286,0.11233315616846085,0.3357263207435608
1761468627166678800,2.9316787109375,0.24598874151706696,0.35474127531051636,0.39305379986763
1761468627176634600,2.941634521484375,0.30882149934768677,0.5552321076393127,0.4142519235610962
1761468627186589400,2.95158935546875,0.3399890065193176,0.5905794501304626,0.36771637201309204
1761468627196545500,2.961545654296875,0.324316143989563,0.39215123653411865,0.26043206453323364
1761468627206501400,2.97150146484375,0.26365411281585693,0.03541281074285507,0.13869285583496094
1761468627216456700,2.981456787109375,0.1484929472208023,-0.30510932207107544,0.07798250764608383
1761468627226412500,2.99141259765625,0.026007501408457756,-0.5603094100952148,0.11899598687887192
1761468627236368600,3.00136865234375,-0.06297192722558975,-0.6939740777015686,0.24540242552757263
1761468627246323700,3.01132373046875,-0.11575205624103546,-0.5918357372283936,0.43264636397361755
1761468627256279600,3.021279541015625,-0.13791780173778534,-0.24999666213989258,0.6331493258476257
1761468627266235600,3.031235595703125,-0.12198571860790253,0.22846898436546326,0.7771927714347839
1761468627276190500,3.0411904296875,-0.06859683245420456,0.7039250135421753,0.8028791546821594
1761468627286146600,3.051146484375,-0.0003565249207895249,1.0779014825820923,0.7164922952651978
1761468627296102400,3.061102294921875,0.06465905904769897,1.3270560503005981,0.5520005226135254
1761468627306057500,3.071057373046875,0.12171142548322678,1.4240667819976807,0.34847086668014526
1761468627316013600,3.081013671875,0.17046795785427094,1.3586080074310303,0.1408900022506714
1761468627325969400,3.090969482421875,0.21978090703487396,1.1663964986801147,-0.03795591741800308
1761468627335924700,3.1009248046875,0.2536250948905945,0.8856991529464722,-0.15740878880023956
1761468627345880600,3.110880615234375,0.29464203119277954,0.559495747089386,-0.2053837776184082
1761468627355836700,3.120836669921875,0.3384990394115448,0.21008972823619843,-0.18710437417030334
1761468627365791500,3.13079150390625,0.3851490914821625,-0.1535968780517578,-0.116041399538517
1761468627375747300,3.140747314453125,0.4418719708919525,-0.4962364137172699,-0.002622678643092513
1761468627385703700,3.15070361328125,0.504040002822876,-0.7322670817375183,0.13122673332691193
1761468627395658500,3.160658447265625,0.5668367147445679,-0.8448880910873413,0.2535349130630493
1761468627405614600,3.170614501953125,0.6360775828361511,-0.8449117541313171,0.34471598267555237
1761468627415570400,3.1805703125,0.7013074159622192,-0.7490599751472473,0.3840748965740204
1761468627425525800,3.19052587890625,0.7430322170257568,-0.567893922328949,0.3626684248447418
1761468627435481000,3.200481201171875,0.7574142217636108,-0.3495936393737793,0.28535667061805725
1761468627445437000,3.21043701171875,0.7461141347885132,-0.1287752389907837,0.15884000062942505
1761468627455392000,3.22039208984375,0.7206004858016968,0.08580638468265533,0.009808320552110672
1761468627465348000,3.23034814453125,0.6945510506629944,0.2736167907714844,-0.130804181098938
1761468627475304200,3.24030419921875,0.6762864589691162,0.39600393176078796,-0.24377131462097168
1761468627485259000,3.250259033203125,0.6528685092926025,0.41859737038612366,-0.33033815026283264
1761468627495215000,3.260215087890625,0.6266921758651733,0.37777459621429443,-0.372419536113739
1761468627505171000,3.2701708984375,0.6076872944831848,0.28014764189720154,-0.3769647479057312
1761468627515126000,3.2801259765625,0.6027145385742188,0.12965533137321472,-0.35571548342704773
1761468627525082000,3.29008203125,0.5928709506988525,-0.033163946121931076,-0.3150237202644348
1761468627535038000,3.300037841796875,0.5715017318725586,-0.17892113327980042,-0.2609958350658417
1761468627544993300,3.3099931640625,0.5380580425262451,-0.3022489547729492,-0.20572219789028168
1761468627554949000,3.31994921875,0.4898221790790558,-0.37037569284439087,-0.1542406976222992
1761468627564905200,3.3299052734375,0.4265023469924927,-0.3816896080970764,-0.12087342143058777
1761468627574860000,3.339860107421875,0.35980233550071716,-0.34917303919792175,-0.09726773947477341
1761468627584815900,3.34981591796875,0.29518768191337585,-0.258077472448349,-0.08376764506101608
1761468627594772200,3.359772216796875,0.23430337011814117,-0.10270741581916809,-0.08082558214664459
1761468627604727000,3.36972705078125,0.18004225194454193,0.07029525190591812,-0.09657870978116989
1761468627614683100,3.37968310546875,0.13109371066093445,0.20928287506103516,-0.13950853049755096
1761468627624639000,3.389638916015625,0.09854455292224884,0.2846871018409729,-0.19202233850955963
1761468627634594000,3.399593994140625,0.07555724680423737,0.296791672706604,-0.23430761694908142
1761468627644550100,3.409550048828125,0.053537704050540924,0.2531898617744446,-0.25055262446403503
1761468627654506000,3.419506103515625,0.03872304409742355,0.18153797090053558,-0.23101063072681427
1761468627664461000,3.4294609375,0.018936553969979286,0.08827567100524902,-0.1830950379371643
1761468627674417000,3.4394169921875,0.005369223654270172,-0.016980083659291267,-0.1207260936498642
1761468627684373200,3.449373291015625,-0.0008694978896528482,-0.1214284673333168,-0.059505611658096313
1761468627694328000,3.459328125,-0.002189996186643839,-0.21271879971027374,0.006501868367195129
1761468627704284000,3.469283935546875,0.012269370257854462,-0.2775481045246124,0.08721242845058441
1761468627714240000,3.479239990234375,0.04183262586593628,-0.3301362097263336,0.17198684811592102
1761468627724195000,3.489195068359375,0.07418657094240189,-0.39316844940185547,0.24199922382831573
1761468627734151200,3.499151123046875,0.09850005060434341,-0.4542720317840576,0.28263816237449646
1761468627744107000,3.50910693359375,0.09210660308599472,-0.4622500538825989,0.28867101669311523
1761468627754062000,3.51906201171875,0.07016654312610626,-0.3829798400402069,0.25701773166656494
1761468627764018200,3.52901806640625,0.0333736427128315,-0.29389336705207825,0.1539560705423355
1761468627773974000,3.53897412109375,-0.03922759369015694,-0.2736421525478363,-0.023536469787359238
1761468627783929000,3.54892919921875,-0.1718924343585968,-0.326080858707428,-0.240370512008667
1761468627793885000,3.558885009765625,-0.35787534713745117,-0.40386301279067993,-0.43627259135246277
1761468627803841000,3.568841064453125,-0.5840176343917847,-0.49978846311569214,-0.5882701277732849
1761468627813796000,3.578796142578125,-0.8146201372146606,-0.5896549820899963,-0.6888982653617859
1761468627823752200,3.588752197265625,-1.0082111358642578,-0.5893404483795166,-0.721393883228302
1761468627833708000,3.5987080078125,-1.1611589193344116,-0.4861504137516022,-0.6917081475257874
1761468627843663000,3.6086630859375,-1.2334800958633423,-0.29614028334617615,-0.5918270349502563
1761468627853619200,3.618619140625,-1.224497675895691,-0.04851803928613663,-0.4476948082447052
1761468627863575000,3.628574951171875,-1.1280217170715332,0.2341562658548355,-0.2739962637424469
1761468627873530000,3.638530029296875,-0.9626547694206238,0.49944397807121277,-0.10172216594219208
1761468627883486000,3.64848583984375,-0.7696205973625183,0.6900932192802429,0.05313771590590477
1761468627893442000,3.658442138671875,-0.5823208093643188,0.7829699516296387,0.18826496601104736
1761468627903397000,3.668397216796875,-0.433319628238678,0.750588595867157,0.3050869107246399
1761468627913353000,3.67835302734375,-0.3262951970100403,0.6004537343978882,0.4022992253303528
1761468627923309000,3.68830908203125,-0.2615590989589691,0.38613614439964294,0.4833064675331116
1761468627933264100,3.69826416015625,-0.23430149257183075,0.1297347992658615,0.530168354511261
1761468627943220200,3.70822021484375,-0.2504730224609375,-0.13906390964984894,0.5512158274650574
1761468627953176000,3.718176025390625,-0.3122140169143677,-0.3769272565841675,0.5362794995307922
1761468627963131000,3.728130859375,-0.4038264751434326,-0.5545377731323242,0.50087970495224
1761468627973087000,3.7380869140625,-0.5028256773948669,-0.6672641634941101,0.4522547423839569
1761468627983043000,3.74804296875,-0.5967527031898499,-0.7146692276000977,0.3932063579559326
1761468627992998100,3.757998046875,-0.6822890043258667,-0.7138013243675232,0.33136168122291565
1761468628002954000,3.7679541015625,-0.7702643871307373,-0.6761881709098816,0.26376453042030334
1761468628012910000,3.77791015625,-0.8497276902198792,-0.6071125268936157,0.17353950440883636
1761468628022865200,3.787865234375,-0.9178470969200134,-0.49973198771476746,0.060944508761167526
1761468628032821200,3.7978212890625,-0.9669677019119263,-0.3669877052307129,-0.05298102647066116
1761468628042777000,3.807777099609375,-1.0020968914031982,-0.21069425344467163,-0.15186844766139984
1761468628052732000,3.81773193359375,-1.0239776372909546,-0.08816496282815933,-0.2420971691608429
1761468628062688000,3.82768798828125,-1.0466030836105347,-0.011112517677247524,-0.31772881746292114
1761468628072644000,3.83764404296875,-1.076094150543213,0.027391016483306885,-0.3748747706413269
1761468628082599200,3.84759912109375,-1.0996532440185547,0.01682678982615471,-0.41280245780944824
1761468628092555000,3.857554931640625,-1.11477530002594,-0.01244259625673294,-0.41986438632011414
1761468628102511000,3.867510986328125,-1.104028582572937,-0.046392038464546204,-0.40624871850013733
1761468628112466200,3.877466064453125,-1.0618205070495605,-0.09314577281475067,-0.3874654769897461
1761468628122422000,3.887422119140625,-1.0043315887451172,-0.12671971321105957,-0.3650382161140442
1761468628132378000,3.897378173828125,-0.9401330351829529,-0.14649289846420288,-0.3399779498577118
1761468628142333000,3.9073330078125,-0.8765484690666199,-0.1547452211380005,-0.32084181904792786
1761468628152289300,3.917289306640625,-0.8095690011978149,-0.14119230210781097,-0.3019728362560272
1761468628162245000,3.9272451171875,-0.7416841983795166,-0.10257168859243393,-0.2825693190097809
1761468628172200000,3.937199951171875,-0.6847360134124756,-0.04343379661440849,-0.2489052414894104
1761468628182156000,3.947156005859375,-0.6330864429473877,0.00526183657348156,-0.19929641485214233
1761468628192111900,3.95711181640625,-0.5814663767814636,0.0300370454788208,-0.14134015142917633
1761468628202067200,3.967067138671875,-0.5354690551757812,0.019610770046710968,-0.08334023505449295
1761468628212023000,3.97702294921875,-0.5060418844223022,-0.015082227997481823,-0.02858608216047287
1761468628221979100,3.986979248046875,-0.4810238182544708,-0.04806441068649292,0.01703626476228237
1761468628235044000,4.000044189453125,-0.4261178970336914,-0.07644731551408768,0.06871672719717026
1761468628245000200,4.010000244140625,-0.3599218428134918,-0.07897891849279404,0.09866636991500854
1761468628254956000,4.0199560546875,-0.2883695662021637,-0.06867470592260361,0.13109828531742096
1761468628264911000,4.0299111328125,-0.2132716178894043,-0.04315337538719177,0.1560739427804947
1761468628274867000,4.039866943359375,-0.14588597416877747,-0.0054795872420072556,0.16951507329940796
1761468628284823300,4.0498232421875,-0.07209698855876923,0.07584137469530106,0.1586320698261261
1761468628294778000,4.059778076171875,0.013674643822014332,0.177827388048172,0.09881000965833664
1761468628304734000,4.06973388671875,0.10632495582103729,0.2047511488199234,-0.0374133475124836
1761468628314690000,4.07968994140625,0.17260651290416718,0.02735425904393196,-0.23814058303833008
1761468628324645000,4.08964501953125,0.17359846830368042,-0.3473757803440094,-0.4471697509288788
1761468628334601200,4.099601318359375,0.06661653518676758,-0.7914668321609497,-0.5781843066215515
1761468628344557000,4.10955712890625,-0.09827227890491486,-1.182968020439148,-0.5581501722335815
1761468628354512000,4.119511962890625,-0.26117420196533203,-1.4419726133346558,-0.40226879715919495
1761468628364468200,4.12946826171875,-0.37434789538383484,-1.3970533609390259,-0.13619954884052277
1761468628374424000,4.139424072265625,-0.41323158144950867,-0.9382457137107849,0.16708053648471832
1761468628384379100,4.149379150390625,-0.3711978495121002,-0.18189625442028046,0.43340861797332764
1761468628394335000,4.1593349609375,-0.26379382610321045,0.6103777885437012,0.5850416421890259
1761468628404291000,4.169291015625,-0.11328501254320145,1.2187806367874146,0.5665515661239624
1761468628414246100,4.17924609375,0.038017623126506805,1.6055387258529663,0.4343567192554474
1761468628424202000,4.189201904296875,0.18093349039554596,1.7553598880767822,0.25092244148254395
1761468628434158000,4.199157958984375,0.3295813202857971,1.677493691444397,0.06641566753387451
1761468628444113000,4.20911279296875,0.48305636644363403,1.435203194618225,-0.06729844957590103
1761468628454069000,4.219069091796875,0.6274774074554443,1.0656687021255493,-0.11573014408349991
1761468628464024800,4.22902490234375,0.7385956645011902,0.5977059602737427,-0.07613666355609894
1761468628473980000,4.23897998046875,0.815636157989502,0.06390179693698883,0.034993600100278854
1761468628483935700,4.248935791015625,0.854110836982727,-0.4693799316883087,0.18631228804588318
1761468628493891800,4.258891845703125,0.8499131798744202,-0.9067069888114929,0.3412749767303467
1761468628503847000,4.268846923828125,0.8236624002456665,-1.2009031772613525,0.47139063477516174
1761468628513803000,4.278802978515625,0.7818971872329712,-1.3203470706939697,0.5623944401741028
1761468628523758800,4.2887587890625,0.7297365069389343,-1.274235486984253,0.6093699336051941
1761468628533714000,4.2987138671875,0.686288595199585,-1.071204662322998,0.6032086610794067
1761468628543670000,4.308669921875,0.6532363295555115,-0.7696128487586975,0.5284619927406311
1761468628553625900,4.3186259765625,0.6120355725288391,-0.44750848412513733,0.38579675555229187
1761468628563581000,4.328580810546875,0.5497170686721802,-0.1143755316734314,0.19870729744434357
1761468628574161000,4.339160888671875,0.4727550745010376,0.21026593446731567,-0.028777562081813812
1761468628584116000,4.349115966796875,0.42082449793815613,0.45679768919944763,-0.22920840978622437
1761468628594071800,4.35907177734375,0.3960743546485901,0.6532365679740906,-0.38701534271240234
1761468628604028000,4.36902783203125,0.38208264112472534,0.7571120858192444,-0.4954792261123657
1761468628613983000,4.37898291015625,0.3832886219024658,0.8009698987007141,-0.5394695997238159
1761468628623938800,4.388938720703125,0.4020412564277649,0.7705289125442505,-0.5281247496604919
1761468628633895000,4.39889501953125,0.42518872022628784,0.6847056150436401,-0.48183944821357727
1761468628643849700,4.408849609375,0.442135214805603,0.5668239593505859,-0.41656163334846497
1761468628653806000,4.41880615234375,0.44492679834365845,0.4265226721763611,-0.3361624777317047
1761468628663762000,4.428761962890625,0.4367908537387848,0.2730787992477417,-0.24165409803390503
1761468628673716700,4.438716796875,0.431692898273468,0.1470855474472046,-0.1320807933807373
1761468628683672800,4.4486728515625,0.44322651624679565,0.07065363228321075,-0.027022818103432655
1761468628693628700,4.458628662109375,0.4724993109703064,0.045039162039756775,0.0471314899623394
1761468628703585000,4.4685849609375,0.49676868319511414,0.079784095287323,0.0874168649315834
1761468628713539800,4.478539794921875,0.5034437775611877,0.14457011222839355,0.09059052914381027
1761468628723496000,4.488495849609375,0.49739888310432434,0.2173633575439453,0.06728360801935196
1761468628733451800,4.49845166015625,0.4744749367237091,0.2825673818588257,0.03280898556113243
1761468628743407000,4.508406982421875,0.42346101999282837,0.3235369026660919,-0.00285340310074389
1761468628753363000,4.518363037109375,0.35819104313850403,0.31631478667259216,-0.03343477472662926
1761468628763318800,4.52831884765625,0.2795675992965698,0.2361573725938797,-0.0485713817179203
1761468628773273900,4.53827392578125,0.20758184790611267,0.11864734441041946,-0.034995950758457184
1761468628783230000,4.54822998046875,0.14255890250205994,0.002155349822714925,0.01340220682322979
1761468628793186000,4.55818603515625,0.08483520895242691,-0.09626505523920059,0.0826750099658966
1761468628803140900,4.568140869140625,0.05287914350628853,-0.17819666862487793,0.15874287486076355
1761468628813097000,4.578096923828125,0.06737920641899109,-0.22745279967784882,0.23424004018306732
1761468628823052800,4.588052734375,0.10675537586212158,-0.24390341341495514,0.30739790201187134
1761468628833007900,4.5980078125,0.15612474083900452,-0.2344646453857422,0.37196606397628784
1761468628842964000,4.6079638671875,0.21206125617027283,-0.22167402505874634,0.40685081481933594
1761468628852919800,4.617919921875,0.26437392830848694,-0.22901369631290436,0.39877381920814514
1761468628862875000,4.627875,0.2801685929298401,-0.2615378201007843,0.3182094693183899
1761468628872831000,4.6378310546875,0.22254180908203125,-0.38564980030059814,0.14221572875976562
1761468628882787000,4.647787109375,0.06952988356351852,-0.585527777671814,-0.09903018921613693
1761468628892742000,4.657741943359375,-0.170479878783226,-0.7661550045013428,-0.36127758026123047
1761468628902697700,4.66769775390625,-0.4770035743713379,-0.892869770526886,-0.5961196422576904
1761468628912653800,4.67765380859375,-0.7945883870124817,-0.9705386161804199,-0.7614476084709167
1761468628922609000,4.68760888671875,-1.0664039850234985,-0.9362778067588806,-0.8241685628890991
1761468628932565000,4.69756494140625,-1.2537554502487183,-0.7301666736602783,-0.7605167031288147
1761468628942520800,4.707520751953125,-1.3167080879211426,-0.3704298436641693,-0.5907140970230103
1761468628952476000,4.717475830078125,-1.2498958110809326,0.07598315179347992,-0.36526450514793396
1761468628962432000,4.727431884765625,-1.0666756629943848,0.4970185160636902,-0.14738863706588745
1761468628972387800,4.737387939453125,-0.8292711973190308,0.8161665797233582,0.01709483005106449
1761468628982343000,4.747343017578125,-0.5766943097114563,1.0124067068099976,0.1255456656217575
1761468628992298800,4.757298828125,-0.3386787176132202,1.0872198343276978,0.19972796738147736
1761468629002254800,4.7672548828125,-0.12373950332403183,1.0125781297683716,0.2571611702442169
1761468629012210000,4.7772099609375,0.05994328483939171,0.800285816192627,0.3098410367965698
1761468629022165800,4.787165771484375,0.20246021449565887,0.5033566951751709,0.36658579111099243
1761468629032121900,4.797121826171875,0.2847656309604645,0.1803276687860489,0.4268544912338257
1761468629042077000,4.807076904296875,0.3001299500465393,-0.13025310635566711,0.4818572700023651
1761468629052033000,4.817032958984375,0.2488633543252945,-0.4210243225097656,0.5140383839607239
1761468629061988900,4.82698876953125,0.1404428631067276,-0.6760283708572388,0.5201607346534729
1761468629071945000,4.836945068359375,-0.011720634065568447,-0.8701750040054321,0.49393486976623535
1761468629081899800,4.846899658203125,-0.1762794852256775,-1.0027538537979126,0.4325157105922699
1761468629091856100,4.856856201171875,-0.318360835313797,-1.0339980125427246,0.33358505368232727
1761468629101812000,4.86681201171875,-0.42502498626708984,-0.9513077139854431,0.20466728508472443
1761468629111766800,4.876766845703125,-0.5054849982261658,-0.7979844808578491,0.0624365508556366
1761468629121723000,4.886722900390625,-0.5666141510009766,-0.5932440757751465,-0.08444610238075256
1761468629131678700,4.8966787109375,-0.6034258604049683,-0.35273677110671997,-0.22837744653224945
1761468629141634000,4.906634033203125,-0.6183699369430542,-0.1235925480723381,-0.358817458152771
1761468629151590000,4.91658984375,-0.624160885810852,0.05340540036559105,-0.4638555645942688
1761468629161546000,4.9265458984375,-0.6186574697494507,0.15094980597496033,-0.5274041891098022
1761468629171500800,4.936500732421875,-0.599951446056366,0.1813705563545227,-0.5507741570472717
1761468629181457000,4.946456787109375,-0.5726231336593628,0.17885732650756836,-0.5376767516136169
1761468629191413000,4.9564130859375,-0.535069465637207,0.1481754183769226,-0.5021864771842957
1761468629201367800,4.966367919921875,-0.48815813660621643,0.10480449348688126,-0.4496287703514099
1761468629211324000,4.976323974609375,-0.4425070583820343,0.06492304056882858,-0.39111724495887756
1761468629221279700,4.98627978515625,-0.39319249987602234,0.042916808277368546,-0.3383658826351166
1761468629231234800,4.99623486328125,-0.33393585681915283,0.04924074932932854,-0.29241496324539185
1761468629241191000,5.00619091796875,-0.26023155450820923,0.09714995324611664,-0.2611558437347412
1761468629251146800,5.016146728515625,-0.17569419741630554,0.1675163358449936,-0.24407708644866943
1761468629261102000,5.02610205078125,-0.089595265686512,0.2523241639137268,-0.2343999594449997
1761468629271058000,5.036057861328125,-0.0038629546761512756,0.3379265069961548,-0.22589948773384094
1761468629281014000,5.046013916015625,0.06200873479247093,0.4075165092945099,-0.21861281991004944
1761468629290968800,5.05596875,0.10947363823652267,0.4609747529029846,-0.21574999392032623
1761468629300924700,5.065924560546875,0.14909614622592926,0.46313539147377014,-0.20580440759658813
1761468629310881000,5.075881103515625,0.18040253221988678,0.415469229221344,-0.17317382991313934
1761468629320835800,5.0858359375,0.20861925184726715,0.3484228253364563,-0.1040639877319336
1761468629330792000,5.0957919921875,0.23375946283340454,0.278358519077301,-0.0015028680209070444
1761468629340747800,5.105747802734375,0.24547763168811798,0.1842259168624878,0.10253431648015976
1761468629350703000,5.115703125,0.24552097916603088,0.06748189777135849,0.19464895129203796
1761468629360659000,5.125658935546875,0.23872750997543335,-0.06900617480278015,0.2516099810600281
1761468629370615000,5.135614990234375,0.2313479483127594,-0.20893611013889313,0.28312090039253235
1761468629380569900,5.14556982421875,0.23878295719623566,-0.3035616874694824,0.3152295649051666
1761468629390525700,5.155525634765625,0.27037838101387024,-0.33303606510162354,0.35546958446502686
1761468629400482000,5.16548193359375,0.3255433738231659,-0.2809675335884094,0.3940316140651703
1761468629410436900,5.175436767578125,0.39375975728034973,-0.1498158872127533,0.40353265404701233
1761468629420393000,5.18539306640625,0.46565550565719604,0.010147674940526485,0.35816437005996704
1761468629430348800,5.195348876953125,0.5208856463432312,0.12825700640678406,0.2393398880958557
1761468629440305400,5.205305419921875,0.5340677499771118,0.12217940390110016,0.0617014616727829
1761468629450260500,5.215260498046875,0.4874204397201538,-0.006031915079802275,-0.139256551861763
1761468629460216600,5.225216552734375,0.3639392554759979,-0.23638789355754852,-0.29744166135787964
1761468629470172400,5.23517236328125,0.16659952700138092,-0.46070125699043274,-0.349899560213089
1761468629480127500,5.24512744140625,-0.04738546162843704,-0.6130748391151428,-0.2717922329902649
1761468629490083600,5.25508349609375,-0.2414620965719223,-0.6445164084434509,-0.09658200293779373
1761468629500039700,5.265039794921875,-0.35001707077026367,-0.4605913460254669,0.12209068983793259
1761468629509994500,5.274994384765625,-0.3493417501449585,-0.057234026491642,0.3349100649356842
1761468629519950600,5.28495068359375,-0.23556247353553772,0.4598828852176666,0.4984990060329437
1761468629529906400,5.294906494140625,-0.05188269913196564,0.9404804706573486,0.5652521848678589
1761468629539861500,5.304861572265625,0.13462673127651215,1.320716142654419,0.5282699465751648
1761468629549817600,5.314817626953125,0.3071174919605255,1.54824960231781,0.40976354479789734
1761468629559773400,5.3247734375,0.4600500464439392,1.566094994544983,0.24358895421028137
1761468629569728500,5.334728515625,0.5902590751647949,1.4037514925003052,0.07650525867938995
1761468629579684600,5.3446845703125,0.6859453916549683,1.1268028020858765,-0.03660585731267929
1761468629589640700,5.354640625,0.7534042000770569,0.7744690179824829,-0.07861974090337753
1761468629599595500,5.364595458984375,0.7999775409698486,0.34637174010276794,-0.05073857679963112
1761468629609551400,5.37455126953125,0.8502674102783203,-0.1046627089381218,0.03909354656934738
1761468629619507500,5.384507568359375,0.8964083194732666,-0.5062839388847351,0.1763153076171875
1761468629629462500,5.394462646484375,0.9277701377868652,-0.8467579483985901,0.3204248547554016
1761468629639418600,5.404418701171875,0.9468216300010681,-1.0475856065750122,0.4500390291213989
1761468629649374500,5.41437451171875,0.9560787677764893,-1.1078540086746216,0.5638080835342407
1761468629659329500,5.42432958984375,0.948337733745575,-1.0393162965774536,0.6306182742118835
1761468629669285600,5.43428564453125,0.9209758639335632,-0.8531327247619629,0.6365768909454346
1761468629679241500,5.444241455078125,0.8668005466461182,-0.5606382489204407,0.5724509358406067
1761468629689197600,5.454197509765625,0.7869464159011841,-0.20240044593811035,0.43268656730651855
1761468629699152400,5.46415234375,0.693769633769989,0.1615583300590515,0.2329777032136917
1761468629709108500,5.4741083984375,0.5919069051742554,0.4939669966697693,0.013160472735762596
1761468629719064600,5.484064697265625,0.5080599784851074,0.7443675398826599,-0.18319067358970642
1761468629729019400,5.494019287109375,0.445387601852417,0.8684849143028259,-0.33368492126464844
1761468629738975500,5.5039755859375,0.4133095443248749,0.9022596478462219,-0.4323830008506775
1761468629748931300,5.513931396484375,0.41197749972343445,0.8433070778846741,-0.46663156151771545
1761468629758886700,5.52388671875,0.42832398414611816,0.6917181015014648,-0.447841614484787
1761468629768842500,5.533842529296875,0.4510256052017212,0.4906792938709259,-0.37763991951942444
1761468629778798600,5.543798583984375,0.4811267554759979,0.27884429693222046,-0.2746959626674652
1761468629788753400,5.55375341796875,0.5172600746154785,0.08921435475349426,-0.15318678319454193
1761468629798709500,5.56370947265625,0.5572687387466431,-0.06262017786502838,-0.03667773678898811
1761468629808665600,5.57366552734375,0.5848958492279053,-0.1650964766740799,0.05389757454395294
1761468629818620400,5.583620361328125,0.5937961339950562,-0.21865345537662506,0.10995712131261826
1761468629828576500,5.593576416015625,0.5807362198829651,-0.2163247913122177,0.12786759436130524
1761468629838532400,5.603532470703125,0.5601476430892944,-0.17572329938411713,0.10819694399833679
1761468629848487700,5.61348779296875,0.5376797914505005,-0.12343595176935196,0.07032202929258347
1761468629858443500,5.623443603515625,0.5071855187416077,-0.07684927433729172,0.025802232325077057
1761468629868399600,5.633399658203125,0.4627141058444977,-0.04782046377658844,-0.007630895357578993
1761468629878354400,5.6433544921875,0.3903583884239197,-0.04407046362757683,-0.030325554311275482
1761468629888310500,5.653310546875,0.30445757508277893,-0.060702353715896606,-0.037324387580156326
1761468629898266600,5.6632666015625,0.2114967256784439,-0.06601855903863907,-0.022195501253008842
1761468629908221400,5.673221435546875,0.11696388572454453,-0.06124093011021614,0.006716618314385414
1761468629918177500,5.683177490234375,0.03887227550148964,-0.066327303647995,0.0393746979534626
1761468629928133400,5.69313330078125,-0.00004739145515486598,-0.07340438663959503,0.07249651849269867
1761468629938088400,5.70308837890625,0.01008673571050167,-0.06647644191980362,0.10000483691692352
1761468629948044500,5.71304443359375,0.059557799249887466,-0.06995230913162231,0.1258544772863388
1761468629958000400,5.72300048828125,0.13789628446102142,-0.06769581139087677,0.16095945239067078
1761468629967956500,5.73295654296875,0.2227785885334015,-0.07569053024053574,0.20519283413887024
1761468629977911600,5.74291162109375,0.2984919846057892,-0.12439095973968506,0.26185372471809387
1761468629987867600,5.75286767578125,0.34747225046157837,-0.17641803622245789,0.32773682475090027
1761468629997823500,5.762823486328125,0.34717798233032227,-0.17118066549301147,0.3988461494445801
1761468630007778300,5.7727783203125,0.32391831278800964,-0.11715221405029297,0.4390026032924652
1761468630017734400,5.782734375,0.2698816955089569,-0.07819576561450958,0.4086465537548065
1761468630027690500,5.7926904296875,0.15969312191009521,-0.09707065671682358,0.29289302229881287
1761468630037645600,5.8026455078125,-0.01811414770781994,-0.1426735520362854,0.11235518753528595
1761468630047601400,5.812601318359375,-0.24319210648536682,-0.1756565421819687,-0.0898623988032341
1761468630057557500,5.8225576171875,-0.4797380566596985,-0.1904112547636032,-0.2736884355545044
1761468630067512600,5.8325126953125,-0.6899994015693665,-0.17974209785461426,-0.4057794511318207
1761468630077468700,5.84246875,-0.8423750996589661,-0.11853253841400146,-0.4624411463737488
1761468630087424500,5.852424560546875,-0.9405114650726318,0.023308752104640007,-0.43707311153411865
1761468630097379300,5.86237939453125,-0.9595695734024048,0.24890857934951782,-0.3344449996948242
1761468630107335700,5.872335693359375,-0.8783966302871704,0.498392790555954,-0.1799054741859436
1761468630117291500,5.88229150390625,-0.7116052508354187,0.7216642498970032,-0.008823469281196594
1761468630127246600,5.89224658203125,-0.4911097288131714,0.8656637072563171,0.14516323804855347
1761468630137202400,5.902202392578125,-0.24882733821868896,0.9178137183189392,0.26493972539901733
1761468630147158500,5.912158447265625,-0.018439801409840584,0.8755460381507874,0.34936559200286865
1761468630157113600,5.922113525390625,0.1844978630542755,0.7322695851325989,0.41572436690330505
1761468630167069400,5.9320693359375,0.3449936807155609,0.530328631401062,0.4787270724773407
1761468630177025500,5.942025634765625,0.46044227480888367,0.29253071546554565,0.5412418842315674
1761468630186980600,5.951980712890625,0.5316081047058105,0.03630470857024193,0.5894200205802917
1761468630196936700,5.961936767578125,0.5642328858375549,-0.20181676745414734,0.6102262139320374
1761468630206892500,5.971892578125,0.5710977911949158,-0.38692706823349,0.597316563129425
1761468630216847400,5.981847412109375,0.5544037818908691,-0.5274359583854675,0.5611316561698914
1761468630226803500,5.991803466796875,0.51290363073349,-0.6195281744003296,0.5047652721405029
1761468630236759600,6.001759521484375,0.44273921847343445,-0.6563136577606201,0.433333158493042
1761468630246715600,6.011715576171875,0.3592256009578705,-0.6394628286361694,0.34784892201423645
1761468630256670500,6.02167041015625,0.2806878983974457,-0.5841271281242371,0.2513071894645691
1761468630266626600,6.03162646484375,0.21992135047912598,-0.4959612190723419,0.14777418971061707
1761468630276582400,6.04158251953125,0.17795871198177338,-0.3863101005554199,0.04646274819970131
1761468630286537500,6.051537353515625,0.14352566003799438,-0.27356794476509094,-0.043665166944265366
1761468630296493600,6.06149365234375,0.11239676177501678,-0.16309095919132233,-0.11030678451061249
1761468630306449400,6.071449462890625,0.08198647946119308,-0.060809943825006485,-0.15618924796581268
1761468630316404500,6.081404541015625,0.05272553116083145,0.012619799003005028,-0.1922796070575714
1761468630326360600,6.091360595703125,0.030878352001309395,0.05876288190484047,-0.2186727672815323
1761468630336316700,6.101316650390625,0.03234628587961197,0.10600150376558304,-0.23053927719593048
1761468630346271500,6.111271484375,0.07260333746671677,0.15195390582084656,-0.22354353964328766
1761468630356227600,6.1212275390625,0.1332152783870697,0.19826067984104156,-0.20278047025203705
1761468630366183400,6.131183349609375,0.20809942483901978,0.2595168352127075,-0.16254477202892303
1761468630376138500,6.141138427734375,0.28900542855262756,0.3500579297542572,-0.10664154589176178
1761468630386094600,6.151094482421875,0.38092225790023804,0.42935478687286377,-0.05418504402041435
1761468630396050400,6.161050537109375,0.4813079833984375,0.48924049735069275,-0.018224116414785385
1761468630406005500,6.171005615234375,0.5805323719978333,0.50838303565979,0.008914779871702194
1761468630415961600,6.180961669921875,0.6769465208053589,0.4940733313560486,0.024314243346452713
1761468630425917700,6.190917724609375,0.7657098770141602,0.4595927596092224,0.03469846397638321
1761468630435872300,6.200872314453125,0.8328481912612915,0.38096746802330017,0.04041919857263565
1761468630445828000,6.210828125,0.8681266903877258,0.2715736925601959,0.04367822781205177
1761468630455784400,6.220784423828125,0.8867032527923584,0.16209061443805695,0.05315375328063965
1761468630465739300,6.2307392578125,0.8873668313026428,0.07658510655164719,0.07512044161558151
1761468630475695400,6.2406953125,0.8832309246063232,0.013449553400278091,0.09913789480924606
1761468630485651200,6.250651123046875,0.8774328827857971,-0.010979268699884415,0.12495223432779312
1761468630495607300,6.260607177734375,0.8859131932258606,-0.005557871889322996,0.16200771927833557
1761468630505562400,6.270562255859375,0.9117090106010437,-0.001624916447326541,0.2101842164993286
1761468630515518500,6.2805185546875,0.9410972595214844,0.006156839895993471,0.2654288411140442
1761468630525474300,6.290474365234375,0.9804299473762512,0.043586064130067825,0.31902584433555603
1761468630535429000,6.30042919921875,1.0330768823623657,0.12393762916326523,0.35976552963256836
1761468630545385500,6.310385498046875,1.082899808883667,0.221209317445755,0.3629048764705658
1761468630555341300,6.32034130859375,1.1326990127563477,0.3253282606601715,0.33261674642562866
1761468630565296400,6.33029638671875,1.1729308366775513,0.39686599373817444,0.2726692259311676
1761468630575252200,6.340252197265625,1.2121456861495972,0.436344712972641,0.22090108692646027
1761468630585208300,6.350208251953125,1.249323844909668,0.47510355710983276,0.1994505524635315
1761468630595163400,6.360163330078125,1.2929171323776245,0.5477561950683594,0.18883198499679565
1761468630605119200,6.370119140625,1.3258041143417358,0.5860993266105652,0.16340145468711853
1761468630615075300,6.380075439453125,1.3360165357589722,0.5075461864471436,0.11044315993785858
1761468630625030400,6.390030517578125,1.3218835592269897,0.3067646920681,0.05388282239437103
1761468630634986500,6.399986572265625,1.2991173267364502,0.05200457572937012,0.026166772469878197
1761468630644942300,6.4099423828125,1.2785288095474243,-0.22095176577568054,0.034569162875413895
1761468630654897200,6.419897216796875,1.245842456817627,-0.48708704113960266,0.08011160790920258
1761468630664853200,6.429853271484375,1.2142164707183838,-0.6341829299926758,0.17521828413009644
1761468630674809300,6.439809326171875,1.1994282007217407,-0.5879650712013245,0.3378535509109497
1761468630684764400,6.449764404296875,1.2189478874206543,-0.3122624158859253,0.5555286407470703
1761468630694720300,6.45972021484375,1.274808406829834,0.1488037258386612,0.7657005190849304
1761468630704676400,6.46967626953125,1.374151349067688,0.6788989305496216,0.9006862044334412
1761468630714632200,6.479632080078125,1.4844216108322144,1.133010745048523,0.914513111114502
1761468630724587300,6.489587158203125,1.5635740756988525,1.4564688205718994,0.8323109149932861
1761468630734543400,6.49954345703125,1.6181449890136719,1.5957385301589966,0.6822899580001831
1761468630744499200,6.509499267578125,1.6635379791259766,1.5313773155212402,0.5048143863677979
1761468630754454300,6.519454345703125,1.6916288137435913,1.3058570623397827,0.3378394842147827
1761468630764410400,6.529410400390625,1.695892572402954,0.9605303406715393,0.20800165832042694
1761468630774366500,6.539366455078125,1.6769636869430542,0.5503031611442566,0.1413339376449585
1761468630784321300,6.5493212890625,1.641291618347168,0.13656197488307953,0.145382359623909
1761468630794277400,6.55927734375,1.610775351524353,-0.21876922249794006,0.2076292186975479
1761468630804233200,6.569233154296875,1.5844173431396484,-0.5019432902336121,0.2979223430156708
1761468630814188300,6.579188232421875,1.5637789964675903,-0.6746415495872498,0.3878309428691864
1761468630824144400,6.589144287109375,1.5594704151153564,-0.7083094120025635,0.46569159626960754
1761468630834100200,6.599100341796875,1.5595860481262207,-0.6104488968849182,0.5290223956108093
1761468630844055300,6.60905517578125,1.5627692937850952,-0.41302019357681274,0.5562130212783813
1761468630854011400,6.619011474609375,1.5639488697052002,-0.1253146231174469,0.5423851013183594
1761468630863967500,6.628967529296875,1.550135850906372,0.221459299325943,0.47763165831565857
1761468630873922300,6.63892236328125,1.5390704870224,0.5637840032577515,0.3636099696159363
1761468630883878100,6.648878173828125,1.546486735343933,0.8353721499443054,0.21772266924381256
1761468630893834200,6.658834228515625,1.5807877779006958,1.0214027166366577,0.08705441653728485
1761468630903789300,6.668789306640625,1.6257108449935913,1.0917950868606567,-0.005617138929665089
1761468630913745400,6.678745361328125,1.6724611520767212,1.0647023916244507,-0.056716009974479675
1761468630923701200,6.688701171875,1.711903691291809,0.9559082388877869,-0.05956177040934563
1761468630933656300,6.69865625,1.7441720962524414,0.7912431359291077,-0.030955959111452103
1761468630943612400,6.7086123046875,1.7677828073501587,0.5965283513069153,0.02033885009586811
1761468630953568300,6.718568359375,1.7795617580413818,0.3871689736843109,0.08483874052762985
1761468630963524400,6.7285244140625,1.7753818035125732,0.2202589213848114,0.15633006393909454
1761468630973479200,6.738479248046875,1.7674671411514282,0.13198259472846985,0.2241186946630478
1761468630983435500,6.748435546875,1.762911319732666,0.09384674578905106,0.25780802965164185
1761468630993391400,6.758391357421875,1.7745040655136108,0.12033907324075699,0.2729710042476654
1761468631003346200,6.76834619140625,1.795924186706543,0.15854141116142273,0.2654145061969757
1761468631013302300,6.77830224609375,1.8126237392425537,0.17962007224559784,0.2505764365196228
1761468631023258000,6.788258056640625,1.8185274600982666,0.1819627583026886,0.2379419058561325
1761468631033213400,6.79821337890625,1.801701307296753,0.15544912219047546,0.22963418066501617
1761468631043169300,6.808169189453125,1.7661834955215454,0.12263204902410507,0.22505153715610504
1761468631053125400,6.81812548828125,1.7109196186065674,0.0722849890589714,0.21109549701213837
1761468631063080200,6.828080078125,1.6247605085372925,0.01845167949795723,0.19676172733306885
1761468631073036300,6.838036376953125,1.5238994359970093,-0.009855059906840324,0.21085037291049957
1761468631082992400,6.847992431640625,1.4253212213516235,-0.0138862868770957,0.2696809470653534
1761468631092947200,6.857947265625,1.3498786687850952,0.0363028459250927,0.3644031882286072
1761468631102903300,6.8679033203125,1.2976964712142944,0.16202153265476227,0.4623965919017792
1761468631112859100,6.877859130859375,1.2756353616714478,0.317810595035553,0.5238000154495239
1761468631122814500,6.887814453125,1.279470682144165,0.45243269205093384,0.539240837097168
1761468631132770300,6.897770263671875,1.2885075807571411,0.5304771661758423,0.517498254776001
1761468631142726400,6.907726318359375,1.2876148223876953,0.5512034296989441,0.4863024353981018
1761468631152682200,6.91768212890625,1.2664536237716675,0.5157032608985901,0.45588618516921997
1761468631162637300,6.92763720703125,1.2261754274368286,0.4533723294734955,0.4325999617576599
1761468631172593400,6.937593505859375,1.1751524209976196,0.37430068850517273,0.41250133514404297
1761468631182549200,6.94754931640625,1.121036410331726,0.2965785562992096,0.3846924901008606
1761468631192504300,6.95750439453125,1.0598500967025757,0.19098606705665588,0.32369545102119446
1761468631202460400,6.96746044921875,0.9791255593299866,0.010070356540381908,0.2099984735250473
1761468631212416500,6.97741650390625,0.8548579812049866,-0.18397235870361328,0.07625451683998108
1761468631222371300,6.987371337890625,0.6945421099662781,-0.29573854804039,-0.041112709790468216
1761468631232327200,6.9973271484375,0.5274370312690735,-0.2635428011417389,-0.10911759734153748
1761468631242283300,7.007283203125,0.372626394033432,-0.05204920843243599,-0.12179429829120636
1761468631252238300,7.01723828125,0.25682973861694336,0.30614036321640015,-0.0842040479183197
1761468631262194400,7.0271943359375,0.22300873696804047,0.7065788507461548,-0.023523112758994102
1761468631272150300,7.037150390625,0.28867003321647644,1.0363268852233887,0.03321659937500954
1761468631282105000,7.04710498046875,0.4350750148296356,1.2452833652496338,0.08262511342763901
1761468631292061400,7.0570615234375,0.6125205755233765,1.3299076557159424,0.12457655370235443
1761468631302017300,7.067017333984375,0.8093823790550232,1.2784727811813354,0.15141800045967102
1761468631311972400,7.076972412109375,1.0063362121582031,1.08245849609375,0.18370723724365234
1761468631321928200,7.08692822265625,1.182889461517334,0.7876906991004944,0.22764113545417786
1761468631331884300,7.09688427734375,1.3176766633987427,0.4398418664932251,0.2951376140117645
1761468631341840400,7.10684033203125,1.3928020000457764,0.10682148486375809,0.36774978041648865
1761468631351795200,7.116795166015625,1.4179877042770386,-0.14479023218154907,0.42167001962661743
1761468631361751300,7.126751220703125,1.416542410850525,-0.2873048782348633,0.46116146445274353
1761468631371707100,7.13670703125,1.3868411779403687,-0.2828850746154785,0.4825969636440277
1761468631381662500,7.146662353515625,1.335329532623291,-0.17668966948986053,0.47574713826179504
1761468631391618300,7.156618408203125,1.2788540124893188,-0.011512967757880688,0.4274826645851135
1761468631401574400,7.166574462890625,1.2455483675003052,0.1754847913980484,0.3368373215198517
1761468631411529200,7.176529296875,1.2463939189910889,0.3396737277507782,0.22776594758033752
1761468631421485300,7.1864853515625,1.25820791721344,0.4367309510707855,0.11594566702842712
1761468631431441400,7.19644140625,1.2722896337509155,0.4766860902309418,0.023939037695527077
1761468631441397000,7.20639697265625,1.2676421403884888,0.47212979197502136,-0.046443574130535126
1761468631451352800,7.216352783203125,1.2541937828063965,0.4276893436908722,-0.09234075993299484
1761468631461309000,7.226308837890625,1.2536139488220215,0.3353513479232788,-0.11402924358844757
1761468631471264000,7.236263916015625,1.270920991897583,0.21950408816337585,-0.11335439234972
1761468631481220000,7.24622021484375,1.3011062145233154,0.11495744436979294,-0.08192054182291031
1761468631491176000,7.256176025390625,1.344503402709961,0.054538577795028687,-0.014565731398761272
1761468631501130800,7.266130859375,1.3856512308120728,0.0454779714345932,0.07137508690357208
1761468631511086800,7.2760869140625,1.4293017387390137,0.08993998169898987,0.1601014882326126
1761468631521043000,7.28604296875,1.469496488571167,0.17555439472198486,0.24061395227909088
1761468631530999000,7.2959990234375,1.5075606107711792,0.279255747795105,0.29371339082717896
1761468631540953900,7.305953857421875,1.5466258525848389,0.42335858941078186,0.31666675209999084
1761468631550910000,7.315909912109375,1.5812560319900513,0.5645578503608704,0.31539350748062134
1761468631560865800,7.32586572265625,1.6149400472640991,0.6736057996749878,0.28443536162376404
1761468631570821000,7.335821044921875,1.6397649049758911,0.745173990726471,0.24293583631515503
1761468631580777000,7.34577685546875,1.6554561853408813,0.7660529017448425,0.20369580388069153
1761468631590733000,7.355733154296875,1.6577420234680176,0.7354539632797241,0.1692209243774414
1761468631600687900,7.36568798828125,1.6505600214004517,0.6603429913520813,0.13491880893707275
1761468631610644000,7.37564404296875,1.6419894695281982,0.5528032183647156,0.10050784796476364
1761468631620600000,7.38560009765625,1.6371996402740479,0.44339922070503235,0.07492663711309433
1761468631630555000,7.395554931640625,1.6356788873672485,0.33039093017578125,0.07078835368156433
1761468631640511000,7.405510986328125,1.6334551572799683,0.2218341827392578,0.10647637397050858
1761468631650466800,7.415466796875,1.624350905418396,0.1574416160583496,0.16476550698280334
1761468631660422000,7.425421875,1.6051095724105835,0.1307622343301773,0.22604912519454956
1761468631670378000,7.4353779296875,1.580196499824524,0.1301201432943344,0.28605493903160095
1761468631680333800,7.445333740234375,1.5656341314315796,0.17493823170661926,0.3380657732486725
1761468631690289000,7.455288818359375,1.5698456764221191,0.2609250247478485,0.38019058108329773
1761468631700245000,7.465244873046875,1.5809907913208008,0.3561994433403015,0.40261098742485046
1761468631710201000,7.475201171875,1.5984315872192383,0.44925376772880554,0.4054208993911743
1761468631720157000,7.485156982421875,1.6189675331115723,0.5267165303230286,0.3884198069572449
1761468631730111700,7.49511181640625,1.6434917449951172,0.5745383501052856,0.35581234097480774
1761468631740067800,7.50506787109375,1.6627788543701172,0.5947651863098145,0.32519420981407166
1761468631750024000,7.51502392578125,1.673660159111023,0.5706696510314941,0.31294289231300354
1761468631759979000,7.52497900390625,1.677469253540039,0.4953821003437042,0.31942111253738403
1761468631769934800,7.534934814453125,1.671392798423767,0.3952951729297638,0.3553279638290405
1761468631779891000,7.544890869140625,1.6592319011688232,0.33267128467559814,0.4505474865436554
1761468631789846000,7.554845947265625,1.651936411857605,0.38347747921943665,0.5676099061965942
1761468631799801900,7.5648017578125,1.634061574935913,0.5064920783042908,0.6534354090690613
1761468631809758000,7.574758056640625,1.613804578781128,0.5843735933303833,0.6608281135559082
1761468631819712800,7.584712646484375,1.598018765449524,0.5694448947906494,0.5913071036338806
1761468631829669000,7.594669189453125,1.5869399309158325,0.47476470470428467,0.45774373412132263
1761468631839625000,7.604625,1.5779004096984863,0.32741662859916687,0.31657397747039795
1761468631849580000,7.614580078125,1.564412236213684,0.149934783577919,0.20908641815185547
1761468631859536000,7.624535888671875,1.5333888530731201,-0.018615618348121643,0.16625729203224182
1761468631869492000,7.634491943359375,1.5052340030670166,-0.14756162464618683,0.1820991039276123
1761468631879447000,7.644447021484375,1.5032464265823364,-0.17219585180282593,0.2615155279636383
1761468631889403000,7.65440283203125,1.536470890045166,-0.047679491341114044,0.3909459412097931
1761468631899359000,7.66435888671875,1.606790542602539,0.21087563037872314,0.5408682227134705
1761468631909314800,7.674314697265625,1.6936780214309692,0.5231248736381531,0.6507459878921509
1761468631919270100,7.684270263671875,1.7808467149734497,0.7763804197311401,0.7117906808853149
1761468631929226000,7.69422607421875,1.8299460411071777,0.9166269898414612,0.7312828898429871
1761468631939182000,7.70418212890625,1.833791732788086,0.9099485278129578,0.7088541984558105
1761468631949137000,7.714136962890625,1.810025691986084,0.7713552713394165,0.6309119462966919
1761468631959092700,7.7240927734375,1.7833513021469116,0.5584369897842407,0.5119505524635315
1761468631969049000,7.734049072265625,1.7620280981063843,0.32481488585472107,0.389621764421463
1761468631979004000,7.74400390625,1.7387148141860962,0.10121916979551315,0.29210710525512695
1761468631988960000,7.7539599609375,1.7086881399154663,-0.08828098326921463,0.24154193699359894
1761468631998915800,7.763915771484375,1.6624410152435303,-0.22330014407634735,0.23001685738563538
1761468632008871000,7.773870849609375,1.6173690557479858,-0.28649482131004333,0.2526324391365051
1761468632018827000,7.783826904296875,1.5745004415512085,-0.2747018039226532,0.3000858426094055
1761468632028782800,7.793782958984375,1.5349329710006714,-0.1877775639295578,0.35621196031570435
1761468632038738000,7.803738037109375,1.487700343132019,-0.027801569551229477,0.40873798727989197
1761468632048694000,7.813694091796875,1.4121967554092407,0.14633667469024658,0.43421486020088196
1761468632058650000,7.823650146484375,1.3016409873962402,0.29113346338272095,0.4013296067714691
1761468632068606000,7.83360595703125,1.1795827150344849,0.3777117431163788,0.3094097971916199
1761468632078560800,7.843560791015625,1.0901906490325928,0.4400136470794678,0.17482857406139374
1761468632088516900,7.853516845703125,1.0205408334732056,0.4916755259037018,0.04229317605495453
1761468632098473000,7.863472900390625,0.9830926656723022,0.5207043886184692,-0.058474693447351456
1761468632108428000,7.873427978515625,0.9870932698249817,0.524828314781189,-0.12029492110013962
1761468632118383900,7.8833837890625,1.0341882705688477,0.5087358951568604,-0.1542031168937683
1761468632128340000,7.893340087890625,1.1118165254592896,0.4745292067527771,-0.1616509109735489
1761468632138295000,7.903294921875,1.1996933221817017,0.4219639003276825,-0.1587916910648346
1761468632148251000,7.9132509765625,1.2677195072174072,0.36238178610801697,-0.14741866290569305
1761468632158207000,7.92320703125,1.2978265285491943,0.28335294127464294,-0.11454184353351593
1761468632168161800,7.933161865234375,1.2857048511505127,0.18366016447544098,-0.06885531544685364
1761468632178118000,7.943117919921875,1.248002052307129,0.08087599277496338,-0.04336351156234741
1761468632188074000,7.953073974609375,1.2009488344192505,-0.002037795726209879,-0.05339643731713295
1761468632198029000,7.963029052734375,1.1604347229003906,-0.03978854417800903,-0.0849255695939064
1761468632207985000,7.97298486328125,1.1206694841384888,-0.052194349467754364,-0.11200112849473953
1761468632217941000,7.98294091796875,1.0798317193984985,-0.07375752180814743,-0.12095523625612259
1761468632227896800,7.992896728515625,1.0338541269302368,-0.0996149480342865,-0.11136039346456528
1761468632247184100,8.01218408203125,0.9321642518043518,-0.1448512226343155,-0.06869963556528091
1761468632257140000,8.022139892578124,0.8596828579902649,-0.13810500502586365,-0.013709131628274918
1761468632267094800,8.0320947265625,0.7868573665618896,-0.1106797605752945,0.0733911469578743
1761468632277051000,8.04205078125,0.7121533751487732,-0.06112712249159813,0.20585140585899353
1761468632287007000,8.052007080078125,0.6076480150222778,-0.020676901564002037,0.3405197262763977
1761468632296963000,8.061963134765625,0.48261770606040955,0.018375512212514877,0.4288051724433899
1761468632306918000,8.07191796875,0.361804723739624,0.06133895739912987,0.4351453483104706
1761468632316874000,8.0818740234375,0.26943379640579224,0.07081501930952072,0.36424216628074646
1761468632326829800,8.091829833984375,0.21556203067302704,0.056218232959508896,0.24442601203918457
1761468632336785000,8.101784912109375,0.19168494641780853,0.04547867923974991,0.1190437600016594
1761468632346741000,8.111740966796875,0.1929214596748352,0.0333799384534359,0.00966720376163721
1761468632356696800,8.12169677734375,0.21341989934444427,0.031406186521053314,-0.05011776089668274
1761468632366652000,8.13165185546875,0.24168828129768372,0.057762689888477325,-0.04512087255716324
1761468632376608000,8.14160791015625,0.25005021691322327,0.08115092664957047,0.0024336534552276134
1761468632386564000,8.151564208984375,0.20650778710842133,0.029895992949604988,0.0319577232003212
1761468632396519000,8.161518798828125,0.10662256926298141,-0.12476380169391632,-0.0022791572846472263
1761468632406474800,8.171474853515624,-0.04142468050122261,-0.2697548270225525,-0.08150233328342438
1761468632416430800,8.181430908203126,-0.20610132813453674,-0.329558402299881,-0.17991474270820618
1761468632426386000,8.191385986328125,-0.3496779203414917,-0.3129432201385498,-0.2754599153995514
1761468632436342000,8.201342041015625,-0.4451455771923065,-0.2262110710144043,-0.3530828654766083
1761468632446297600,8.211297607421875,-0.47857916355133057,-0.07947248220443726,-0.3982980251312256
1761468632456253400,8.22125341796875,-0.43316468596458435,0.1119881123304367,-0.37904223799705505
1761468632466208800,8.231208740234376,-0.3109716475009918,0.30851635336875916,-0.29419392347335815
1761468632476164600,8.24116455078125,-0.14473721385002136,0.4641415476799011,-0.15834113955497742
1761468632486120700,8.25112060546875,0.03267965465784073,0.5828282237052917,0.021589748561382294
1761468632496075500,8.261075439453125,0.1929052174091339,0.66340172290802,0.2164686918258667
1761468632506031900,8.271031982421874,0.3184892535209656,0.7127344012260437,0.4043438136577606
1761468632515987700,8.28098779296875,0.39263445138931274,0.720971405506134,0.5632519721984863
1761468632525942500,8.290942626953125,0.4201638102531433,0.6839007139205933,0.6761465668678284
1761468632535898600,8.300898681640625,0.4180283546447754,0.6007531881332397,0.7204534411430359
1761468632545854500,8.3108544921875,0.403452605009079,0.4894988238811493,0.7012869119644165
1761468632555809800,8.320809814453124,0.3924805521965027,0.3827303946018219,0.6407390832901001
1761468632565765600,8.330765625,0.3972476124763489,0.2979755699634552,0.5641199350357056
1761468632576344800,8.3413447265625,0.4120708405971527,0.22926492989063263,0.47874465584754944
1761468632586300700,8.35130078125,0.4214022755622864,0.17883558571338654,0.40915146470069885
1761468632596256800,8.3612568359375,0.4176495373249054,0.12281901389360428,0.37165436148643494
1761468632606211600,8.371211669921875,0.37913036346435547,0.0771295502781868,0.3490675687789917
1761468632616167400,8.38116748046875,0.31804800033569336,0.04105623438954353,0.31814292073249817
1761468632626123800,8.391123779296874,0.24664360284805298,0.0017314654542133212,0.25993821024894714
1761468632636078600,8.40107861328125,0.18060147762298584,-0.035893406718969345,0.17404411733150482
1761468632646034700,8.41103466796875,0.11321072280406952,-0.055146194994449615,0.07520835101604462
1761468632655990500,8.420990478515625,0.05316755175590515,-0.046181198209524155,-0.020438233390450478
1761468632665945600,8.430945556640625,0.010019817389547825,-0.032771650701761246,-0.0979335606098175
1761468632675901700,8.440901611328124,-0.02004973404109478,-0.03102443739771843,-0.1790415644645691
1761468632685857500,8.450857421875,-0.028136687353253365,-0.050552863627672195,-0.25352752208709717
1761468632695812600,8.4608125,0.004713863134384155,-0.0705912858247757,-0.2949790358543396
1761468632705768700,8.470768798828125,0.07208970189094543,-0.06638828665018082,-0.30869990587234497
1761468632715724800,8.480724853515625,0.16634348034858704,-0.02405974082648754,-0.29685264825820923
1761468632725680600,8.4906806640625,0.27139079570770264,0.063455730676651,-0.26259106397628784
1761468632735635700,8.5006357421875,0.3891209661960602,0.17819465696811676,-0.21426531672477722
1761468632745591600,8.510591552734375,0.49892282485961914,0.28185153007507324,-0.1624910682439804
1761468632755547600,8.520547607421875,0.5773100852966309,0.33114320039749146,-0.12647780776023865
1761468632765502700,8.530502685546875,0.6287538409233093,0.33911004662513733,-0.09072832763195038
1761468632775458600,8.54045849609375,0.6627599000930786,0.3349657952785492,-0.04507093131542206
1761468632785414700,8.55041455078125,0.6724966764450073,0.30711767077445984,0.0025122982915490866
1761468632795369700,8.56036962890625,0.6649696230888367,0.25795596837997437,0.03541027754545212
1761468632805325800,8.570325927734375,0.6491155624389648,0.21306732296943665,0.05154930055141449
1761468632815281700,8.58028173828125,0.6305517554283142,0.17571498453617096,0.05770397186279297
1761468632825237800,8.59023779296875,0.6211598515510559,0.14343640208244324,0.059418778866529465
1761468632835192600,8.600192626953126,0.6235990524291992,0.1262374371290207,0.05998528003692627
1761468632845148700,8.610148681640625,0.6292601227760315,0.12678417563438416,0.061220720410346985
1761468632855104800,8.620104736328125,0.6235163807868958,0.13958121836185455,0.07517320662736893
1761468632865059600,8.6300595703125,0.5968075394630432,0.14678213000297546,0.09138946235179901
1761468632875015700,8.640015625,0.5622748136520386,0.1484479457139969,0.10667865723371506
1761468632884971500,8.649971435546876,0.5355188250541687,0.15182776749134064,0.11549132317304611
1761468632894926600,8.659926513671875,0.5217999815940857,0.1782866269350052,0.11412810534238815
1761468632904882700,8.669882568359375,0.512823760509491,0.20854546129703522,0.11038290709257126
1761468632914838500,8.679838623046875,0.4999842345714569,0.23681242763996124,0.103474922478199
1761468632924793600,8.689793701171874,0.4914674162864685,0.27088889479637146,0.11139116436243057
1761468632934749700,8.699749755859376,0.48598673939704895,0.30878257751464844,0.14995406568050385
1761468632944705800,8.709705810546875,0.4795307219028473,0.3682062327861786,0.22350232303142548
1761468632954661600,8.71966162109375,0.4867456555366516,0.45565131306648254,0.29654011130332947
1761468632964616400,8.729616455078125,0.5090610980987549,0.554585337638855,0.3316275477409363
1761468632974572500,8.739572509765624,0.5255593061447144,0.5913524031639099,0.29231828451156616
1761468632984528600,8.749528564453126,0.513342559337616,0.4660719931125641,0.1679646223783493
1761468632994483700,8.759483642578125,0.46398505568504333,0.181046724319458,-0.0024024497251957655
1761468633004439600,8.769439453125,0.3957918882369995,-0.11314070224761963,-0.12666581571102142
1761468633014395600,8.779395751953125,0.3317006230354309,-0.31571662425994873,-0.15031097829341888
1761468633024350700,8.789350830078124,0.29694318771362305,-0.42367956042289734,-0.08566274493932724
1761468633034306600,8.799306640625,0.3104352056980133,-0.3586924970149994,0.0626523569226265
1761468633044262700,8.8092626953125,0.36840423941612244,-0.11797016859054565,0.2551424503326416
1761468633054218500,8.819218505859375,0.4636571407318115,0.23662254214286804,0.425567626953125
1761468633064173800,8.829173828125,0.579221248626709,0.5838491916656494,0.5224401354789734
1761468633074129700,8.839129638671874,0.6737613081932068,0.8051983118057251,0.5266273021697998
1761468633084085800,8.849085693359376,0.7455018162727356,0.867744505405426,0.4701075553894043
1761468633094040600,8.85904052734375,0.7986772060394287,0.8047657608985901,0.38749730587005615
1761468633103996700,8.86899658203125,0.8412718176841736,0.6668313145637512,0.3091164827346802
1761468633113952500,8.878952392578125,0.8739662766456604,0.4912663698196411,0.25106462836265564
1761468633123907600,8.888907470703124,0.9103410840034485,0.3284955620765686,0.24402004480361938
1761468633133863700,8.89886376953125,0.9603855013847351,0.1861932873725891,0.27698713541030884
1761468633143819500,8.908819580078125,1.018447995185852,0.04756775498390198,0.327933132648468
1761468633153774800,8.91877490234375,1.0767463445663452,-0.0891217440366745,0.3852526545524597
1761468633163730700,8.928730712890625,1.1259891986846924,-0.1843622475862503,0.4266293942928314
1761468633173686800,8.938686767578124,1.1535722017288208,-0.21876122057437897,0.44001880288124084
1761468633183642600,8.948642578125,1.1603087186813354,-0.205551415681839,0.4373612403869629
1761468633193597400,8.958597412109375,1.1488745212554932,-0.17336009442806244,0.42161673307418823
1761468633203553800,8.9685537109375,1.110642433166504,-0.11341340839862823,0.3850020170211792
1761468633213509600,8.978509521484375,1.0504150390625,-0.011088903062045574,0.3176027834415436
1761468633223464700,8.988464599609374,0.9848080277442932,0.13261127471923828,0.22568084299564362
1761468633233420500,8.998420654296876,0.9165351986885071,0.3014240860939026,0.11624791473150253
1761468633243376600,9.008376708984375,0.8508733510971069,0.4576328694820404,-0.0016142698004841805
1761468633253331700,9.018331787109375,0.7992744445800781,0.5645644664764404,-0.1072644293308258
1761468633263287600,9.02828759765625,0.7693064212799072,0.5961620211601257,-0.19004054367542267
1761468633273243600,9.03824365234375,0.7659845352172852,0.5276357531547546,-0.2376624196767807
1761468633283199500,9.048199462890626,0.780035674571991,0.4084598124027252,-0.23588448762893677
1761468633293154800,9.05815478515625,0.8000874519348145,0.27817803621292114,-0.1975492537021637
1761468633303110700,9.068110595703125,0.827383279800415,0.12933984398841858,-0.1358800232410431
1761468633313066800,9.078066650390625,0.8592542409896851,-0.0228018406778574,-0.08139731734991074
1761468633323021600,9.088021484375,0.8808436989784241,-0.14436794817447662,-0.05225328356027603
1761468633332977400,9.097977294921876,0.8834497332572937,-0.2194913774728775,-0.046527694910764694
1761468633342933800,9.107933837890625,0.8696657419204712,-0.24308139085769653,-0.06582149863243103
1761468633352888600,9.117888671875,0.8550689816474915,-0.21021594107151031,-0.09892873466014862
1761468633362844700,9.1278447265625,0.8309519290924072,-0.1319805234670639,-0.11566563695669174
1761468633372800500,9.137800537109374,0.7976661920547485,-0.028900034725666046,-0.08783748000860214
1761468633382756600,9.147756591796876,0.7509692907333374,0.054204441606998444,-0.03756232559680939
1761468633392711700,9.157711669921875,0.6995332837104797,0.07525663822889328,0.015015249140560627
1761468633402667800,9.167667724609375,0.6385095715522766,0.06966320425271988,0.07191874086856842
1761468633412623600,9.17762353515625,0.5655274391174316,0.042734116315841675,0.13239483535289764
1761468633422578700,9.18757861328125,0.4776444435119629,0.01408595871180296,0.17952373623847961
1761468633432534800,9.19753466796875,0.3781832456588745,-0.008399642072618008,0.2196127325296402
1761468633442490000,9.207489990234375,0.27390265464782715,-0.024437464773654938,0.252814918756485
1761468633452445000,9.21744482421875,0.18581891059875488,-0.04208116978406906,0.27799293398857117
1761468633462401000,9.227401123046874,0.1260935366153717,-0.057874515652656555,0.3024601936340332
1761468633472357000,9.237357177734374,0.08687809109687805,-0.06574194133281708,0.3363790512084961
1761468633482312200,9.247312255859375,0.07389438152313232,-0.07097132503986359,0.3861559331417084
1761468633492268000,9.25726806640625,0.07756327092647552,-0.06853790581226349,0.4416958689689636
1761468633502224100,9.26722412109375,0.08133537322282791,-0.03952515870332718,0.5002001523971558
1761468633512180000,9.277179931640624,0.0883612185716629,0.053216319531202316,0.5454378724098206
1761468633522135300,9.28713525390625,0.09025952219963074,0.20581570267677307,0.5488315224647522
1761468633532091100,9.297091064453125,0.05144980922341347,0.3270552456378937,0.46869096159935
1761468633542047200,9.307047119140625,-0.03916184976696968,0.3753439486026764,0.29339611530303955
1761468633552002300,9.317002197265625,-0.1692020297050476,0.2960340976715088,0.030003231018781662
1761468633561958100,9.326958251953124,-0.3400033414363861,0.17506961524486542,-0.25821682810783386
1761468633571914200,9.336914306640624,-0.5648938417434692,0.024848947301506996,-0.5033555626869202
1761468633581869000,9.346869140625,-0.8273445963859558,-0.1002112329006195,-0.656158447265625
1761468633591825200,9.3568251953125,-1.0569933652877808,-0.10675071179866791,-0.6963416337966919
1761468633601781200,9.36678125,-1.1914860010147095,0.02032787725329399,-0.630497395992279
1761468633611737300,9.3767373046875,-1.1931992769241333,0.2829124629497528,-0.4640315771102905
1761468633621692200,9.386692138671876,-1.0773366689682007,0.6160008907318115,-0.24353168904781342
1761468633631648000,9.39664794921875,-0.8875632286071777,0.8805970549583435,-0.03846888616681099
1761468633641604000,9.40660400390625,-0.6656036972999573,0.9890319108963013,0.1008400022983551
1761468633651559200,9.41655908203125,-0.4540516138076782,0.9762073159217834,0.20425784587860107
1761468633661515300,9.426515380859374,-0.2482457160949707,0.8722662925720215,0.28500011563301086
1761468633671471000,9.43647119140625,-0.06744486838579178,0.7098096013069153,0.3352780044078827
