time,seconds_elapsed,z,y,x
1761469390164179200,0.05717919921875,0.8542600370764731,0.004132569760084152,0.4517282340262085
1761469390174134000,0.067134033203125,0.7769593552529811,-0.09504384378492832,0.23632735109943895
1761469390184088800,0.0770888671875,0.7335323014587164,-0.057443304187059396,0.08866948644742369
1761469390194044200,0.087044189453125,0.6933651262432337,0.007291326051950454,0.059638439611159264
1761469390204000000,0.097,0.6066442896455526,0.09150748635232447,0.13354980778992176
1761469390213954800,0.106954833984375,0.7170791793078184,-0.00976326912343502,0.09255597249194979
1761469390223910100,0.11691015625,0.5940916820645332,-0.22540040849149226,-0.1778743218805641
1761469390233865000,0.126864990234375,0.34552433299720287,-0.22260639385879039,-0.42937151385471223
1761469390243820000,0.136820068359375,0.17803543072640896,-0.317453838288784,-0.5311697638032957
1761469390253775000,0.146775146484375,-0.04438274708390236,-0.1495598623484373,-0.5476205113340169
1761469390263730200,0.156730224609375,-0.3472562713563442,0.23435528384149074,-0.23920747311301527
1761469390273685000,0.16668505859375,-0.6042874973863362,0.49165422089695926,0.2540840301295742
1761469390283639800,0.176639892578125,-0.648005643081665,0.6089420451939106,0.5021908490130678
1761469390293595100,0.18659521484375,-0.479438882446289,0.6011480303168296,0.5718222748503089
1761469390303550000,0.196550048828125,-0.27511048807799815,0.6051286243855953,0.5096261135803535
1761469390313505000,0.206505126953125,-0.25555238564908506,0.6168120479166508,0.4495132979230955
1761469390323460000,0.216460205078125,-0.33454876547455786,0.6005734452992677,0.323818624080345
1761469390333415000,0.226414794921875,-0.15972645157575607,0.6481961972177028,0.00937927477452904
1761469390343370000,0.236369873046875,0.03642272799015045,0.39177930369377134,-0.09441161029599607
1761469390353325000,0.246324951171875,0.18185352770984173,-0.06309095468521118,0.042862222985737025
1761469390363280100,0.256280029296875,0.36669571584165095,-0.1262760173946619,-0.0496014681128785
1761469390373235000,0.26623486328125,0.39786534560918807,0.030738837134838104,-0.2535390000000596
1761469390383190000,0.27618994140625,0.27698095812499524,0.012402385455369948,-0.22888375709522515
1761469390393145000,0.28614501953125,0.31798750677406784,0.08843757738769054,0.01424856131132692
1761469390403100000,0.296099853515625,0.40721594227850433,0.33088615131378174,0.22348975256457923
1761469390413055000,0.306054931640625,0.4572206208974123,0.4830523967683315,0.5050433158347383
1761469390423010000,0.316010009765625,0.8465326576948166,0.7839712798416614,-0.6422218720484525
1761469390432965000,0.325965087890625,0.32087212229967116,1.296332188680768,-1.252767187720537
1761469390442921000,0.3359208984375,-0.13002397175133226,1.3539753993541002,-1.020622492600605
1761469390452876000,0.3458759765625,-0.3875473652124405,1.1367553747087717,-1.2505845829844473
1761469390462831000,0.3558310546875,-0.6019020635545254,0.8840735760599374,-1.32100251955688
1761469390472786000,0.365785888671875,-0.7220809331178665,0.6112643506616353,-1.3071829607799648
1761469390482741000,0.375740966796875,-0.7125655012756585,0.39952188064455985,-1.4373989479720592
1761469390492696000,0.385696044921875,-0.6444762999117374,0.3369827146232128,-1.3496465763695538
1761469390502651000,0.39565087890625,-0.5134299993753433,0.3666635671377182,-1.0439539030231535
1761469390512606000,0.40560595703125,-0.43598552516698835,0.2792687768012285,-1.0852148648247122
1761469390522561000,0.41556103515625,-0.37725335021317,0.2249848134279251,-1.1262166642334313
1761469390532516000,0.42551611328125,-0.26493630006611346,0.2650350842654705,-1.204786416144669
1761469390542471000,0.435470947265625,-0.11045359436273575,0.3143704853206873,-1.2545486643098294
1761469390552426000,0.445426025390625,0.07287117494344711,0.31843115888834,-1.408444656166434
1761469390562381000,0.455381103515625,0.160438983759284,0.25150398704111576,-1.2101010352961719
1761469390572335900,0.4653359375,0.22134791823029518,-0.11255728864371776,-0.739835639386624
1761469390582291200,0.475291259765625,0.42062253634035585,-0.3839677531599998,-0.3631231180518865
1761469390592246000,0.48524609375,0.4627624729335308,-0.42924072708189487,0.301261668629013
1761469390602201000,0.495201171875,0.3967360493183136,-0.40371699424684043,0.9494282378934323
1761469390612156000,0.505156005859375,0.4532967254519462,-0.4061924444496631,1.483664440062642
1761469390622111000,0.515111083984375,0.567888734793663,-0.478722843131423,1.9495612654991448
1761469390632066000,0.525066162109375,0.48689621271491046,-0.7380132462650537,2.4619918785735964
1761469390642020900,0.535020751953125,0.29977555825710295,-1.1095417890906334,2.680157367375493
1761469390651976200,0.54497607421875,0.4113011657655239,-1.5351725089818238,2.941395397445559
1761469390661931000,0.554930908203125,0.7300625795215367,-1.1126999608606098,2.0660687530733646
1761469390671886800,0.564886962890625,1.1330816546320914,-0.5857563999176025,-0.11355864770598709
1761469390681842200,0.57484228515625,0.6875532250940799,-0.582868277260661,-0.6141724201280623
1761469390691797000,0.584796875,0.36516602205634113,-0.3510521565079689,-0.5982873071234673
1761469390701752000,0.594751953125,-0.13403788356781005,-0.40655893967449663,-1.1177079982809721
1761469390711707100,0.60470703125,-1.2085977911263703,-0.389118560051918,-1.0934790544968098
1761469390721662000,0.614661865234375,-1.543730493968725,0.03007365122437477,-0.8217830510374158
1761469390731617000,0.624616943359375,-1.1133306599795818,0.16639759990274905,-0.7778215981055051
1761469390741571800,0.63457177734375,-1.466954128280282,0.11377367869615554,-0.5225754288613796
1761469390751527200,0.644527099609375,-1.4512942023336886,0.12548165214657783,-0.10482355258651077
1761469390761482000,0.65448193359375,-1.2338567355453967,0.04572890099585056,0.21051555857062337
1761469390771437000,0.66443701171875,-0.9653723876088857,-0.18471067070662975,0.21862302331104874
1761469390781392100,0.67439208984375,-0.3304986133009195,0.27740707458257674,0.5351129850037396
1761469390791347000,0.684346923828125,0.01956102503836155,0.08437515025436877,0.9520726149223744
1761469390801302000,0.694302001953125,0.6118956343024968,-0.646207653748989,0.6216593418173492
1761469390811257000,0.704257080078125,1.017200190001726,-0.6139291859567165,0.5033998960092664
1761469390821212200,0.714212158203125,1.16152565882802,-0.49243806475102897,0.1864677435070276
1761469390831167000,0.7241669921875,1.0003139371305703,-0.3762655082195997,0.1294029903087765
1761469390841121800,0.734121826171875,0.8343342703789473,-0.3021773587018251,-0.07251987728774548
1761469390851077000,0.7440771484375,0.4381529323339462,0.08858663046956061,-0.2544477854080498
1761469390861032000,0.754031982421875,0.1430325064063072,0.3940905032455921,-0.10883965636007487
1761469390870987000,0.763987060546875,0.17176701798141,0.5402542934149503,0.3297095087498426
1761469390880942000,0.773942138671875,0.32152561777234073,0.44421851598322387,0.6356481196813285
1761469390890898000,0.78389794921875,0.6390268023341894,0.2539613170653581,0.68318436236009
1761469390900853000,0.79385302734375,0.6230699392676353,0.0368868383705616,0.641595118452236
1761469390910808000,0.80380810546875,0.4193991320252418,-0.06313420930504798,0.4247669426687061
1761469390920763100,0.81376318359375,0.3847819921523332,-0.0788274529993534,0.24986374555341898
1761469390930718000,0.823718017578125,0.4457984786510467,-0.13703063564300536,0.2580128574784845
1761469390940673000,0.833673095703125,0.8166939842700958,-0.006397592082619667,0.19380290870070457
1761469390950628000,0.843628173828125,1.0829127253621815,0.16208032122552393,0.20504699096642434
1761469390960583000,0.8535830078125,0.866629104784131,0.009094576081633568,0.4778787204574793
1761469390970538000,0.8635380859375,0.15726386085450647,-0.2857137151569128,0.37860936793200667
1761469390980493000,0.8734931640625,-0.33711540109217164,-0.22388123610019683,0.05841105324067175
1761469390990447900,0.88344775390625,-0.4281804043740034,0.0967260977834463,0.07579860669746995
1761469391000403000,0.89340283203125,-0.5826999349564314,0.25445757614970205,0.13777180939912795
1761469391010358000,0.90335791015625,-0.3082645696610212,0.37037235852777955,0.12707323218695818
1761469391020313000,0.91331298828125,-0.3792763804733753,0.034328970581293104,0.18645912180915475
1761469391030268000,0.923267822265625,-0.36821547275483607,-0.09551847555935382,0.14570464822500942
1761469391040223200,0.93322314453125,-0.23107903864979742,-0.011675240224599837,0.062179246667772525
1761469391050178000,0.943177978515625,-0.23145897787809372,-0.05186521179378032,-0.011544234256073831
1761469391060132900,0.9531328125,-0.25986089649796484,-0.048971243917942046,0.019849121264740824
1761469391070088000,0.963087890625,-0.18917349533438682,0.05462590867877006,0.1431236187558621
1761469391080043000,0.97304296875,-0.184659817302227,0.007518705067038536,0.12396262588575481
1761469391089998000,0.982998046875,-0.08273205922245978,0.02521978145241737,-0.006261471547558903
1761469391099953000,0.992952880859375,-0.22721710252463817,0.17340777092576026,0.023889336566254495
1761469391109908200,1.002908203125,-0.32829204316735267,0.170299283516407,0.07250738313235341
1761469391119864300,1.0128642578125,-0.12359949166178702,0.19567747040092945,0.01674099918156862
1761469391129819100,1.022819091796875,-0.0007423427999019623,0.06655366235971451,-0.053561859643831845
1761469391139774200,1.032774169921875,0.1929904232740402,0.07069149281680584,0.003735387136042118
1761469391149729300,1.042729248046875,0.3844049755334854,0.08137479939460754,0.15003741673231125
1761469391159684000,1.05268408203125,0.42699616302549837,0.022871172499656676,0.24451325137093663
1761469391169639200,1.06263916015625,0.35659517758786674,-0.05211421811878681,0.192913412515074
1761469391179594000,1.072593994140625,0.28723990181088443,-0.1248205578893423,0.21499241172373293
1761469391189549300,1.08254931640625,0.2705728446483612,-0.014745149189233779,0.07648278956934809
1761469391199504100,1.092504150390625,0.18349603421986102,-0.057141106370091434,0.21190145997107027
1761469391209459000,1.102458984375,0.07455927416086197,-0.06885609408318996,0.3601169585058465
1761469391219414300,1.112414306640625,0.03500233979821205,-0.03450608071386814,0.33708708831313994
1761469391229369000,1.122369140625,0.0964870283305645,0.09839783038794994,0.3464834238203242
1761469391239324200,1.13232421875,-0.13552724534273147,-0.08900748623013496,0.31067005990017205
1761469391249279000,1.142279052734375,-0.33685002815425397,-0.4129746519356966,0.14647621711939574
1761469391259234300,1.152234375,-0.3986865988641977,-0.32743045790195463,0.02718604002408683
1761469391269189000,1.162189208984375,-0.3947346463680267,-0.12635960402488708,-0.03841309808976948
1761469391279144000,1.17214404296875,-0.4147761483997106,0.32884090922176834,0.3741510368162766
1761469391289099300,1.182099365234375,-0.5560258630424738,-0.3258849820256233,0.33958369090184565
1761469391299054000,1.19205419921875,-0.5726929202049971,-0.8747568816602229,0.3049973480259999
1761469391309009200,1.202009033203125,-0.4283680359005928,-0.4243891953974962,0.11482508744522929
1761469391318964200,1.211964111328125,-0.2441121232241392,-0.044454643276333805,-0.005857530389167368
1761469391328919300,1.221919189453125,-0.28832477443814275,0.36550562927424907,0.5776437475454061
1761469391338874000,1.2318740234375,-0.5773077205240726,-0.09508651388287544,0.5912616097377613
1761469391348829000,1.241828857421875,-0.7850403703778982,-0.20743220560252665,0.3878289951654151
1761469391358784300,1.2517841796875,-0.6572124473661184,0.0041273090630769725,-0.068504339769762
1761469391368740000,1.261739990234375,-0.6684305914729833,-0.004355857121944427,-0.5151152490485459
1761469391378695200,1.271695068359375,-0.5869073235183954,-0.16582184584140777,-0.7242012862727045
1761469391388650200,1.281650146484375,-0.29761750344038007,-0.14574936414957046,-0.6367785119507462
1761469391398605000,1.29160498046875,0.008646832314133643,-0.2054085908204317,-0.5923063330177217
1761469391408560000,1.30156005859375,0.21849135975539682,-0.18064356739819049,-0.3589144508482888
1761469391418515200,1.31151513671875,0.4017296198219061,-0.06893442001640797,-0.031595600094646216
1761469391428470000,1.321469970703125,0.4245516924828291,-0.044129064583778375,0.07964894371638075
1761469391438425000,1.331425048828125,0.3455705102264881,-0.0091454294860363,0.11144603946618735
1761469391448380200,1.341380126953125,0.1814794337004423,-0.042671851512789724,0.04840372796198353
1761469391458335200,1.351335205078125,0.01790098287165165,0.05988251403272152,-0.006138301825616508
1761469391468290000,1.3612900390625,-0.028101474368572233,0.21639467973709106,-0.06717933824369683
1761469391478245000,1.3712451171875,-0.13811317018270491,0.16293313866257667,-0.098566629349906
1761469391488200200,1.3812001953125,-0.1744213318824768,0.13302198452353475,-0.09605844592126085
1761469391498155000,1.391155029296875,-0.1282230598092079,0.16092764405906199,-0.07469669160386547
1761469391508110000,1.401110107421875,-0.06874737301170826,0.19647417373657225,0.03087979824179783
1761469391518065200,1.411065185546875,-0.049797173348069185,0.1891051062732935,0.23261404793104157
1761469391528020200,1.421020263671875,-0.11328092674314975,0.1884767452418804,0.40797048697285354
1761469391537975000,1.43097509765625,-0.23483517631292342,0.23705928210318086,0.4283026425141841
1761469391547930400,1.440930419921875,-0.4298088823586702,0.2842681925237179,0.3209811356320977
1761469391557885200,1.45088525390625,-0.5502858580857515,0.39227205564677714,0.2464418082807213
1761469391567840000,1.460840087890625,-0.6065227090924978,0.6617150194823741,0.3795526766641065
1761469391577795000,1.470795166015625,-0.49605683977007864,0.43383273104727266,0.13015906937308608
1761469391587750100,1.480750244140625,-0.5984884557187556,0.16978724234104156,-0.153260799225606
1761469391597706000,1.4907060546875,-0.7131172899395227,0.4154840044081211,-0.32914193799495695
1761469391607661300,1.500661376953125,-0.5426145928055047,0.49463002183735366,-0.5967552387179806
1761469391617616100,1.5106162109375,-0.4004717287153005,0.2970966944366693,-0.6405668713830411
1761469391627571200,1.5205712890625,-0.2097790609896183,0.20855156502127647,-0.4536014805521816
1761469391637526000,1.530526123046875,-0.0737643243908882,0.2447352235585451,-0.3312169176381081
1761469391647481000,1.540481201171875,0.04405366126000881,0.25262451550364495,-0.232619399959594
1761469391657436200,1.550436279296875,0.12528817540109158,0.25321137548089023,-0.09158135530613362
1761469391667391000,1.560390869140625,0.10155658667981624,0.19479425782561302,0.028498035938106476
1761469391677346300,1.57034619140625,0.06584872896075249,0.222810391998291,0.09937224664436653
1761469391687301000,1.580301025390625,0.028653263032436368,0.2617623462051153,0.1748571477501653
1761469391697256200,1.590256103515625,-0.026465397599339482,0.23596681069135664,0.2128146110269241
1761469391707211000,1.6002109375,-0.050966801649332046,0.1999661075055599,0.15323082421245052
1761469391717166000,1.610166015625,-0.018776596662402154,0.20320202068686485,0.07200874942783266
1761469391727121200,1.62012109375,-0.02442074002921581,0.21548341011106967,-0.029980109455715862
1761469391737076000,1.630075927734375,-0.004775543838739395,0.1769213320046663,-0.12097509797494858
1761469391747031300,1.64003125,0.04057458697259426,0.18624796327650545,-0.17764252241868525
1761469391756986000,1.649986083984375,0.1311520989984274,0.24200901346504686,-0.1702027643393725
1761469391766941200,1.659941162109375,0.19918343269526959,0.2662216637015343,-0.17284531473740936
1761469391776896300,1.669896240234375,0.26144611986279487,0.3107838590055704,-0.14275291314679198
1761469391786851000,1.67985107421875,0.42023032215237616,0.35287878741323947,-0.11340396860092877
1761469391796806100,1.68980615234375,0.6017138475060463,0.35142741956114765,-0.07610394631959498
1761469391806761000,1.699760986328125,0.782923816615343,0.3701134153306484,-0.044598663990059864
1761469391816716300,1.70971630859375,0.916732567602396,0.4437959066569805,0.02433120314881671
1761469391826671000,1.719671142578125,1.0166542465567587,0.5342652821332216,0.14529013087367637
1761469391836627200,1.729627197265625,1.1685329072415829,0.5885428157657384,0.3421918275736272
1761469391846582300,1.739582275390625,1.182997485923767,0.6820517050683498,0.2754274085400626
1761469391856537000,1.749537109375,1.1501461866796017,0.7693962265223264,0.08798696580966935
1761469391866492200,1.7594921875,1.0491863968491553,0.7414777075052261,-0.12803997659357264
1761469391876447200,1.769447265625,1.0053905097424984,0.6814841343134641,-0.29505910592814905
1761469391886402000,1.779402099609375,1.0651187099963426,0.6895639803946018,-0.3932000572118908
1761469391896357000,1.789357177734375,1.1217746631979941,0.645931759417057,-0.5129224882446229
1761469391906312200,1.799312255859375,1.1131073726177214,0.8555629363685846,-0.44125473427418616
1761469391916267300,1.809267333984375,1.0833511167794465,1.0822358490139246,-0.3340197731643915
1761469391926222000,1.81922216796875,0.9496054941564798,1.1520558196932076,-0.15263172580813988
1761469391936177200,1.82917724609375,0.8604127144873142,1.4222937332987784,-0.002365395690780133
1761469391946132200,1.83913232421875,0.7965081053316593,1.5926193203002212,-0.0836070884913206
1761469391956087000,1.849087158203125,0.773895291507244,1.5552853226840495,-0.2038514062399976
1761469391966042000,1.8590419921875,1.007241106045246,1.644444784605503,-0.22789355874778702
1761469391975997200,1.8689970703125,1.3463228387743233,1.7166490200728177,-0.3786513439102098
1761469391985952300,1.8789521484375,1.6758797873109579,1.775345539191365,-0.6270130508702247
1761469391995907000,1.888906982421875,2.0742250253915784,1.8494746052414177,-0.8700557912971824
1761469392005862100,1.898862060546875,2.4346090738683936,1.8714070355862378,-0.8415166561637073
1761469392015817200,1.908817138671875,2.985608048659563,1.8941496132701634,-0.6641034489888697
1761469392025772000,1.91877197265625,3.440380107361078,1.7660931421995163,-0.517355867582187
1761469392035727000,1.92872705078125,3.7790082511037584,1.747562629252672,-0.3667489803988486
1761469392045682200,1.93868212890625,3.8637726929366587,2.0259248126029967,0.12191069832462817
1761469392055637200,1.94863720703125,3.6034143683105704,2.2719079903960226,0.9559175268474965
1761469392065593300,1.95859326171875,2.9342016865491867,2.747273339793086,2.0975395577445624
1761469392075548200,1.968548095703125,2.413233692884445,2.3325714256733656,2.374135315944254
1761469392085503000,1.9785029296875,1.783659778550267,0.9079548023849725,1.7823504495173692
1761469392095458000,1.9884580078125,1.8395564378172158,-0.4502893603295088,0.7829621758643537
1761469392105412900,1.998412841796875,1.8248054434090852,-2.4066473002314566,0.6628490650136023
1761469392115368200,2.0083681640625,1.1369891834646462,-4.781113747826218,0.6676688133202493
1761469392125323000,2.018322998046875,-0.5265665443241596,-8.03905171393454,0.7895417734503746
1761469392135278000,2.028278076171875,-2.4270500367909666,-11.908282087755202,0.5778406948896124
1761469392145233000,2.03823291015625,-5.843005312469601,-15.949949341642856,0.53363882079795
1761469392155188000,2.04818798828125,-5.7437552491664885,-16.062286265534162,0.33510303835645316
1761469392165143000,2.05814306640625,-5.640009043487906,-16.19308005261421,0.09357683997228741
1761469392175097900,2.068097900390625,-5.5634688246428965,-16.306809307646752,-0.1487983764566481
1761469392185053200,2.07805322265625,-5.555306560975313,-16.35201856868267,-0.37480814901813864
1761469392195008000,2.088008056640625,-5.660004368290305,-16.278153706526755,-0.5934644900768995
1761469392204963000,2.097963134765625,-5.907820022207498,-16.064515632021426,-0.8130703869454562
1761469392214918000,2.10791796875,-6.29980390856266,-15.732410168045758,-1.0123043807841836
1761469392224873000,2.117873046875,-6.817671013602614,-15.327280384391546,-1.1689638460047542
1761469392234828000,2.127828125,-7.428180161982774,-14.900774635231494,-1.267102440934628
1761469392244782800,2.137782958984375,-8.077131561481952,-14.50543676227331,-1.3079668046340345
1761469392254738200,2.14773828125,-13.832504767727851,-4.854962243369221,2.216646560292691
1761469392264693000,2.15769287109375,-9.061350688380003,-4.648374671897292,2.4090371179774404
1761469392274648000,2.16764794921875,-5.912178217417002,-4.830130584451556,0.9876197291217744
1761469392284603100,2.17760302734375,-4.396791482140124,-4.19682274428606,-0.8083185162432491
1761469392294558000,2.187557861328125,-6.110135323187708,-2.555071436548233,-0.6582756926834583
1761469392304513000,2.197512939453125,-9.756763979324697,1.17053372566998,0.5560781777516007
1761469392314467800,2.2074677734375,-11.609328367275,4.615933707019686,1.559051689480245
1761469392324424000,2.217423828125,-12.110627199351788,6.77118340319395,1.6022301753409205
1761469392334379000,2.22737890625,-11.509133132076263,8.74596430401504,0.34330738760009405
1761469392344334000,2.237333984375,-10.046137970554827,10.26980760973096,-1.3221163260176778
1761469392354289200,2.2472890625,-7.7749536182582375,10.934710611599684,-3.354043301644921
1761469392364244000,2.257243896484375,-4.708090012669563,10.986911923480033,-5.163873878762126
1761469392374199000,2.267198974609375,-1.191110722817853,11.367830810463428,-6.115433429595828
1761469392384154000,2.277154052734375,2.0940835720717907,11.652658974957465,-6.418329165700078
1761469392394109000,2.28710888671875,4.66984474542737,11.207031176698207,-5.936438213926554
1761469392404064000,2.29706396484375,6.1746530958056445,11.082083777558802,-5.304904397696256
1761469392414019000,2.30701904296875,5.881507184821367,11.661833630537986,-5.159609791576862
1761469392423974100,2.31697412109375,3.8586791691899296,12.477627451097964,-5.160689988029003
1761469392433929000,2.326928955078125,1.149382801091671,13.10880821610689,-5.153278834989667
1761469392443883800,2.3368837890625,-1.711905917198956,13.744745820254087,-5.074339738309383
1761469392453839000,2.346839111328125,-4.285115944766998,14.435123455119133,-4.9732063454777
1761469392463794000,2.3567939453125,-5.387634118831158,14.796708696079254,-4.866798811635375
1761469392473749000,2.3667490234375,-3.9115377759352326,15.048755703955887,-4.212218466338515
1761469392483704000,2.3767041015625,-1.6171116642609238,14.94994110946059,-2.916331975598633
1761469392493659100,2.3866591796875,0.2588350605815649,14.555612121284007,-2.081438317771256
1761469392503614000,2.396614013671875,1.7976088089257478,13.973122029685973,-2.1462723167315123
1761469392513569000,2.406569091796875,2.741150765259564,13.415838860058784,-2.683506385542452
1761469392523524000,2.416524169921875,3.058440060636401,12.942346903318166,-3.493350065526366
1761469392533479000,2.42647900390625,2.290568851724267,12.50143385862112,-4.39413073849827
1761469392543434000,2.43643408203125,0.7729945432752371,12.399818235230445,-5.076923325061798
1761469392553389000,2.44638916015625,-0.9609335283786058,12.744691995364427,-5.434819063854217
1761469392563345000,2.456344970703125,-2.3765707263976332,12.94114395726919,-5.431425914284587
1761469392573300200,2.46630029296875,-3.0434499967753887,12.95419983819723,-5.27429298633337
1761469392583255000,2.476255126953125,-2.5598349976882337,13.199024493604897,-5.058733588376641
1761469392593209900,2.4862099609375,-1.4917495468407869,13.81898594546318,-4.697422488182783
1761469392603165000,2.4961650390625,-0.5326689528524875,14.335662379413842,-4.4504456231772895
1761469392613120000,2.5061201171875,-0.10994885971099137,14.283518350678682,-4.255642597523331
1761469392623075000,2.516074951171875,-0.36765842339396476,14.213540559089182,-4.391956024807691
1761469392633030000,2.52602978515625,-0.9174345783919096,14.710676426267623,-4.781818096703291
1761469392642985200,2.535985107421875,-1.6529682828009127,15.706187347030639,-5.675428731915354
1761469392652940000,2.54593994140625,-2.933624178922176,16.719768177491424,-6.44046208705306
1761469392662894800,2.555894775390625,-3.7031940084457395,17.814170849639176,-6.875949599570036
1761469392672850000,2.565849853515625,-2.669903099864721,18.49864247533083,-7.27906161366105
1761469392682805000,2.575804931640625,-0.7057027758993208,18.085911569023132,-7.485431742990016
1761469392692760000,2.585760009765625,0.902143997214362,17.85256458544135,-7.774514057797193
1761469392702715000,2.59571484375,1.7165338692605494,17.888717264318466,-8.00755124477744
1761469392712670200,2.605670166015625,1.4167588955253363,17.459727297127245,-7.724790534207225
1761469392722625000,2.615625,-0.10838906304836272,16.621985848653317,-7.21270493517816
1761469392732579800,2.625579833984375,-2.3009312557846306,15.381653779613972,-6.51217123247981
1761469392742535200,2.63553515625,-3.5116783338993787,13.482364465367793,-2.820902055105567
1761469392752490000,2.645489990234375,-2.0590974527560175,10.143643236017226,2.5729353022798893
1761469392762445000,2.655445068359375,0.26586452082693574,5.4574955905646085,5.3472208599001165
1761469392772399900,2.66539990234375,1.2267504106715321,-0.3028957361042499,1.9502397492825985
1761469392782355000,2.67535498046875,0.513924797154963,-7.62727766996026,-3.9742721722677348
1761469392792310000,2.68531005859375,0.9118880501806735,-15.586163960289955,-7.903361971506476
1761469392802266000,2.69526611328125,1.630125167351961,-15.886172158259152,-7.433648948782682
1761469392812221000,2.705220947265625,2.3826538457036017,-16.311722798651456,-7.063879816845059
1761469392822176000,2.715176025390625,3.06077347202003,-16.79275859490037,-6.770152891102433
1761469392832130800,2.725130859375,3.5409938602328297,-17.19837353172302,-6.529489447027444
1761469392842086100,2.735086181640625,3.772103294020891,-17.418939359664915,-6.3621215407878156
1761469392852041000,2.745041015625,3.7875674051344395,-17.436842096102236,-6.30894173926413
1761469392861996000,2.75499609375,3.672524729415774,-17.321892359364032,-6.429485935008525
1761469392871951000,2.764951171875,3.4831478204637762,-17.143790877664088,-6.742541830599308
1761469392881906000,2.774906005859375,3.1995804696857926,-16.917126148325202,-7.200238252314925
1761469392891861000,2.784861083984375,2.770565368053317,-16.634723749673366,-7.732457707834243
1761469392901816000,2.794816162109375,2.185695687842369,-16.325698717033863,-8.300464516049622
1761469392911771100,2.804771240234375,1.4797744468867777,-16.047894167566298,-8.893455543395877
1761469392921726000,2.814725830078125,0.7063181313186884,-15.856792919039725,-9.515091065946221
1761469392931681000,2.824680908203125,-0.08007862210422753,-15.784971545410155,-10.155586187267303
1761469392941636000,2.834635986328125,-16.26829632937908,-9.795326641952991,-18.563027561479807
1761469392951591000,2.8445908203125,-14.568160637211799,-6.28467765110135,-16.394477069705722
1761469392961546000,2.8545458984375,-14.746711031723022,-2.9401117873758076,-14.92694952545166
1761469392971501000,2.8645009765625,-14.716238736569881,0.5955863045364618,-14.34940916521549
1761469392981456100,2.8744560546875,-13.57985453326106,3.682458094409108,-14.783860904943943
1761469392991411000,2.884410888671875,-11.096284152346849,6.7090294370979064,-15.776825648355484
1761469393001366000,2.894365966796875,-7.589806894221901,9.114778911706805,-16.530075626718997
1761469393011321000,2.904321044921875,-4.866253452712297,11.693957784551381,-16.448689136886596
1761469393021276000,2.91427587890625,-4.603614908194541,14.668092837560176,-15.35142230747938
1761469393031231000,2.92423095703125,-5.177326650053263,17.027209155809878,-13.912731566131114
1761469393041186000,2.93418603515625,-3.7037998653843998,18.46651949036121,-13.436708629608153
1761469393051141000,2.94414111328125,0.162522219774127,19.797884998500347,-13.114569263851642
1761469393061096000,2.954095947265625,2.7392937392160297,20.259341649532317,-12.49654491753578
1761469393071052000,2.964052001953125,3.5487007813483475,20.111242507386205,-11.191935314375161
1761469393081007000,2.974007080078125,2.9280998625427483,19.335556240808963,-9.863272635453939
1761469393090962000,2.9839619140625,0.9471408576086163,18.82716131299138,-9.09718304926157
1761469393100917000,2.9939169921875,-1.2266045724600554,18.883011210507153,-8.67848534350395
1761469393110871300,3.003871337890625,-3.5562659559056162,18.877824163258076,-8.909929708334802
1761469393120826400,3.013826416015625,-5.3871109717398875,18.600530485922096,-9.819689514315128
1761469393130781200,3.02378125,-5.674675283199548,18.01155804656744,-11.143414152312278
1761469393140736000,3.033736083984375,-5.285457938948273,17.20647500511408,-11.873407173728943
1761469393150691300,3.04369140625,-4.5617844759419555,16.31300056350231,-11.431966890287399
1761469393160646100,3.053646240234375,-3.5004534677907824,15.53533276771903,-9.875297419768572
1761469393170601200,3.063601318359375,-2.270816103506088,14.8714444958508,-7.910345839044451
1761469393180556300,3.073556396484375,-0.8678814429327845,14.121595265841483,-6.49287031968236
1761469393190511000,3.083510986328125,0.26944442514032124,13.365138600391148,-5.961677284601331
1761469393200466200,3.093466064453125,0.8030088655278086,12.667225309324264,-6.523765808683633
1761469393210421200,3.103421142578125,0.5305874704033136,12.195838800430296,-8.108433877718449
1761469393220376300,3.113376220703125,-0.6720148797005414,11.785157227867842,-9.77761329060793
1761469393230331100,3.1233310546875,-2.6614628960385915,11.655434284889697,-10.518010801661013
1761469393240286200,3.1332861328125,-4.802219079697132,12.011183659303187,-10.014468574571609
1761469393250241300,3.1432412109375,-6.251476807767152,12.295310397529601,-9.123004303738474
1761469393260196000,3.153196044921875,-6.927526057550311,12.361349680626391,-8.534448628491162
1761469393270151200,3.163151123046875,-6.745214264678955,12.478515924370289,-8.664344005426765
1761469393280106200,3.173106201171875,-6.160237616962194,12.420152582728862,-9.059913349053263
1761469393290061300,3.183061279296875,-5.330002598595619,12.158040107911825,-9.124218355703354
1761469393300016000,3.19301611328125,-4.422243611043691,12.310257791292667,-9.0921655133605
1761469393309971500,3.202971435546875,-3.7766637338042255,12.237038241302967,-9.190143072509764
1761469393319927300,3.21292724609375,-3.6095781516373155,12.106170804464817,-9.341713105636835
1761469393329882000,3.222882080078125,-4.278244305431842,12.22364099959135,-9.230446441325546
1761469393339837400,3.23283740234375,-5.355809240025281,12.168059982144833,-8.647861072659492
1761469393349792300,3.242792236328125,-5.423783290576934,12.462848399639128,-7.782379384344816
1761469393359747000,3.2527470703125,-4.425823807618022,12.585249621427058,-7.029228774702548
1761469393369702100,3.2627021484375,-3.2044471989393233,12.147736156040429,-6.162848091721535
1761469393379657200,3.2726572265625,-2.1368431018680334,11.088908655142783,-5.471823975646496
1761469393389612300,3.2826123046875,-1.4217057042777537,10.158751957821845,-4.209707652561367
1761469393399567000,3.292567138671875,-1.3177467326313257,10.021263057017325,-1.8609379562810062
1761469393409522200,3.302522216796875,-1.0783061083495615,9.282654767468571,0.16556100294813514
1761469393419477200,3.312477294921875,0.04109247336685657,6.943492857488989,2.5205121643424033
1761469393429432000,3.32243212890625,2.022464443016052,2.8465877005040645,4.301460345846414
1761469393439387400,3.332387451171875,4.700516362544894,-2.6508330732136964,3.9969308710604903
1761469393449342200,3.34234228515625,5.655437498766184,-10.553849007761478,1.746344047243148
1761469393459297300,3.35229736328125,2.362350477865338,-17.56348811585307,-2.5754262423127887
1761469393469252000,3.362252197265625,2.8762954410254955,-17.87693564110994,-2.021487122416496
1761469393479207200,3.372207275390625,3.3074005006745457,-18.19290830093026,-1.5937342958047984
1761469393489162200,3.382162353515625,3.6700504482567307,-18.48567544173002,-1.2985019339352846
1761469393499117000,3.392116943359375,3.960213544037938,-18.742685040450095,-1.079182014401257
1761469393509072400,3.402072265625,4.161876518589258,-18.945535178959368,-0.9007342034816741
1761469393519027200,3.412027099609375,4.258164809477329,-19.05718938128352,-0.7893857061058283
1761469393528982300,3.421982177734375,4.25348162009716,-19.05688659894466,-0.7804170944914222
1761469393538937300,3.431937255859375,4.17093602335751,-18.959598775625228,-0.8794283806025981
1761469393548892200,3.44189208984375,4.0321547446548935,-18.795400731593368,-1.0718443649895488
1761469393558847200,3.45184716796875,3.833436006861925,-18.585018444013595,-1.32335229755342
1761469393568802000,3.461802001953125,3.5570693812429903,-18.33791298419237,-1.6037762357391416
1761469393578757400,3.47175732421875,3.2026860344856978,-18.07080752339363,-1.8958928036756812
1761469393588712200,3.481712158203125,2.8093212151661513,-17.81379324849844,-2.208607923004776
1761469393598667300,3.491667236328125,2.4634780254781243,-17.6084530467391,-2.562914843524992
1761469393608622300,3.501622314453125,2.238010981491208,-17.479416332459447,-2.969447479714453
1761469393618577200,3.5115771484375,5.241608860349655,-9.798304780980944,-14.017670780986547
1761469393628532200,3.5215322265625,3.436873560544848,-4.615059846794605,-13.482019597452878
1761469393638488300,3.53148828125,0.32539339911639686,1.5306798737376928,-12.226405788129567
1761469393648443100,3.541443115234375,-3.406132969844341,7.6227780204534525,-10.740304476308822
1761469393658398200,3.551398193359375,-7.481898308166861,13.443269303297996,-10.453726253277063
1761469393668353300,3.561353271484375,-9.487701539239287,18.572618396645783,-10.694648640549183
1761469393678308400,3.571308349609375,-8.465667353209852,22.759923955523966,-11.202467229783535
1761469393688263200,3.58126318359375,-5.950723928910493,26.011902136445045,-12.03240297294259
1761469393698218000,3.591218017578125,-2.4852473742157217,29.697950948822495,-13.134707211995124
1761469393708173300,3.60117333984375,-1.2485261891499162,33.06021671988964,-12.626730801850556
1761469393718128000,3.611128173828125,-1.505057941225171,32.78140445468426,-13.186643150937556
1761469393728083200,3.621083251953125,-1.770397123003751,32.47760504773855,-13.703397910821437
1761469393738038300,3.631038330078125,-2.041980459868908,32.210712352907656,-14.107209013092517
1761469393747993300,3.640993408203125,-2.2778683601051566,32.04492324029207,-14.343729950535296
1761469393757948200,3.6509482421875,-2.443596097922325,32.01700179866552,-14.397314241206645
1761469393767903200,3.6609033203125,-2.5499919413268564,32.12280727496147,-14.285971004527806
1761469393777858300,3.6708583984375,-2.6252485501021146,32.32602449321747,-14.045450768315792
1761469393787813000,3.680813232421875,-2.6860978633403776,32.58309254412651,-13.712254586493968
1761469393797768200,3.690768310546875,9.09518573796451,26.495699214100835,2.1215946793317793
1761469393807723300,3.70072314453125,8.618069745507835,22.852360247159,-2.3076117564618586
1761469393817678300,3.71067822265625,8.108418680149317,19.656126749813556,-5.9760892563134425
1761469393827633200,3.720633056640625,7.608578230187296,16.9100873357296,-9.026481035050749
1761469393837588200,3.730588134765625,5.908385254874825,14.803325483870506,-11.20355911667347
1761469393847543300,3.740543212890625,2.923358220973611,13.270461251831055,-12.050090605324506
1761469393857498000,3.750498046875,0.0940641850978136,12.484791351377963,-10.966661747133731
1761469393867453400,3.760453369140625,-1.9538018256783485,12.103272744935751,-8.59870395078063
1761469393877408300,3.770408203125,-3.568134965136647,11.37237605267763,-6.46101387669444
1761469393887363000,3.780363037109375,-4.768792610913515,10.420649328583478,-6.067846918034554
1761469393897319400,3.7903193359375,-5.449442632490396,9.703106038895248,-7.604710448843241
1761469393907274200,3.800274169921875,-4.823925300070643,8.949619329166412,-9.55535585631728
1761469393917229000,3.81022900390625,-2.9392928722083567,8.219466733273864,-10.875254214024544
1761469393927184100,3.82018408203125,-0.8682114055395126,7.967552996388077,-11.02871108381152
1761469393937139200,3.83013916015625,0.9701882634580135,7.655058241811394,-10.060796610504388
1761469393947094300,3.84009423828125,2.4143409234739837,7.468761763218045,-8.022384072250127
1761469393957049000,3.850049072265625,3.336411783364415,7.336881349945068,-5.956890634846687
1761469393967004400,3.86000439453125,3.0957951010406015,7.32630208826363,-4.998869779044389
1761469393976959200,3.869959228515625,2.0306234918132424,7.9786150731503955,-4.612736956804991
1761469393986914000,3.8799140625,0.543923337316513,8.724708165496587,-3.587887421093881
1761469393996869400,3.889869384765625,-2.0632354293435813,9.641919456526637,-1.0316809891663492
1761469394006824200,3.89982421875,-3.954704425227642,10.99680203385353,2.6140730760931965
1761469394016779300,3.909779296875,-2.6716321156144143,12.37955636844635,7.464449745237827
1761469394026734000,3.919734130859375,1.259949792701006,12.03941372848749,14.114487479662895
1761469394036689400,3.929689453125,5.7192392320692536,5.064748318621516,19.391499661827087
1761469394046644200,3.939644287109375,11.736113503235577,-10.578639750146865,13.841852441787719
1761469394056599000,3.94959912109375,14.529896665269135,-26.71229730745554,-11.388165157961845
1761469394066554400,3.959554443359375,14.832023170566558,-27.010623251426217,-10.97580133140087
1761469394076509200,3.96950927734375,15.159016406095027,-27.17904972680807,-10.854793609797953
1761469394086464300,3.97946435546875,15.460300030827522,-27.21012057237625,-10.975313840144873
1761469394096419300,3.98941943359375,15.686313602781295,-27.144256645846365,-11.239149485492705
1761469394106374100,3.9993740234375,15.754754101800918,-27.001885818219183,-11.560088243287801
1761469394118195200,4.0111953125,-15.486018993973731,-40.03254813385009,-11.035935774368047
1761469394128150500,4.021150634765625,-11.304065317517518,-36.74055826053619,-4.787015080824494
1761469394138105300,4.031105224609375,-6.763734840753674,-35.77752571405172,-7.419350374317169
1761469394148060400,4.041060302734375,-2.732269247406721,-34.468470237398144,-16.491236485236882
1761469394158015200,4.05101513671875,-1.4722848217837512,-31.85931415944099,-21.99347313480377
1761469394167970300,4.06097021484375,-2.586841370296478,-26.382982350981234,-21.84393840689659
1761469394177925400,4.07092529296875,-4.715761862471699,-19.23822867000103,-19.576648139429093
1761469394187880200,4.080880126953125,-8.825398490735887,-11.845091764348744,-17.13774925941229
1761469394197835500,4.09083544921875,-14.283786061704157,-3.635546121108532,-14.99054667609334
1761469394207790300,4.100790283203125,-19.21981389238834,5.153121598601341,-12.323037777888775
1761469394217746200,4.11074609375,-23.488733904635904,12.684269967627525,-8.897726060321926
1761469394227701500,4.120701416015625,-25.29311790678501,19.42168671029806,-5.117160642904043
1761469394237656300,4.13065625,-21.975137852168082,24.91497199164629,-1.5927306717202065
1761469394247611400,4.140611328125,-15.408180552011727,27.528858020734784,1.3309459675528108
1761469394257566500,4.15056640625,-7.53628397834897,27.652381524550915,4.1457659262657165
1761469394267521300,4.160521240234375,0.391063848900795,26.952568537342547,6.662070702046155
1761469394277476400,4.170476318359375,6.233852303749322,25.902161658787726,8.353339781668781
1761469394287431200,4.18043115234375,8.77349236240983,25.17521282737255,8.936192861360311
1761469394297386500,4.190386474609375,8.720669119238853,23.953842648434637,7.984923817905783
1761469394307341300,4.20034130859375,6.334233416908979,22.269091572403905,4.65288221244961
1761469394317296400,4.21029638671875,2.88495922447443,20.949949586021898,0.3711186468504369
1761469394327251500,4.22025146484375,0.357678296649456,19.851109223687647,-2.5993589065641163
1761469394337206300,4.230206298828125,-1.1764023254424334,18.63340399699807,-3.761060214219987
1761469394347161300,4.240161376953125,-1.8021932141065597,17.262932805395124,-3.1829838474109766
1761469394357116400,4.250116455078125,-1.5717325996160507,16.117161180537938,-1.4008562468640506
1761469394367071500,4.260071533203125,-0.7573147435843944,15.391003791761397,0.392491397485882
1761469394377026300,4.2700263671875,0.19667815360976382,14.752191508960722,1.7164871075093746
1761469394386981400,4.2799814453125,1.2178560333371162,13.763122019422054,2.601304487673938
1761469394396936400,4.2899365234375,2.568974874216318,12.541747164309024,2.940189528787136
1761469394406891300,4.299891357421875,3.91015216679573,11.677371391409634,2.3158067533552646
1761469394416846300,4.309846435546875,4.490615136480331,11.192095473372936,1.4183870812490582
1761469394426801400,4.319801513671875,4.3470600675046445,10.656106436187029,-0.09219780670404433
1761469394436756500,4.329756591796875,3.632317806711793,9.939758493763208,-2.3858165475182234
1761469394446711300,4.339711181640625,2.4357903926074504,9.5539606025666,-4.429742150105536
1761469394457290500,4.35029052734375,1.0392080236703156,9.545652208426594,-5.752679729378223
1761469394467245300,4.360245361328125,-0.9274398395776748,9.700109779688715,-6.455655564531684
1761469394477200400,4.370200439453125,-2.9306974778205155,9.856833542317151,-6.0614773830026385
1761469394487155500,4.380155517578125,-4.210211802691221,10.241945789337157,-4.901750298029184
1761469394497110300,4.3901103515625,-4.235322863072157,10.844938570737838,-3.387712347012758
1761469394507065300,4.4000654296875,-2.750065016338229,11.526392894434927,-1.5309684814207254
1761469394517020200,4.410020263671875,-0.497505285012722,12.157828510987757,0.19573683590535074
1761469394526975500,4.4199755859375,1.5524638355225324,12.515481088674068,1.7247070927135646
1761469394536930300,4.429930419921875,3.5259605417519806,12.610821285057067,2.9253955720201135
1761469394546885400,4.439885498046875,5.137469271439314,12.518822215795517,3.29530732729882
1761469394556840400,4.44984033203125,6.025266836458444,12.625187664061784,2.64748843896091
1761469394566795300,4.459795166015625,5.827753967323899,12.846942409527301,1.4650046016477047
1761469394576750300,4.469750244140625,4.887984807527065,12.584662761449813,0.726742495188117
1761469394586705400,4.479705322265625,3.675260584120452,11.993271570515631,0.7768648088373243
1761469394596660500,4.489660400390625,1.8344789884224533,11.554224319690466,0.9836278830066323
1761469394606615300,4.499615234375,-0.29348376463651654,11.209734005916118,1.616434203390777
1761469394616570000,4.509570068359375,-0.3445269925229251,11.296645396649836,3.0183336756974457
1761469394626525400,4.519525390625,2.276871311891824,10.729500173699854,4.966135968700051
1761469394636480300,4.529480224609375,6.483696248623728,7.610632240107655,7.871727062314748
1761469394646435300,4.539435302734375,11.936629061317444,0.4020850091308355,10.913792911255358
1761469394656390400,4.549390380859375,15.512100360691546,-12.79601301727891,5.168489848124981
1761469394666345500,4.559345458984375,15.664486386376618,-25.859900726163385,-16.129078412824867
1761469394676300300,4.56930029296875,16.019551870179175,-26.200057394647597,-15.69236574242711
1761469394686255400,4.57925537109375,16.42889371857047,-26.44429402103424,-15.491799915462732
1761469394696210400,4.58921044921875,16.779619711863994,-26.55656197134256,-15.494129819715022
1761469394706165200,4.599165283203125,16.945900991910694,-26.52926246100664,-15.620268474465608
1761469394716120300,4.609120361328125,16.845628599822522,-26.38487386381626,-15.783119780063629
1761469394726075400,4.619075439453125,16.52005809057355,-26.192711123538015,-15.919231547296047
1761469394736031200,4.62903125,16.107641657042503,-26.01500711672306,-16.0269297054708
1761469394745986600,4.638986572265625,15.721896957337856,-25.85657362756729,-16.15443847953081
1761469394755941400,4.64894140625,15.394316861832142,-25.695647737073898,-16.344357824796436
1761469394765896400,4.658896484375,15.105061528545617,-25.522982308948038,-16.605985146445036
1761469394775851300,4.668851318359375,14.83461377158165,-25.341478909850117,-16.936347566145656
1761469394785806300,4.678806396484375,14.587169289064407,-25.159084699392317,-17.331877162283657
1761469394795761400,4.688761474609375,14.386476036328077,-24.983328319513795,-17.791854972934722
1761469394805716200,4.69871630859375,14.271646711099146,-24.818836845493315,-18.324158015084265
1761469394815671600,4.708671630859375,14.244568150037527,-24.6731693144083,-18.932839363515377
1761469394825626400,4.71862646484375,14.253839836251736,-24.559519554352757,-19.606645802807808
1761469394835581200,4.728581298828125,14.23706639610529,-24.490735356462,-20.31759276297092
1761469394845536300,4.738536376953125,14.153954397654532,-24.47318333315849,-21.03174757926464
1761469394855491300,4.7484912109375,14.0284984644711,-24.507590629673004,-21.734670222926137
1761469394865446400,4.7584462890625,-13.77704416179061,27.51827349835634,-5.597549373421073
1761469394875401200,4.768401123046875,-6.882213336139917,30.988240934729575,-4.478693228018283
1761469394885356500,4.7783564453125,-2.5231097796201705,32.879169247865676,-2.240120520991087
1761469394895311400,4.788311279296875,-2.485375384509563,32.71678672882318,-2.740585240331292
1761469394905266200,4.79826611328125,-2.469196987646818,32.56997353483438,-3.1279797530695794
1761469394915221500,4.808221435546875,-2.4931202995479107,32.446669811248775,-3.4189953740268946
1761469394925176300,4.81817626953125,-2.559845811343193,32.34795809260606,-3.6327933152690526
1761469394935131400,4.82813134765625,-2.6590087808847427,32.27153770074844,-3.785921099232137
1761469394945086200,4.838086181640625,2.734725408387184,25.989033302032947,0.9011348932370543
1761469394955041500,4.84804150390625,4.850933133983612,23.935198738241194,0.7490826295509934
1761469394964996400,4.857996337890625,6.581612432974577,22.02566626240015,1.0645479243710636
1761469394974951200,4.867951171875,7.614009023064375,20.03100401854515,1.5682190385371446
1761469394984906500,4.877906494140625,8.160701825094222,18.337529537832737,1.905073450605571
1761469394994862300,4.8878623046875,8.164629812192917,17.379736645567416,1.7656655644372106
1761469395004817200,4.897817138671875,7.211642858904599,16.435363206845523,1.3910916625663636
1761469395014772500,4.9077724609375,5.61838582522273,15.294696796172856,0.49648967822939155
1761469395024727300,4.917727294921875,3.943515507215261,14.527122524380683,-0.876038153642416
1761469395034682400,4.927682373046875,2.256796930503845,13.95373226956129,-2.7512860825657843
1761469395044637400,4.937637451171875,0.34589784248471256,13.407087398326397,-5.008669873046875
1761469395054592300,4.94759228515625,-1.392474933618307,12.946177859783171,-6.9059542772114275
1761469395064547300,4.95754736328125,-2.7158319073468444,12.728714674031734,-8.134609352460503
1761469395074502100,4.967502197265625,-3.755229900631308,12.515041528213024,-8.685360489970446
1761469395084457500,4.97745751953125,-4.387096894338727,12.54127136349082,-8.069261558759212
1761469395094412300,4.987412353515625,-4.082522995889186,12.97850192028284,-6.172126792198419
1761469395104367400,4.997367431640625,-2.791748441335559,13.668602491772175,-3.882610079875588
1761469395114323000,5.007322998046875,-1.0264530984502285,13.9659452699244,-1.6339375652469694
1761469395124278000,5.017278076171875,0.9635765902332961,14.326015430146455,-0.43847741504795845
1761469395134233000,5.027233154296875,2.579230310770869,15.052654464960098,-0.35760618126131594
1761469395144188000,5.03718798828125,3.6253713485747574,15.178822345805168,-1.1723857102122157
1761469395154143000,5.04714306640625,3.4192402886986732,14.90988148627281,-2.608563665021956
1761469395164098000,5.05709814453125,1.6352264360137283,14.761452673780918,-3.806909526725113
1761469395174052900,5.067052978515625,-0.41185587703883647,14.481631523793935,-4.192717647054791
1761469395184008000,5.077008056640625,-1.461713305017352,13.673082267534731,-3.747559512133896
1761469395193963000,5.086962890625,-0.7273170802056789,12.33183132519722,-2.6326155717387794
1761469395203918000,5.09691796875,0.9277478826135397,11.035215643399953,-1.800671849758178
1761469395213873000,5.106872802734375,1.0817059799209237,10.226951633822917,-1.5918232014864682
1761469395223828000,5.116827880859375,-0.4466431127816438,9.504245262283087,0.7251669164344668
1761469395233783000,5.126782958984375,1.0028627448305487,5.935484274202585,6.489162697336077
1761469395243737900,5.13673779296875,5.38611786904931,-3.4324019680887456,11.258047078186273
1761469395253693000,5.14669287109375,9.286444222879409,-17.99988397538662,5.109159707278013
1761469395263649000,5.15664892578125,7.572137966540455,-33.841974999856944,-13.432247558546065
1761469395273603800,5.166603759765625,7.920763188162446,-34.18435986578464,-13.029617190492152
1761469395283559200,5.17655908203125,8.330393205845356,-34.450646995937824,-12.87904201362133
1761469395293514000,5.186513916015625,8.731950976231694,-34.589190374231336,-12.982970005607605
1761469395303469000,5.196468994140625,9.02735547979772,-34.58143961397409,-13.277018418389558
1761469395313424000,5.206423828125,9.116751673084497,-34.436300490677354,-13.646710977959632
1761469395323379000,5.21637890625,8.987624942433834,-34.203487760102746,-13.988003956997394
1761469395333334000,5.226333984375,8.720180458939074,-33.944404277718064,-14.278631747680901
1761469395343288800,5.236288818359375,8.395352292490005,-33.69327496920824,-14.549095871257782
1761469395353244200,5.246244140625,8.058235722354054,-33.457876313793655,-14.842081623244285
1761469395363199000,5.256198974609375,7.7402961463749405,-33.24213863666058,-15.191879395776986
1761469395373154000,5.266154052734375,7.468284208834171,-33.05639862290621,-15.602636956185101
1761469395383108900,5.27610888671875,7.255505381506681,-32.911336656498904,-16.044810230076312
1761469395393064000,5.28606396484375,7.099980473273992,-32.807460102438924,-16.496252852094173
1761469395403019000,5.29601904296875,-11.855443647015093,-4.8243461558312175,-13.992011439073085
1761469395412973800,5.305973876953125,-14.719960971963404,2.6294518470108508,-12.489189294075965
1761469395422929200,5.31592919921875,-17.175636799257994,9.648587097722292,-9.696514970067144
1761469395432884000,5.325884033203125,-17.81147854181528,15.981462085759638,-5.900327620625496
1761469395442838800,5.3358388671875,-15.027486121433972,21.208839007139204,-2.602151167631149
1761469395452794000,5.345794189453125,-9.573350362691283,25.00698275134563,-1.041254288675636
1761469395462749000,5.3557490234375,-3.6072897484391926,26.998002254784105,-0.4610498237967491
1761469395472704000,5.3657041015625,2.7388088783085345,27.060408149814606,0.4780069499470293
1761469395482658800,5.375658935546875,7.253989131724834,26.654085941505432,0.9993234647884964
1761469395492614100,5.3856142578125,9.598638533204793,26.236802778720854,0.9867749488607048
1761469395502569000,5.39556884765625,10.55858129698038,26.03673262631893,0.76104370097965
1761469395512523800,5.405523681640625,9.73753028654456,26.4374668053627,0.1484323196232319
1761469395522479000,5.41547900390625,7.184536240792274,27.035152128005027,-0.2348296233549714
1761469395532434000,5.425433837890625,4.951793555092811,28.71214075334072,0.43500762004554266
1761469395542389800,5.4353896484375,3.0433120496094226,29.58762828736305,2.5159388650774956
1761469395552345000,5.445344970703125,2.9801369237720965,29.563803175139427,2.473430971954763
1761469395562300000,5.4552998046875,2.903234885877371,29.579767636990546,2.5268971892043948
1761469395572255000,5.4652548828125,4.3367783274650575,26.757282112085818,9.86957495046854
1761469395582210000,5.4752099609375,6.310976459962129,24.232961203110218,8.801883175113797
1761469395592165000,5.4851650390625,7.001565691751241,21.3855376363039,5.405977584773302
1761469395602120000,5.495119873046875,6.282455298876762,18.700335260498523,0.8686480433911085
1761469395612074800,5.50507470703125,4.538873263692856,16.370305920523403,-4.202769085469842
1761469395622030000,5.515030029296875,1.624461150240898,14.232864852762221,-8.88949365402758
1761469395631985000,5.52498486328125,-1.4292372688263655,12.443234183108807,-12.322962959086894
1761469395641940000,5.53493994140625,-4.756327097094059,10.828286711144447,-14.291029456961153
1761469395651895000,5.54489501953125,-7.0112143945842975,9.763262693694234,-14.172210185313224
1761469395661849900,5.554849853515625,-6.872154883462191,9.272440831968188,-11.281692157667875
1761469395671805000,5.564804931640625,-5.707731749626994,8.65059020536244,-6.662268270444869
1761469395681760000,5.574760009765625,-4.630526880517602,7.9700717012107365,-2.2343198718883097
1761469395691715000,5.584715087890625,-2.6763421930015086,7.6719678755581375,-0.09177919769948348
1761469395701670000,5.594669921875,-0.29583420022018253,7.82121911034882,-0.09338812160030938
1761469395711625000,5.604625,0.7169797375213355,7.967240277177095,-0.9625507543168962
1761469395721580000,5.614580078125,0.3903454714983701,8.020124310624599,-2.4146339150711893
1761469395731534800,5.624534912109375,0.34095687895119187,7.9039312958270305,-4.196654109720885
1761469395741490000,5.634489990234375,0.6254976048059762,7.371206813395023,-5.658531957650184
1761469395751445000,5.644445068359375,1.1606209650732575,7.164349777331948,-6.157737032318115
1761469395761400000,5.654400146484375,1.3664479274362324,7.027339599955082,-5.381089811754227
1761469395771355000,5.66435498046875,0.47603170435130593,6.8175365735679865,-3.569765196686983
1761469395781310200,5.674310302734375,-0.7395860485397279,6.91745649895668,-1.493336523771286
1761469395791265000,5.68426513671875,-1.9732181815490126,6.570773059052229,0.9232099469229579
1761469395801219800,5.6942197265625,-2.5572464424997565,5.593053231045603,2.9551766700387
1761469395811175000,5.7041748046875,-1.480965702497959,4.277341803634166,4.038242247875035
1761469395821130000,5.7141298828125,1.106226380932331,1.5262766703426838,5.367725887790322
1761469395831085800,5.7240859375,4.286798198765516,-4.317337129414081,6.761137809997797
1761469395841041200,5.734041259765625,7.031935111051798,-13.337304837048054,5.897773259967566
1761469395850996000,5.743995849609375,7.429364403331279,-24.17947043594122,-1.0348270321071147
1761469395860951000,5.753950927734375,7.746610736349225,-24.384513700580595,-0.7347130356758832
1761469395870905900,5.76390576171875,8.123750689315795,-24.55252399637699,-0.6060445701867342
1761469395880861000,5.77386083984375,8.499940794211625,-24.654048434352873,-0.6597124474883079
1761469395890816000,5.78381591796875,8.824431107008456,-24.683737470173835,-0.8639356279164552
1761469395900770800,5.793770751953125,9.0459520437181,-24.652201345181464,-1.1493825088307261
1761469395910726100,5.80372607421875,9.128027684858441,-24.575647682332992,-1.4320701541647314
1761469395920681000,5.813680908203125,9.093017746275663,-24.47171267608404,-1.6789862288936972
1761469395930636000,5.823635986328125,9.005791882765292,-24.35828269625902,-1.9144474281504749
1761469395940590800,5.8335908203125,8.933973431745171,-24.252491248488425,-2.1749249952420593
1761469395950546000,5.8435458984375,8.92705678422451,-24.168530524253843,-2.487192078542709
1761469395960501000,5.8535009765625,8.99337605330646,-24.112947168719767,-2.85818666062206
1761469395970455800,5.863455810546875,9.09979352402091,-24.08280454391241,-3.2733588226020336
1761469395980411100,5.8734111328125,9.190093388149142,-24.063919810700416,-3.712611532871425
1761469395990366000,5.883365966796875,9.217014128300548,-24.04007365568876,-4.163642943739891
1761469396000321000,5.893321044921875,9.155697197550534,-24.002353289103507,-4.610466966046393
1761469396010276000,5.903276123046875,8.992356647130846,-23.94594926483631,-5.0352100894480945
1761469396020231000,5.91323095703125,-14.743440047228335,3.9480338614225383,-7.485289704170823
1761469396030186000,5.92318603515625,-10.731204639530182,7.625792984360456,-6.4097197427868835
1761469396040140800,5.933140869140625,-5.335919129163027,9.747566527390479,-6.242650527232885
1761469396050096000,5.94309619140625,-1.0849093060068786,11.895622512668371,-6.374708635160326
1761469396060051000,5.953051025390625,2.1998773579299447,14.17581551632881,-6.882372326093912
1761469396070006000,5.963006103515625,3.9645553726345297,16.065619209349155,-8.049883489072322
1761469396079961000,5.972961181640625,4.336003835961223,18.121919286471606,-9.029083911025523
1761469396089916000,5.982916015625,4.636677219840884,20.156316159343717,-9.272861103206873
1761469396099871000,5.99287109375,5.347445316305756,21.327828959178923,-8.632780407905578
1761469396109825800,6.00282568359375,6.818352566125989,22.34829428845644,-7.742119270148873
1761469396119780900,6.01278076171875,8.436290452077984,23.29707385318279,-6.324452027606964
1761469396129736000,6.02273583984375,8.865329519107938,22.85745260186195,-4.68664799619019
1761469396139690800,6.032690673828125,8.004066325271129,23.510398623955247,-2.959063156083226
1761469396149646800,6.042646728515625,7.4652844424963,25.222685357165336,-0.8921578060552477
1761469396159602000,6.052601806640625,7.498893282109498,24.456617982804772,1.139196045859158
1761469396169556700,6.062556640625,7.798109452918172,23.71692891228199,3.4024253474980592
1761469396179511800,6.07251171875,8.200981813034415,23.433723380553722,4.516100583131611
1761469396189467000,6.082466796875,7.855269263988733,22.542657169127462,4.365945385238528
1761469396199422000,6.092421875,6.974829660516977,21.508909164428708,3.1613273113980886
1761469396209376800,6.102376708984375,5.632367004302144,20.23255651845932,0.6152873225674033
1761469396219331800,6.112331787109375,4.076758441013098,18.886943873780965,-2.2254493138208984
1761469396229287000,6.122286865234375,2.9318256050676106,17.576287976193427,-4.7808147648796435
1761469396239241700,6.13224169921875,1.8458850563168525,16.228338413000106,-6.52837827091515
1761469396249196800,6.14219677734375,0.7978968562763183,15.067128395992517,-6.973209365838765
1761469396259152000,6.15215185546875,-0.08597089501321316,14.228609533405303,-6.265885272347926
1761469396269107000,6.16210693359375,-0.6988094361890107,13.735420358026026,-5.765499463462829
1761469396279061800,6.172061767578125,-0.8326736436903476,13.633748620533943,-5.712859760165214
1761469396289017000,6.18201708984375,-0.643433001403883,13.455301101875305,-5.088287599641085
1761469396298972000,6.191971923828125,-0.13995382961332797,13.218651569616794,-4.0486698261260985
1761469396308926700,6.2019267578125,0.8318582356542349,13.03771632579565,-3.1766052522897716
1761469396318881800,6.2118818359375,2.133440015426278,12.996657170176505,-2.658185189542174
1761469396328836900,6.2218369140625,3.0328789184004066,12.736747173839806,-2.687133928389847
1761469396338792000,6.2317919921875,2.853502594459057,12.235248435276747,-3.068686729362607
1761469396348746800,6.241746826171875,2.7880951795250177,12.194724701708555,-3.2594735051125285
1761469396358701800,6.251701904296875,3.134479928743839,12.13456687786579,-3.0475624005302784
1761469396368657000,6.261656982421875,2.398483282998204,11.716643079090117,-2.005285198547691
1761469396378611700,6.27161181640625,0.6071908176124096,10.703968257558346,-1.9327226511619984
1761469396388566800,6.28156689453125,-0.8499965344130992,9.62725321779251,-3.177284174464643
1761469396398521900,6.29152197265625,-1.7214898842327295,7.892378805199265,-2.386470042990893
1761469396408477000,6.301476806640625,-1.0959750360310077,5.595668381980061,0.6641821402482688
1761469396418431700,6.311431640625,-0.0208420047596097,2.6966689417153593,3.233375187259912
1761469396428386800,6.32138671875,0.9964905794501304,-2.1056039139956235,3.142640146584809
1761469396438342000,6.331341796875,2.2960545896589757,-8.918356175896525,1.6051979391053317
1761469396448297700,6.341297607421875,1.0307985072433947,-19.98859344831705,-3.743614866161346
1761469396458252800,6.351252685546875,1.312188221721351,-20.232752917814253,-3.3523157471999525
1761469396468207900,6.361207763671875,1.7203274163246154,-20.462332073295116,-3.1918498754337428
1761469396478162700,6.37116259765625,2.2116513823539017,-20.674642114067076,-3.227728998066485
1761469396488118000,6.381117919921875,2.7249522023916244,-20.88515416550636,-3.379175989335775
1761469396498072800,6.39107275390625,3.207228938612342,-21.088549078416822,-3.600914368188381
1761469396508028000,6.40102783203125,3.5934792497515677,-21.243351517593858,-3.8773502596512435
1761469396517983000,6.41098291015625,3.8271874678611755,-21.3073987500906,-4.172025572159886
1761469396527937800,6.420937744140625,3.9111177969574924,-21.27710414959192,-4.457068256187439
1761469396537892900,6.430892822265625,3.8988013362199068,-21.18165873926878,-4.75477694504261
1761469396547847700,6.44084765625,3.831221837943792,-21.050148328351973,-5.087919935372471
1761469396557803000,6.450802978515625,3.7292297824561595,-20.910681405472754,-5.422933395749331
1761469396567757800,6.4607578125,3.6010610831826924,-20.772591616165638,-5.746000982266664
1761469396577713000,6.470712890625,3.4679905833423135,-20.649339330506322,-6.058322718364
1761469396587668000,6.48066796875,3.337549262961745,-20.54331875015497,-6.372988387238979
1761469396597622800,6.490622802734375,3.1870722857683895,-20.440080493998526,-6.709141665300726
1761469396607577900,6.500577880859375,-9.856415024644136,5.387193389326334,-12.299713016402722
1761469396617532700,6.51053271484375,-5.815172133648395,9.076848117241262,-10.988794083964825
1761469396627488000,6.520488037109375,-1.9249854810386895,14.70989784311056,-8.316758063724636
1761469396637442800,6.53044287109375,3.4626305176138876,17.64271421278119,-3.693286362415552
1761469396647397600,6.540397705078125,7.6311863678365945,18.074529758787154,0.1309571609482169
1761469396657353000,6.55035302734375,10.8552273250401,19.076374558746814,0.3342842693194747
1761469396667307800,6.560307861328125,12.24837095170021,19.70143888670206,-1.1963657938018442
1761469396677262800,6.570262939453125,12.343513579684496,20.047763430166242,-2.1089517631188035
1761469396687218000,6.580218017578125,12.372591205608844,20.308343288588524,-2.3709387118600307
1761469396697173000,6.590173095703125,12.671010673081874,19.86632549751997,-2.3723135073445736
1761469396707127800,6.6001279296875,12.964438323616982,18.72678370696306,-2.9773420323565603
1761469396717082600,6.61008251953125,12.887101401436329,17.325097877407075,-4.015257093606889
1761469396727038000,6.620037841796875,12.574080577158927,15.959743590426443,-4.830537996208667
1761469396736992800,6.62999267578125,11.921927166748047,14.54277368249893,-5.3548868644833565
1761469396746947800,6.63994775390625,11.064604234969615,15.055434451067446,-4.315241618439555
1761469396756903000,6.64990283203125,9.835981308424472,14.861725065869091,-3.06267609077096
1761469396766858000,6.65985791015625,8.565873694324493,13.490935894358158,-2.772244114920497
1761469396776812800,6.669812744140625,7.388348502331971,11.968374445146322,-4.493015183359384
1761469396786769000,6.679768798828125,7.11768330322504,13.219533028626442,-3.8759661118164654
1761469396796724000,6.689723876953125,7.230294367882609,14.029009336602687,-1.8647329646497963
1761469396806678800,6.6996787109375,3.998365872299671,13.526432739675045,-0.2586664260163903
1761469396816633900,6.7096337890625,0.6073799104437232,12.839245425283908,-0.614075608690083
1761469396826589000,6.7195888671875,-1.1430372314572335,12.102090841674803,-1.368836283877492
1761469396836543700,6.729543701171875,-0.5527455261975527,10.786959844499826,-2.103650734101236
1761469396846498800,6.739498779296875,1.7414432695895432,10.871721363723278,-2.0756927598565817
1761469396856454000,6.749453857421875,3.9886774219781156,10.970640003114939,-1.337082716742158
1761469396866408700,6.75940869140625,3.780527423495054,8.17883661672175,-0.8670277487128972
1761469396876363800,6.76936376953125,3.8422453362613913,7.79009098163545,-1.4521911511734127
1761469396886318800,6.77931884765625,4.921579618614912,7.646127331858873,-2.744095586539805
1761469396896274000,6.78927392578125,5.121179815417528,6.283285319960117,-2.9803660563528536
1761469396906228700,6.799228759765625,4.614291785031557,5.5583495819330215,-2.8635031794697046
1761469396916184000,6.80918408203125,4.35492013335526,5.935111933758854,-2.904573148743808
1761469396926139000,6.819138916015625,4.102623534631729,5.702013956502079,-2.3025787307307124
1761469396936093700,6.82909375,3.491488363307714,4.9416795728355645,-0.8888622716411948
1761469396946048800,6.839048828125,2.3355437194824216,4.774943534758687,0.44065322471708057
1761469396956003800,6.84900390625,1.6983131529152393,4.745971122774481,0.814447958908975
1761469396965959000,6.858958984375,1.5275596958905457,4.0842824067771435,0.5532531834587454
1761469396975913700,6.868913818359375,-0.08464169223606587,2.9301486117661,-0.5121835064455866
1761469396985869000,6.878869140625,0.19859657271802425,2.272724567475915,-0.8914853136211633
1761469396995823900,6.888823974609375,1.9148983867883682,0.07113572945296764,0.055851943342387675
1761469397005778700,6.89877880859375,3.36335181273818,-2.6768700162678956,2.256291319069266
1761469397015734000,6.908734130859375,4.7079105644494295,-4.525881095650792,3.1912779207646844
1761469397025688800,6.918688720703125,2.9406770200431347,-6.146675540077686,2.0328706862181423
1761469397035644000,6.928643798828125,-2.3694611866533757,-7.323451959529518,0.9824695067517459
1761469397045598700,6.9385986328125,-7.368214645841717,-7.945717596676945,1.105150276133418
1761469397055553800,6.9485537109375,-10.143260958701372,-8.876637095063924,3.1936849819064137
1761469397065508900,6.9585087890625,-12.486432688844204,-9.988887558591365,5.375404751855134
1761469397075463700,6.968463623046875,-14.546374337339401,-11.168344010907411,6.5137266452282665
1761469397085419000,6.9784189453125,-14.554328511214255,-11.136806716871261,6.591560411015153
1761469397095373800,6.988373779296875,-14.587096808350084,-11.089135449635982,6.654074442595243
1761469397105329000,6.998328857421875,-14.614562322902678,-11.047805075860023,6.713897335395217
1761469397115283500,7.008283447265625,-14.600122294139862,-11.035553497052192,6.8015563296258446
1761469397125238800,7.01823876953125,-14.532697694164513,-11.063110197019576,6.917309199440479
1761469397135193600,7.028193603515625,-14.440790979361534,-11.113713426053524,7.038620872426033
1761469397145148400,7.0381484375,-14.37596750179529,-11.149123762130737,7.134623916631937
1761469397155104500,7.0481044921875,-14.369426701849699,-11.139682564568519,7.201920506313443
1761469397165059600,7.0580595703125,-14.429717796683311,-11.072535027968883,7.261152447482943
1761469397175014400,7.068014404296875,-14.546570736694335,-10.955616621506213,7.3318030237674705
1761469397184969700,7.0779697265625,-14.699403337103128,-10.810955637115239,7.414719207385182
1761469397194924500,7.087924560546875,-9.879530527293682,-3.3319045350730416,-2.3550993376933036
1761469397204879600,7.097879638671875,-4.635862396326661,-1.519599092274904,-2.23052910130322
1761469397214834700,7.107834716796875,0.13547580741643905,-0.1430149707496166,-1.382334209484607
1761469397224789500,7.11778955078125,3.752231887859106,1.566666548398137,-0.8600071293611079
1761469397234744600,7.12774462890625,6.052217387226223,4.103487457984686,-1.1103084626141935
1761469397244699400,7.137699462890625,7.354888131278753,7.254986326068639,-1.6126106995798646
1761469397254654700,7.14765478515625,6.999879930621385,8.810055960175394,-2.596806883993745
1761469397264609500,7.157609619140625,5.948805528068542,10.657399398607016,-2.3967758945584294
1761469397274564600,7.167564697265625,4.956814598125219,11.184128440016508,-0.6051056819014251
1761469397284519700,7.177519775390625,3.9341619879364966,10.087278959238528,0.930542043376714
1761469397294474500,7.187474609375,5.143267728585005,8.749058762899041,0.29953049745485183
1761469397304429600,7.1974296875,8.581636496123672,6.756586138042807,-1.5117029321976005
1761469397314384600,7.207384521484375,10.413234083890915,4.173433685392141,-2.3135602896027265
1761469397324339700,7.217339599609375,11.43974103142023,3.6582074502497908,-1.9929481334134935
1761469397334294500,7.22729443359375,11.951793897223473,4.961718736779689,-2.30240118220672
1761469397344249600,7.23724951171875,11.66855680131316,5.5778509857386345,-2.0952463322408494
1761469397354204700,7.24720458984375,10.452623844993115,5.162756272909045,-2.4253370953932403
1761469397364159500,7.257159423828125,9.33834625955224,5.983197627013921,-1.852816316884756
1761469397374114600,7.267114501953125,8.782887967264651,7.791539426878094,-1.2499822331771253
1761469397384069600,7.277069580078125,8.035186855199932,8.890062393826245,-1.6733618131406605
1761469397394024700,7.287024658203125,7.316588503500819,10.619011508023739,-1.6579963400959967
1761469397403979500,7.2969794921875,6.10328706472814,11.581391728079318,-2.559846395865083
1761469397413934600,7.3069345703125,3.0918168450593946,10.981972713512182,-3.954700333574414
1761469397423889700,7.3168896484375,-0.39885377212464806,9.001464667215943,-2.708465470232069
1761469397433844500,7.326844482421875,-1.2506436196953057,7.025428797897696,-0.912346023081243
1761469397443799600,7.336799560546875,-0.3554711419939995,7.080989941599965,-1.1613462106078862
1761469397453754600,7.346754638671875,0.8446598495602607,7.523941214126348,-1.2470600621201098
1761469397463709700,7.356709716796875,2.262624906004965,7.30075205194354,-0.7659440402418375
1761469397473664500,7.36666455078125,3.3383430436879395,6.464269079098105,-0.7436037597484886
1761469397483619600,7.37661962890625,4.206991671600938,5.968472351568937,-1.2159331024505198
1761469397493574700,7.38657470703125,4.582750399342179,6.1614551760584115,-1.3313167005613444
1761469397503529500,7.396529541015625,4.449177795198559,6.681473906174301,-0.932930984339863
1761469397513485600,7.406485595703125,4.356728351821005,6.087493867790698,-0.8438504328735172
1761469397523440600,7.416440673828125,4.654191833743453,5.3395256292223925,-0.8354781797170638
1761469397533395500,7.4263955078125,3.5278234130144117,4.327788380801677,-1.2062006668567657
1761469397543350800,7.436350830078125,1.7396107934653757,4.151241142806411,-1.3335437289610503
1761469397553305600,7.4463056640625,-0.2219482222110033,3.862907016018033,-1.1670270327232777
1761469397563260700,7.4562607421875,-1.8535040068879722,2.666988089200854,-0.08021729992255568
1761469397573215500,7.466215576171875,-2.094787336426973,0.5172755688875913,1.5082839175343512
1761469397583170600,7.476170654296875,-0.4050309994548559,-1.8688345547497272,2.113801833498478
1761469397593125600,7.486125732421875,0.510129496525228,-5.148408014082908,1.8675094436258077
1761469397603080400,7.49608056640625,-0.49006402909606694,-7.874585374355315,-0.01820559184141457
1761469397613035800,7.506035888671875,-3.909941446654498,-8.89749751226306,-1.896531101579219
1761469397622990600,7.515990478515625,-7.341010412573814,-8.90792129112184,-1.9957443400032817
1761469397632945700,7.525945556640625,-10.149273350858687,-9.14069252064228,-1.1650525177799165
1761469397642900700,7.535900634765625,-12.046736618721484,-9.499996372666955,1.359010324781388
1761469397652855600,7.54585546875,-13.599952733916043,-11.574361098790169,4.113622483029961
1761469397662810600,7.555810546875,-12.498987049990891,-12.501847700119018,4.050528021213412
1761469397672765400,7.565765380859375,-12.613954322385787,-12.438345242023468,4.050087876230478
1761469397682720800,7.575720703125,-12.722128281378746,-12.380358332479,4.0502342989638445
1761469397692675600,7.585675537109375,-12.798990571784973,-12.339973715120554,4.052727577084303
1761469397702630400,7.59563037109375,-12.80932725688219,-12.331349679160118,4.086204899272323
1761469397712585700,7.605585693359375,-12.735097653067111,-12.363898196065426,4.151443095119297
1761469397722540500,7.61554052734375,-12.58246963531971,-12.439642880618571,4.223301585888862
1761469397732495600,7.62549560546875,-12.387641475224495,-12.545002951234578,4.277025869552791
1761469397742450400,7.635450439453125,-12.21011867019534,-12.647442750489711,4.311613198809326
1761469397752405800,7.64540576171875,-12.096024673503637,-12.715539550638198,4.340760967360437
1761469397762360600,7.655360595703125,-12.071038700807094,-12.728567374515533,4.379439073061943
1761469397772315400,7.6653154296875,-12.13572306216359,-12.684385702961682,4.442400848409533
1761469397782270700,7.675270751953125,-12.162245158386229,-1.7244518027782438,-1.728289773505926
1761469397792225500,7.6852255859375,-7.754569001877307,-0.39164953983426093,-3.1122566987589
1761469397802180600,7.6951806640625,-3.5298142945706843,0.8244903372347354,-3.6340307481095193
1761469397812135700,7.7051357421875,-0.9343839596271515,2.001253897204995,-2.9022695479765535
1761469397822090800,7.7150908203125,1.1398089170604944,3.6045629538238044,-2.2483961819052696
1761469397832045600,7.725045654296875,3.939678121009469,5.88560351422429,-1.971810945099592
1761469397842000400,7.73500048828125,6.372449458056688,7.916666858759522,-1.3420274796679614
1761469397851956500,7.74495654296875,7.3858496712535615,10.185130261659621,0.04363203831445425
1761469397861911600,7.75491162109375,7.051795411297679,11.4039519251585,1.7093065483555197
1761469397871866600,7.76486669921875,6.757035635375976,12.225463538843393,3.0800717544689773
1761469397881821700,7.77482177734375,6.162179398679733,12.217537422019243,2.384637420736253
1761469397891776500,7.784776611328125,5.9294894177019595,11.119890653383731,0.721819797963649
1761469397901731600,7.794731689453125,6.447488040167093,9.209728647467493,-1.9264521925903855
1761469397911686700,7.804686767578125,7.897617874896526,8.32380272153914,-3.03546542776227
1761469397921641500,7.814641357421875,8.55729992724657,8.036704274025558,-3.9539661740809677
1761469397931596500,7.824596435546875,8.615472714751958,7.445959564301371,-2.3775920322693884
1761469397941551600,7.834551513671875,8.424738545972108,7.244286652877927,-1.5736933782950042
1761469397951506700,7.844506591796875,7.884782943242788,8.129154009664058,-0.9070467476293445
1761469397961461500,7.85446142578125,7.01527565267384,7.981600810962915,0.006879603445902467
1761469397971416800,7.864416748046875,6.510671933832764,7.847595076099037,1.227314182034135
1761469397981371600,7.87437158203125,5.736452232676744,8.12293937293291,1.7409370736330747
1761469397991326500,7.884326416015625,4.301742669919133,8.029607009240985,1.529772988025844
1761469398001281500,7.894281494140625,2.7085820823490616,7.715422986403107,0.9479149107210337
1761469398011236600,7.904236572265625,1.3629410883590578,7.39245476860702,0.3435075863473117
1761469398021191700,7.914191650390625,0.5489823742717505,7.253001289731264,-0.11960267711058259
1761469398031146500,7.924146484375,0.4696428800970316,7.067201070222258,-0.2864053506828844
1761469398041101600,7.9341015625,1.1806675816714762,6.784688781455158,-0.372075216922909
1761469398051056600,7.944056640625,1.271143386888504,6.49924686897695,-0.5793979708015918
1761469398061011500,7.954011474609375,1.0536451298236846,6.211155903294682,-1.114392955448851
1761469398070966500,7.963966552734375,1.48215754263103,5.7657537304848425,-1.554132060995698
1761469398080921600,7.973921630859375,1.7364570056095718,5.390756050243973,-1.9442375862583516
1761469398090876700,7.983876708984375,1.0769108545988797,5.45368918401897,-1.9821502605453132
1761469398100831500,7.99383154296875,-0.4010854766994715,5.489447895142436,-1.2552644113637506
1761469398110786600,8.00378662109375,-1.026970765648782,6.013267771106958,-0.1320379419222474
1761469398120741600,8.01374169921875,-0.28643910682201384,5.656417157453299,0.7984928494080901
1761469398130696400,8.023696533203125,0.5120324075371027,4.227162352970242,1.3693971326306462
1761469398140651800,8.03365185546875,2.0635832198679447,2.2791917176634073,1.1088459888461977
1761469398150607600,8.043607666015625,4.180833147993684,-0.08764438118338584,-0.30702099934071303
1761469398160562700,8.053562744140624,5.105649653330445,-1.559348334339261,-2.0929349865585563
1761469398170517800,8.063517822265625,3.5917432197391985,-2.233047806125879,-2.7666730367898937
1761469398180472600,8.07347265625,0.7929805157274007,-2.3801368944466113,-0.8412970951288938
1761469398190427600,8.083427734375,-1.4096394189089536,-2.314646477404237,0.8566909905504435
1761469398200382700,8.0933828125,-3.259828894421458,-3.0456074670702216,-0.37271877552345395
1761469398210337500,8.103337646484375,-3.6872424060761926,-5.727832872891426,-2.604245801822841
1761469398220292600,8.113292724609375,-3.791857795804739,-8.64452520623505,-3.8174610236167905
1761469398230247700,8.12324755859375,-4.039302570582926,-10.436614959478378,-3.3018037035807963
1761469398240202800,8.13320263671875,-4.58542487924844,-11.61622689461708,-1.238938276593387
1761469398250157600,8.143157470703125,-4.579932419312,-11.628899329185485,-1.3440205531813203
1761469398260112600,8.153112548828124,-4.564759984621405,-11.644681420207023,-1.430425163436681
1761469398270067700,8.163067626953126,-4.5072506294608115,-11.674213804161548,-1.476115047596395
1761469398280022500,8.1730224609375,-4.384809367923438,-11.726231576168537,-1.4685609789550305
1761469398289977600,8.1829775390625,-4.1904739597812295,-11.807504668754339,-1.4103773777946829
1761469398299932700,8.1929326171875,-3.9501711657121774,-11.91520750310421,-1.3351396198503673
1761469398309887700,8.2028876953125,-3.7049487431585786,-12.037258011758327,-1.2895416517578064
1761469398319842600,8.212842529296875,-3.495369588655233,-12.152723296803236,-1.289235508418083
1761469398329797600,8.222797607421874,-3.3513772973060605,-12.238047126084565,-1.3081632039889692
1761469398339752700,8.232752685546876,-3.294736541673541,-12.273337050652504,-1.3228756199523806
1761469398349707500,8.24270751953125,-3.33912571849823,-12.247440392851829,-1.3278184831820428
1761469398359662600,8.25266259765625,-3.4697865268483756,-12.172253342181444,-1.3353186296790838
1761469398369617700,8.26261767578125,-13.674889609217644,-7.028523256781697,-2.7117887694358824
1761469398379572700,8.27257275390625,-9.770676184821129,-4.815020109081268,-2.7872522989600896
1761469398389527600,8.282527587890625,-5.503697954291105,-2.1298773545086385,-1.994321759854257
1761469398399482600,8.292482666015625,-1.6763003508105874,0.5725900443524122,-0.8486369364976882
1761469398409437700,8.302437744140626,1.5175100110411643,3.0950305464088914,0.07024046111367642
1761469398419392500,8.312392578125,3.914569398716092,5.230924384728074,0.8749291694872081
1761469398429347800,8.322347900390625,5.119352599990368,7.018696274772286,0.937145971686393
1761469398439303700,8.3323037109375,5.370176203551888,8.76349528453052,0.2240890336319804
1761469398449257700,8.3422578125,4.613441013421118,9.788305365014075,-0.38101299500763414
1761469398459213800,8.3522138671875,3.447162899369001,10.660484505140781,-0.36452860093563794
1761469398469168600,8.362168701171875,2.336281970629096,11.267145745921134,-0.3503985149048269
1761469398479123700,8.372123779296874,2.4001515084713696,11.681494608819484,-0.6342489204078913
1761469398489078500,8.38207861328125,3.6598508335426447,11.905441311371325,-0.828077548071742
1761469398499033600,8.39203369140625,5.463426734179258,11.561146227908134,-0.9351214801214635
1761469398508988700,8.40198876953125,6.976903544181585,11.270524282443523,-1.2001895898737012
1761469398518943500,8.411943603515626,7.026046637535095,10.783237609106301,-0.29494653066545723
1761469398528898800,8.42189892578125,7.2361904401838775,10.896004741108417,-0.25442601196765896
1761469398538853600,8.431853515625,7.501714184749126,11.553132432800531,-0.7473746565893292
1761469398548808400,8.441808349609374,7.386947987884283,11.276135692584514,-1.4057191767252981
1761469398558763800,8.451763671875,7.112751107519864,10.21605614579916,-2.0024828544780613
1761469398568718600,8.461718505859375,6.5784396481573575,9.386626014074682,-2.3604320770233866
1761469398578673700,8.471673583984375,6.470701742494106,9.350053063958883,-2.318800966735184
1761469398588628500,8.48162841796875,6.546931580215692,9.500310260921717,-2.0181319667696953
1761469398598583800,8.491583740234375,6.633817251986264,9.368235786381364,-1.6406524065852164
1761469398608538600,8.50153857421875,6.5559279566198585,9.401648811161518,-0.8783115054018795
1761469398618493400,8.511493408203124,6.332451794189215,9.50628875080943,-0.3555015371322632
1761469398628448800,8.52144873046875,5.828880925527215,9.387979766771197,-0.3469203174002468
1761469398638403600,8.531403564453125,4.927746909072995,9.09932707555294,-0.9674654143653809
1761469398648358700,8.541358642578125,4.373607882690429,8.589855458414554,-1.1091643340803683
1761469398658313700,8.551313720703124,4.32543392663002,8.050106776434182,-1.2384602838180958
1761469398668268800,8.561268798828126,4.293875882066786,7.435678993305563,-1.5707335055761038
1761469398678223600,8.5712236328125,3.8285061492443084,5.877429560118913,-1.9060155537612735
1761469398688178400,8.581178466796874,3.465238946546614,4.938987849533557,-1.6594320719875395
1761469398698133800,8.5911337890625,2.426104864895344,5.040780583056807,-0.5074715293623506
1761469398708088600,8.601088623046875,-0.26338380992710586,4.082596061125398,0.9439685111828148
1761469398718044400,8.61104443359375,-2.3868331772148608,2.424490999957919,1.8801044290438294
1761469398727999700,8.620999755859375,-2.607671976879239,0.1223024375885725,0.9413526295959949
1761469398737954600,8.63095458984375,-2.5349843418091536,-2.5294004041969775,-0.5290218285217881
1761469398747909600,8.64090966796875,-3.049644759762287,-4.343004654633998,-1.6569817562259732
1761469398757864700,8.65086474609375,-5.0483238380432125,-4.740673016366363,-1.666867921076715
1761469398767819500,8.660819580078124,-8.90922652850151,-4.912055418944359,0.006082096392661333
1761469398777774600,8.670774658203126,-11.823114910340308,-5.685932590273023,1.4996704029679297
1761469398787729700,8.680729736328125,-10.134435847210883,-7.907192927971482,1.622528282482177
1761469398797684700,8.690684814453125,-6.592877923354506,-11.031655905091762,1.2783312525659798
1761469398807639600,8.7006396484375,-4.729676990577579,-13.278766138839721,0.660907794752717
1761469398817594600,8.7105947265625,-4.683997773942351,-13.301740187191962,0.695537209585309
1761469398827549700,8.7205498046875,-4.661588958257436,-13.311470138567685,0.723830261003226
1761469398837504500,8.73050439453125,-4.673329080411792,-13.300110540163516,0.7506562355432659
1761469398847459600,8.74045947265625,-4.683911849224567,-13.287577221804856,0.7915713065166026
1761469398857414700,8.75041455078125,-4.641550963357091,-13.306498195374012,0.8465573537446558
1761469398867369700,8.76036962890625,-4.52332965760231,-13.371485339069366,0.9278072115853429
1761469398877324500,8.770324462890626,-4.3476177013874056,-13.473764979326724,1.0484320713505149
1761469398887279900,8.78027978515625,-4.158679768374562,-13.589972607171534,1.1945103751935064
