time,seconds_elapsed,z,y,x
1761469390164179200,0.05717919921875,0.06320198625326157,-0.16455718874931335,0.015412431210279465
1761469390174134000,0.067134033203125,0.02848155051469803,-0.17031414806842804,-0.0762900561094284
1761469390184088800,0.0770888671875,-0.01213710755109787,-0.13048918545246124,-0.16987183690071106
1761469390194044200,0.087044189453125,-0.02507980354130268,-0.05273740366101265,-0.26196420192718506
1761469390204000000,0.097,-0.00276277307420969,0.04578057676553726,-0.36168086528778076
1761469390213954800,0.106954833984375,0.012558125890791416,-0.07435435056686401,-0.37752029299736023
1761469390223910100,0.11691015625,-0.04857649654150009,0.12987883388996124,-0.4801766872406006
1761469390233865000,0.126864990234375,-0.135318323969841,0.3128869831562042,-0.6029812097549438
1761469390243820000,0.136820068359375,-0.18478301167488098,0.3053034543991089,-0.6146472692489624
1761469390253775000,0.146775146484375,-0.2407088577747345,0.21322599053382874,-0.5203971862792969
1761469390263730200,0.156730224609375,-0.27171432971954346,0.13455705344676971,-0.35563230514526367
1761469390273685000,0.16668505859375,-0.261432409286499,0.04582585394382477,-0.16515396535396576
1761469390283639800,0.176639892578125,-0.23724205791950226,-0.06915836781263351,0.02929484285414219
1761469390293595100,0.18659521484375,-0.19621926546096802,-0.17448078095912933,0.19053113460540771
1761469390303550000,0.196550048828125,-0.15207241475582123,-0.24952369928359985,0.3167519271373749
1761469390313505000,0.206505126953125,-0.10676458477973938,-0.2718218266963959,0.4244230091571808
1761469390323460000,0.216460205078125,-0.07293727993965149,-0.2396477460861206,0.5194360017776489
1761469390333415000,0.226414794921875,-0.047334443777799606,-0.221965953707695,0.5830293297767639
1761469390343370000,0.236369873046875,-0.0375131331384182,-0.19928471744060516,0.5954947471618652
1761469390353325000,0.246324951171875,-0.005610329564660788,-0.22931718826293945,0.5844489932060242
1761469390363280100,0.256280029296875,-0.040691934525966644,-0.305711567401886,0.558539867401123
1761469390373235000,0.26623486328125,-0.11995160579681396,-0.3512215316295624,0.5694798231124878
1761469390383190000,0.27618994140625,-0.1965501308441162,-0.3836964964866638,0.6064921021461487
1761469390393145000,0.28614501953125,-0.23015442490577698,-0.4325979948043823,0.6408793926239014
1761469390403100000,0.296099853515625,-0.19919970631599426,-0.47423025965690613,0.6702964901924133
1761469390413055000,0.306054931640625,-0.1400144100189209,-0.5133231282234192,0.7070201635360718
1761469390423010000,0.316010009765625,-0.2927230894565582,-0.744202733039856,0.6957013607025146
1761469390432965000,0.325965087890625,-0.44043585658073425,-0.8225473165512085,0.7701915502548218
1761469390442921000,0.3359208984375,-0.5253322720527649,-0.7047364711761475,0.8518753051757812
1761469390452876000,0.3458759765625,-0.560813307762146,-0.5868287682533264,0.9164769649505615
1761469390462831000,0.3558310546875,-0.6207601428031921,-0.47922056913375854,0.9808318018913269
1761469390472786000,0.365785888671875,-0.7114202380180359,-0.35408875346183777,1.0591721534729004
1761469390482741000,0.375740966796875,-0.8264568448066711,-0.23224972188472748,1.12153959274292
1761469390492696000,0.385696044921875,-0.8885095715522766,-0.12310511618852615,1.1541364192962646
1761469390502651000,0.39565087890625,-0.9388943314552307,-0.010751293040812016,1.1730751991271973
1761469390512606000,0.40560595703125,-1.0238081216812134,0.05566101893782616,1.1943069696426392
1761469390522561000,0.41556103515625,-1.1699504852294922,0.05193066596984863,1.2150541543960571
1761469390532516000,0.42551611328125,-1.3190020322799683,-0.00045318203046917915,1.2203352451324463
1761469390542471000,0.435470947265625,-1.4435595273971558,-0.10807393491268158,1.1676626205444336
1761469390552426000,0.445426025390625,-1.5514106750488281,-0.18830539286136627,1.077939748764038
1761469390562381000,0.455381103515625,-1.6690855026245117,-0.18689964711666107,0.9681395292282104
1761469390572335900,0.4653359375,-1.7970842123031616,-0.1910877376794815,0.8249759674072266
1761469390582291200,0.475291259765625,-1.8759633302688599,-0.21341024339199066,0.6637879014015198
1761469390592246000,0.48524609375,-1.882004737854004,-0.1798006296157837,0.49994412064552307
1761469390602201000,0.495201171875,-1.7630268335342407,-0.11742068827152252,0.35916733741760254
1761469390612156000,0.505156005859375,-1.5247061252593994,-0.07188676297664642,0.19287103414535522
1761469390622111000,0.515111083984375,-1.226662039756775,-0.015950815752148628,0.006931709125638008
1761469390632066000,0.525066162109375,-0.9332079291343689,0.1370352804660797,-0.12733155488967896
1761469390642020900,0.535020751953125,-0.5881385207176208,0.26180654764175415,-0.19946876168251038
1761469390651976200,0.54497607421875,-0.21538357436656952,0.3166074752807617,-0.2692963182926178
1761469390661931000,0.554930908203125,-0.15455138683319092,0.017769470810890198,-0.37101200222969055
1761469390671886800,0.564886962890625,-0.3170207440853119,-0.3643515408039093,-0.4012143611907959
1761469390681842200,0.57484228515625,-0.4401051998138428,-0.6249746680259705,-0.3762936294078827
1761469390691797000,0.584796875,-0.563653290271759,-0.7575782537460327,-0.32570797204971313
1761469390701752000,0.594751953125,-0.6482181549072266,-0.6699497103691101,-0.2528986930847168
1761469390711707100,0.60470703125,-0.6967089772224426,-0.2935585081577301,-0.22871053218841553
1761469390721662000,0.614661865234375,-0.6590614318847656,0.05309360474348068,-0.18515567481517792
1761469390731617000,0.624616943359375,-0.5692732334136963,0.3888804018497467,-0.0988980233669281
1761469390741571800,0.63457177734375,-0.480681449174881,0.6011134386062622,-0.0004257718101143837
1761469390751527200,0.644527099609375,-0.3988547623157501,0.6827089190483093,0.11088024824857712
1761469390761482000,0.65448193359375,-0.30609920620918274,0.6103802919387817,0.26280704140663147
1761469390771437000,0.66443701171875,-0.20037730038166046,0.4576343595981598,0.34583428502082825
1761469390781392100,0.67439208984375,-0.04593271762132645,0.23869287967681885,0.4429675042629242
1761469390791347000,0.684346923828125,-0.004398058634251356,-0.08328168094158173,0.5077563524246216
1761469390801302000,0.694302001953125,-0.07446224987506866,-0.3985719680786133,0.5077880620956421
1761469390811257000,0.704257080078125,-0.19023758172988892,-0.6561326384544373,0.4407859146595001
1761469390821212200,0.714212158203125,-0.23104919493198395,-0.8041608929634094,0.3286324441432953
1761469390831167000,0.7241669921875,-0.2575069069862366,-0.8349083662033081,0.20654195547103882
1761469390841121800,0.734121826171875,-0.29149267077445984,-0.7394970059394836,0.1077573150396347
1761469390851077000,0.7440771484375,-0.2838557958602905,-0.5630292892456055,0.01377888210117817
1761469390861032000,0.754031982421875,-0.2152237445116043,-0.32304847240448,-0.10233977437019348
1761469390870987000,0.763987060546875,-0.10391320288181305,-0.041523851454257965,-0.21401704847812653
1761469390880942000,0.773942138671875,-0.0391850546002388,0.11819350719451904,-0.33327800035476685
1761469390890898000,0.78389794921875,0.02557316981256008,0.08746302127838135,-0.43998846411705017
1761469390900853000,0.79385302734375,0.04500839486718178,0.05781115964055061,-0.46335282921791077
1761469390910808000,0.80380810546875,0.019730471074581146,-0.08589567989110947,-0.4408078193664551
1761469390920763100,0.81376318359375,-0.05810123309493065,-0.2055242508649826,-0.3885643184185028
1761469390930718000,0.823718017578125,-0.10254380106925964,-0.36537808179855347,-0.3951737582683563
1761469390940673000,0.833673095703125,-0.09803739190101624,-0.4137619435787201,-0.4894048273563385
1761469390950628000,0.843628173828125,-0.0509609580039978,-0.5119516253471375,-0.5645297169685364
1761469390960583000,0.8535830078125,0.035891953855752945,-0.538738489151001,-0.49876028299331665
1761469390970538000,0.8635380859375,-0.030777087435126305,-0.5466102957725525,-0.4319296181201935
1761469390980493000,0.8734931640625,-0.10580293089151382,-0.4527856707572937,-0.45673614740371704
1761469390990447900,0.88344775390625,-0.09838522970676422,-0.28694289922714233,-0.471273809671402
1761469391000403000,0.89340283203125,-0.007191330194473267,-0.23482537269592285,-0.47890186309814453
1761469391010358000,0.90335791015625,0.071307472884655,-0.17440837621688843,-0.46987056732177734
1761469391020313000,0.91331298828125,0.0851956382393837,-0.13320311903953552,-0.3995260000228882
1761469391030268000,0.923267822265625,0.07346068322658539,-0.20582886040210724,-0.3339715003967285
1761469391040223200,0.93322314453125,0.04179895296692848,-0.2661815583705902,-0.2768245041370392
1761469391050178000,0.943177978515625,-0.008072199299931526,-0.2843533754348755,-0.2011188119649887
1761469391060132900,0.9531328125,-0.016104502603411674,-0.34548813104629517,-0.1392931044101715
1761469391070088000,0.963087890625,-0.002001998946070671,-0.3918769359588623,-0.07180221378803253
1761469391080043000,0.97304296875,0.0005018983501940966,-0.3761138916015625,-0.04442792385816574
1761469391089998000,0.982998046875,0.032316021621227264,-0.27875033020973206,-0.10515359044075012
1761469391099953000,0.992952880859375,0.02593786083161831,-0.2913874685764313,-0.02034895122051239
1761469391109908200,1.002908203125,0.033499639481306076,-0.22899624705314636,0.004263983108103275
1761469391119864300,1.0128642578125,0.021663323044776917,-0.23021672666072845,0.04037553071975708
1761469391129819100,1.022819091796875,-0.0029863640666007996,-0.19380918145179749,0.04739882051944733
1761469391139774200,1.032774169921875,-0.012144554406404495,-0.17954139411449432,-0.0012723160907626152
1761469391149729300,1.042729248046875,0.019735347479581833,-0.1535223126411438,-0.07207538187503815
1761469391159684000,1.05268408203125,0.04309452697634697,-0.12147430330514908,-0.1425541490316391
1761469391169639200,1.06263916015625,0.0717615857720375,-0.09953571110963821,-0.20174238085746765
1761469391179594000,1.072593994140625,0.07286706566810608,-0.0918140783905983,-0.23816198110580444
1761469391189549300,1.08254931640625,0.036545541137456894,-0.12265720963478088,-0.2523435950279236
1761469391199504100,1.092504150390625,0.08155765384435654,-0.13270190358161926,-0.2644520401954651
1761469391209459000,1.102458984375,0.11818810552358627,-0.10019402951002121,-0.26813068985939026
1761469391219414300,1.112414306640625,0.19138103723526,-0.07392100989818573,-0.3109720051288605
1761469391229369000,1.122369140625,0.2386516034603119,0.0445672906935215,-0.3305603563785553
1761469391239324200,1.13232421875,0.25613388419151306,0.0696776732802391,-0.33163076639175415
1761469391249279000,1.142279052734375,0.2406153827905655,0.1114853098988533,-0.2885408103466034
1761469391259234300,1.152234375,0.19656173884868622,0.15084801614284515,-0.2476433664560318
1761469391269189000,1.162189208984375,0.18491226434707642,0.14591024816036224,-0.2175469696521759
1761469391279144000,1.17214404296875,0.24437497556209564,0.12374120950698853,-0.15038014948368073
1761469391289099300,1.182099365234375,0.2699538469314575,0.004656100180000067,-0.06486630439758301
1761469391299054000,1.19205419921875,0.20372909307479858,-0.10152111202478409,0.04040573164820671
1761469391309009200,1.202009033203125,0.10732319205999374,-0.2669864892959595,0.1111704483628273
1761469391318964200,1.211964111328125,0.1107369139790535,-0.3842698037624359,0.15198615193367004
1761469391328919300,1.221919189453125,0.2292904555797577,-0.3829435408115387,0.17910191416740417
1761469391338874000,1.2318740234375,0.3543564975261688,-0.3633931279182434,0.22970806062221527
1761469391348829000,1.241828857421875,0.40967753529548645,-0.31008729338645935,0.275776207447052
1761469391358784300,1.2517841796875,0.3953770101070404,-0.2047453224658966,0.3028094470500946
1761469391368740000,1.261739990234375,0.3276619017124176,-0.09224940836429596,0.32197728753089905
1761469391378695200,1.271695068359375,0.24314533174037933,0.004204799886792898,0.31481313705444336
1761469391388650200,1.281650146484375,0.16689077019691467,0.08207083493471146,0.26853567361831665
1761469391398605000,1.29160498046875,0.09102854132652283,0.09307315200567245,0.21327555179595947
1761469391408560000,1.30156005859375,0.034135960042476654,0.0547579824924469,0.16137000918388367
1761469391418515200,1.31151513671875,-0.00574214244261384,-0.022910885512828827,0.12405863404273987
1761469391428470000,1.321469970703125,-0.030443493276834488,-0.11856178194284439,0.10617311298847198
1761469391438425000,1.331425048828125,-0.048125822097063065,-0.19354024529457092,0.10948045551776886
1761469391448380200,1.341380126953125,-0.07740861177444458,-0.2325741946697235,0.12368495762348175
1761469391458335200,1.351335205078125,-0.10124272108078003,-0.23170128464698792,0.13870283961296082
1761469391468290000,1.3612900390625,-0.11981427669525146,-0.19034773111343384,0.1353517770767212
1761469391478245000,1.3712451171875,-0.12940794229507446,-0.13701078295707703,0.12094711512327194
1761469391488200200,1.3812001953125,-0.13568022847175598,-0.06782053411006927,0.09366995096206665
1761469391498155000,1.391155029296875,-0.13958624005317688,0.004555491264909506,0.04304724931716919
1761469391508110000,1.401110107421875,-0.13036824762821198,0.05550309270620346,-0.01621740683913231
1761469391518065200,1.411065185546875,-0.10436704009771347,0.06181895360350609,-0.06594820320606232
1761469391528020200,1.421020263671875,-0.06301640719175339,0.04376325383782387,-0.09294679760932922
1761469391537975000,1.43097509765625,-0.02138337306678295,0.009358562529087067,-0.08650362491607666
1761469391547930400,1.440930419921875,0.016342701390385628,-0.027132870629429817,-0.05348415672779083
1761469391557885200,1.45088525390625,0.05758973956108093,-0.028138911351561546,-0.014743377454578876
1761469391567840000,1.460840087890625,0.11737743765115738,-0.05500541627407074,0.02948134019970894
1761469391577795000,1.470795166015625,0.14668573439121246,-0.11246264725923538,0.08237232267856598
1761469391587750100,1.480750244140625,0.14326943457126617,-0.08712878823280334,0.1329934298992157
1761469391597706000,1.4907060546875,0.1146969124674797,-0.002249484183266759,0.15383349359035492
1761469391607661300,1.500661376953125,0.07372045516967773,0.08262785524129868,0.14155073463916779
1761469391617616100,1.5106162109375,0.03345128148794174,0.15204359591007233,0.11406239122152328
1761469391627571200,1.5205712890625,0.01280379481613636,0.19240912795066833,0.07575894147157669
1761469391637526000,1.530526123046875,0.004224259406328201,0.22376586496829987,0.030450506135821342
1761469391647481000,1.540481201171875,-0.00048154639080166817,0.2375144362449646,-0.012967009097337723
1761469391657436200,1.550436279296875,0.0034525259397923946,0.2152019739151001,-0.05047675967216492
1761469391667391000,1.560390869140625,0.008742894977331161,0.17760266363620758,-0.07476984709501266
1761469391677346300,1.57034619140625,0.025460412725806236,0.13054616749286652,-0.08400554209947586
1761469391687301000,1.580301025390625,0.054819367825984955,0.06753417104482651,-0.07936497777700424
1761469391697256200,1.590256103515625,0.0805913582444191,-0.001325826277025044,-0.059819966554641724
1761469391707211000,1.6002109375,0.09628989547491074,-0.06349652260541916,-0.036605991423130035
1761469391717166000,1.610166015625,0.10805781185626984,-0.11505208909511566,-0.014816958457231522
1761469391727121200,1.62012109375,0.11707980185747147,-0.1470523625612259,0.006230535916984081
1761469391737076000,1.630075927734375,0.1150217279791832,-0.16694481670856476,0.027044326066970825
1761469391747031300,1.64003125,0.11238519847393036,-0.16409043967723846,0.042753513902425766
1761469391756986000,1.649986083984375,0.11289858818054199,-0.148444265127182,0.049322761595249176
1761469391766941200,1.659941162109375,0.11451725661754608,-0.11815585941076279,0.04995419830083847
1761469391776896300,1.669896240234375,0.11702415347099304,-0.08052171021699905,0.0437270849943161
1761469391786851000,1.67985107421875,0.11851711571216583,-0.058985788375139236,0.025588560849428177
1761469391796806100,1.68980615234375,0.12066265940666199,-0.05586780235171318,-0.008030010387301445
1761469391806761000,1.699760986328125,0.11756514012813568,-0.06332971900701523,-0.04454381391406059
1761469391816716300,1.70971630859375,0.12058250606060028,-0.08518341928720474,-0.08018961548805237
1761469391826671000,1.719671142578125,0.1689835786819458,-0.13197489082813263,-0.1439850926399231
1761469391836627200,1.729627197265625,0.21727123856544495,-0.13382568955421448,-0.19229507446289062
1761469391846582300,1.739582275390625,0.2382047474384308,-0.13686248660087585,-0.23433759808540344
1761469391856537000,1.749537109375,0.23440389335155487,-0.13884414732456207,-0.2579009532928467
1761469391866492200,1.7594921875,0.21128524839878082,-0.1515974998474121,-0.27203115820884705
1761469391876447200,1.769447265625,0.1632772535085678,-0.17550644278526306,-0.27869755029678345
1761469391886402000,1.779402099609375,0.08809806406497955,-0.23773014545440674,-0.28269335627555847
1761469391896357000,1.789357177734375,0.014379249885678291,-0.29998868703842163,-0.27895259857177734
1761469391906312200,1.799312255859375,-0.025308774784207344,-0.3448701500892639,-0.2718200981616974
1761469391916267300,1.809267333984375,-0.03416328877210617,-0.3830975890159607,-0.26239749789237976
1761469391926222000,1.81922216796875,-0.013293427415192127,-0.385061115026474,-0.23385587334632874
1761469391936177200,1.82917724609375,0.032065846025943756,-0.30670619010925293,-0.18356123566627502
1761469391946132200,1.83913232421875,0.057326726615428925,-0.17545150220394135,-0.09848175942897797
1761469391956087000,1.849087158203125,0.0655963271856308,-0.058085132390260696,-0.013391136191785336
1761469391966042000,1.8590419921875,0.0747312381863594,0.07643938809633255,0.028357908129692078
1761469391975997200,1.8689970703125,0.05890694260597229,0.22350850701332092,0.04387226328253746
1761469391985952300,1.8789521484375,-0.00845558661967516,0.3241562843322754,0.057135339826345444
1761469391995907000,1.888906982421875,-0.1255512535572052,0.3807840943336487,0.09957136958837509
1761469392005862100,1.898862060546875,-0.2743692398071289,0.3909677565097809,0.14812158048152924
1761469392015817200,1.908817138671875,-0.43157216906547546,0.3022066354751587,0.17836441099643707
1761469392025772000,1.91877197265625,-0.5844131708145142,0.13666188716888428,0.1887856274843216
1761469392035727000,1.92872705078125,-0.6959215402603149,0.06378597766160965,0.1356147825717926
1761469392045682200,1.93868212890625,-0.7113707661628723,0.08120518177747726,0.052636533975601196
1761469392055637200,1.94863720703125,-0.5356881022453308,0.09055966138839722,0.03837968409061432
1761469392065593300,1.95859326171875,-0.22199280560016632,0.20417118072509766,0.08529207110404968
1761469392075548200,1.968548095703125,0.04239954799413681,0.16581514477729797,0.2384280115365982
1761469392085503000,1.9785029296875,0.18006259202957153,0.04439684748649597,0.3648330867290497
1761469392095458000,1.9884580078125,0.12531162798404694,-0.022626180201768875,0.5321680903434753
1761469392105412900,1.998412841796875,-0.10857941210269928,-0.3695196807384491,0.626473069190979
1761469392115368200,2.0083681640625,-0.43681079149246216,-0.7970144748687744,0.6123759746551514
1761469392125323000,2.018322998046875,-0.8121806979179382,-0.6921786069869995,0.2861270606517792
1761469392135278000,2.028278076171875,-1.032278060913086,0.05608115717768669,-0.4117639660835266
1761469392145233000,2.03823291015625,-1.0886174440383911,1.2861562967300415,-1.2641408443450928
1761469392155188000,2.04818798828125,-0.908397912979126,2.3670902252197266,-1.7590270042419434
1761469392165143000,2.05814306640625,-0.7206879258155823,2.7912464141845703,-1.745784878730774
1761469392175097900,2.068097900390625,-0.615484356880188,2.7024993896484375,-1.169979453086853
1761469392185053200,2.07805322265625,-0.44330060482025146,2.621582269668579,0.16283471882343292
1761469392195008000,2.088008056640625,-0.30483537912368774,2.8162879943847656,2.070432424545288
1761469392204963000,2.097963134765625,-0.1760166883468628,2.938756227493286,4.104029178619385
1761469392214918000,2.10791796875,-0.034190937876701355,2.756352663040161,5.810899257659912
1761469392224873000,2.117873046875,0.2222624123096466,2.43880033493042,7.041909217834473
1761469392234828000,2.127828125,0.49683552980422974,1.9803285598754883,7.6155595779418945
1761469392244782800,2.137782958984375,0.6819723844528198,1.5453094244003296,7.443692207336426
1761469392254738200,2.14773828125,0.667327880859375,1.1632834672927856,6.661566257476807
1761469392264693000,2.15769287109375,0.40846115350723267,0.9167692065238953,5.517665386199951
1761469392274648000,2.16764794921875,-0.04884861037135124,0.8626066446304321,4.263493537902832
1761469392284603100,2.17760302734375,-0.4340391755104065,0.99756920337677,3.291466236114502
1761469392294558000,2.187557861328125,-0.4726944863796234,1.06340491771698,2.9542136192321777
1761469392304513000,2.197512939453125,-0.3544325530529022,0.9121416211128235,3.1671297550201416
1761469392314467800,2.2074677734375,-0.2505897879600525,0.5983220338821411,3.702540159225464
1761469392324424000,2.217423828125,-0.23164111375808716,0.26160791516304016,4.395200252532959
1761469392334379000,2.22737890625,-0.31919094920158386,-0.08446875214576721,5.120569705963135
1761469392344334000,2.237333984375,-0.5686670541763306,-0.2973461449146271,5.70338773727417
1761469392354289200,2.2472890625,-0.8007192015647888,-0.27395540475845337,5.921623706817627
1761469392364244000,2.257243896484375,-0.9976277947425842,0.006013645324856043,5.594062328338623
1761469392374199000,2.267198974609375,-1.1647378206253052,0.45049524307250977,4.769596576690674
1761469392384154000,2.277154052734375,-1.2970170974731445,0.8052498698234558,3.7434463500976562
1761469392394109000,2.28710888671875,-1.3682632446289062,0.8635397553443909,2.7145538330078125
1761469392404064000,2.29706396484375,-1.4281492233276367,0.6602030992507935,1.902037501335144
1761469392414019000,2.30701904296875,-1.519413709640503,0.2511654794216156,1.532381296157837
1761469392423974100,2.31697412109375,-1.5708470344543457,-0.2488778978586197,1.598280429840088
1761469392433929000,2.326928955078125,-1.5692217350006104,-0.6407215595245361,2.0106208324432373
1761469392443883800,2.3368837890625,-1.55362868309021,-0.8388977646827698,2.6956512928009033
1761469392453839000,2.346839111328125,-1.5668468475341797,-0.7937921285629272,3.433394193649292
1761469392463794000,2.3567939453125,-1.5194822549819946,-0.5980223417282104,3.856701374053955
1761469392473749000,2.3667490234375,-1.30693781375885,-0.3819192945957184,3.872847318649292
1761469392483704000,2.3767041015625,-1.015325665473938,-0.22338689863681793,3.5441789627075195
1761469392493659100,2.3866591796875,-0.7521662712097168,-0.09609894454479218,2.941617488861084
1761469392503614000,2.396614013671875,-0.5524781942367554,-0.17523318529129028,2.207716941833496
1761469392513569000,2.406569091796875,-0.5082235932350159,-0.5615227222442627,1.5198036432266235
1761469392523524000,2.416524169921875,-0.5978310108184814,-1.1480804681777954,0.9839467406272888
1761469392533479000,2.42647900390625,-0.7281233072280884,-1.6723647117614746,0.6427603960037231
1761469392543434000,2.43643408203125,-0.8135727047920227,-1.9832267761230469,0.4569796025753021
1761469392553389000,2.44638916015625,-0.8336448669433594,-2.05777645111084,0.37212637066841125
1761469392563345000,2.456344970703125,-0.7912606596946716,-1.927804708480835,0.2786976099014282
1761469392573300200,2.46630029296875,-0.6817454695701599,-1.6483820676803589,-0.002243109978735447
1761469392583255000,2.476255126953125,-0.48723483085632324,-1.335471510887146,-0.49594494700431824
1761469392593209900,2.4862099609375,-0.24800927937030792,-1.1957594156265259,-1.1658517122268677
1761469392603165000,2.4961650390625,-0.024353016167879105,-1.1971253156661987,-1.8182920217514038
1761469392613120000,2.5061201171875,0.16211780905723572,-1.3301122188568115,-2.36618971824646
1761469392623075000,2.516074951171875,0.3506224751472473,-1.5235488414764404,-2.7325844764709473
1761469392633030000,2.52602978515625,0.4887791574001312,-1.8319697380065918,-2.94179105758667
1761469392642985200,2.535985107421875,0.6791102290153503,-1.893903374671936,-2.905928134918213
1761469392652940000,2.54593994140625,0.9456759095191956,-1.8699287176132202,-2.834378957748413
1761469392662894800,2.555894775390625,1.2264084815979004,-1.710780143737793,-2.931689500808716
1761469392672850000,2.565849853515625,1.4033633470535278,-1.6168395280838013,-3.266183614730835
1761469392682805000,2.575804931640625,1.4648845195770264,-1.8710129261016846,-3.6505231857299805
1761469392692760000,2.585760009765625,1.5264484882354736,-2.5993330478668213,-3.9598093032836914
1761469392702715000,2.59571484375,1.6700350046157837,-3.4562623500823975,-4.120640277862549
1761469392712670200,2.605670166015625,1.8757059574127197,-3.9442689418792725,-4.0752482414245605
1761469392722625000,2.615625,2.083559036254883,-3.7501907348632812,-3.757746458053589
1761469392732579800,2.625579833984375,2.584925413131714,-3.2954788208007812,-3.3298604488372803
1761469392742535200,2.63553515625,3.6665947437286377,-3.476893424987793,-3.027040719985962
1761469392752490000,2.645489990234375,5.022541522979736,-4.460721015930176,-2.899486541748047
1761469392762445000,2.655445068359375,5.845555305480957,-5.386127471923828,-3.0423974990844727
1761469392772399900,2.66539990234375,5.688009738922119,-5.299370765686035,-3.680461883544922
1761469392782355000,2.67535498046875,5.033685207366943,-4.658176898956299,-5.157043933868408
1761469392792310000,2.68531005859375,4.209341049194336,-3.779858112335205,-7.106940269470215
1761469392802266000,2.69526611328125,3.396209239959717,-2.742746591567993,-8.540563583374023
1761469392812221000,2.705220947265625,2.8219335079193115,-1.744849681854248,-9.00218677520752
1761469392822176000,2.715176025390625,2.5202252864837646,-1.2408936023712158,-7.799199104309082
1761469392832130800,2.725130859375,2.103741407394409,-0.8603885769844055,-4.931148529052734
1761469392842086100,2.735086181640625,1.1432616710662842,-0.5985944867134094,-1.5968855619430542
1761469392852041000,2.745041015625,-0.10588628798723221,0.23784220218658447,0.9661679267883301
1761469392861996000,2.75499609375,-1.3628123998641968,1.8434045314788818,2.256622076034546
1761469392871951000,2.764951171875,-2.3764162063598633,3.4933371543884277,3.1035385131835938
1761469392881906000,2.774906005859375,-3.0300209522247314,4.490097999572754,4.349138259887695
1761469392891861000,2.784861083984375,-3.4805386066436768,4.900513172149658,5.90561056137085
1761469392901816000,2.794816162109375,-4.061626434326172,4.846136093139648,7.111664772033691
1761469392911771100,2.804771240234375,-4.759853363037109,4.624399185180664,7.740411281585693
1761469392921726000,2.814725830078125,-5.417776107788086,4.595353603363037,7.691628932952881
1761469392931681000,2.824680908203125,-5.817359447479248,4.6392693519592285,7.156930446624756
1761469392941636000,2.834635986328125,-5.9078369140625,4.677968978881836,6.533279895782471
1761469392951591000,2.8445908203125,-5.809469223022461,4.557653427124023,6.1342034339904785
1761469392961546000,2.8545458984375,-5.641407012939453,4.200671195983887,6.01909875869751
1761469392971501000,2.8645009765625,-5.563605308532715,3.650764226913452,6.0933427810668945
1761469392981456100,2.8744560546875,-5.604651927947998,3.0824134349823,6.139372825622559
1761469392991411000,2.884410888671875,-5.702510356903076,2.643016815185547,5.88706636428833
1761469393001366000,2.894365966796875,-5.739772319793701,2.3302555084228516,5.435352325439453
1761469393011321000,2.904321044921875,-5.550970554351807,2.0668599605560303,5.137628555297852
1761469393021276000,2.91427587890625,-5.174684047698975,1.7808101177215576,5.1185808181762695
1761469393031231000,2.92423095703125,-4.730403423309326,1.4874639511108398,4.986284255981445
1761469393041186000,2.93418603515625,-4.234312057495117,1.1265027523040771,4.381540775299072
1761469393051141000,2.94414111328125,-3.6865932941436768,0.7640183568000793,3.445452928543091
1761469393061096000,2.954095947265625,-2.976398229598999,0.5786091089248657,2.3031935691833496
1761469393071052000,2.964052001953125,-2.1653592586517334,0.6328439116477966,1.1518654823303223
1761469393081007000,2.974007080078125,-1.3313243389129639,0.8069214224815369,0.2850979268550873
1761469393090962000,2.9839619140625,-0.5242629647254944,0.7995821237564087,-0.12257511913776398
1761469393100917000,2.9939169921875,0.1588013470172882,0.4531956613063812,-0.011472836136817932
1761469393110871300,3.003871337890625,0.6830203533172607,-0.05937432870268822,0.4489792585372925
1761469393120826400,3.013826416015625,0.967000424861908,-0.6553167700767517,0.9953749775886536
1761469393130781200,3.02378125,1.0793988704681396,-1.19921875,1.4610812664031982
1761469393140736000,3.033736083984375,1.1501641273498535,-1.451323390007019,1.7161500453948975
1761469393150691300,3.04369140625,1.3622353076934814,-1.3907493352890015,1.6523925065994263
1761469393160646100,3.053646240234375,1.7944649457931519,-1.0729055404663086,1.2484391927719116
1761469393170601200,3.063601318359375,2.3731133937835693,-0.6630118489265442,0.5344270467758179
1761469393180556300,3.073556396484375,2.9747602939605713,-0.3530243933200836,-0.3904464542865753
1761469393190511000,3.083510986328125,3.418196201324463,-0.304258793592453,-1.3473525047302246
1761469393200466200,3.093466064453125,3.5652289390563965,-0.6214846968650818,-2.129450559616089
1761469393210421200,3.103421142578125,3.429861545562744,-1.212845802307129,-2.5911693572998047
1761469393220376300,3.113376220703125,3.18741774559021,-1.7843732833862305,-2.728780508041382
1761469393230331100,3.1233310546875,3.081695556640625,-2.1189873218536377,-2.6304283142089844
1761469393240286200,3.1332861328125,3.181976079940796,-2.1776230335235596,-2.441251277923584
1761469393250241300,3.1432412109375,3.3971786499023438,-1.9771913290023804,-2.2647132873535156
1761469393260196000,3.153196044921875,3.6273772716522217,-1.6402546167373657,-2.1628122329711914
1761469393270151200,3.163151123046875,3.7859365940093994,-1.3244988918304443,-2.1546084880828857
1761469393280106200,3.173106201171875,3.860856056213379,-1.0095473527908325,-2.2716927528381348
1761469393290061300,3.183061279296875,3.939911365509033,-0.802485466003418,-2.4783706665039062
1761469393300016000,3.19301611328125,3.937615156173706,-0.7869400978088379,-2.7004430294036865
1761469393309971500,3.202971435546875,3.8636410236358643,-1.027504563331604,-2.8304851055145264
1761469393319927300,3.21292724609375,3.7829694747924805,-1.3162606954574585,-2.8144431114196777
1761469393329882000,3.222882080078125,3.767744541168213,-1.3154799938201904,-2.7069852352142334
1761469393339837400,3.23283740234375,3.867830514907837,-1.0492427349090576,-2.6755547523498535
1761469393349792300,3.242792236328125,3.999999523162842,-0.7167684435844421,-2.789635419845581
1761469393359747000,3.2527470703125,4.110267162322998,-0.4477478861808777,-3.015312433242798
1761469393369702100,3.2627021484375,4.030004978179932,-0.37496325373649597,-3.183511257171631
1761469393379657200,3.2726572265625,3.8425960540771484,-0.6871120929718018,-3.1135149002075195
1761469393389612300,3.2826123046875,3.85487699508667,-1.473914384841919,-2.6946871280670166
1761469393399567000,3.292567138671875,4.069741725921631,-2.5287528038024902,-2.046936273574829
1761469393409522200,3.302522216796875,4.635327339172363,-3.2527596950531006,-1.6778333187103271
1761469393419477200,3.312477294921875,5.446060657501221,-3.0298478603363037,-2.098609209060669
1761469393429432000,3.32243212890625,6.183036804199219,-2.10308837890625,-3.4763617515563965
1761469393439387400,3.332387451171875,6.511002540588379,-1.440848708152771,-5.1989312171936035
1761469393449342200,3.34234228515625,6.416293621063232,-1.7299563884735107,-6.3384108543396
1761469393459297300,3.35229736328125,5.760218620300293,-2.2707817554473877,-6.441781044006348
1761469393469252000,3.362252197265625,4.668446063995361,-2.236172676086426,-5.840490818023682
1761469393479207200,3.372207275390625,3.5183749198913574,-1.3078415393829346,-5.051788330078125
1761469393489162200,3.382162353515625,2.621278762817383,-0.6751981973648071,-4.291250705718994
1761469393499117000,3.392116943359375,2.106135606765747,-0.6658169627189636,-3.4175097942352295
1761469393509072400,3.402072265625,1.6915943622589111,-0.44634559750556946,-2.153479814529419
1761469393519027200,3.412027099609375,1.012739658355713,0.20346784591674805,-0.4943281412124634
1761469393528982300,3.421982177734375,0.13619910180568695,0.9875991344451904,1.008262276649475
1761469393538937300,3.431937255859375,-0.5513944625854492,1.9518890380859375,2.1809446811676025
1761469393548892200,3.44189208984375,-1.0194969177246094,2.750460147857666,3.002527952194214
1761469393558847200,3.45184716796875,-1.426745057106018,2.9916481971740723,3.79433536529541
1761469393568802000,3.461802001953125,-1.9248172044754028,2.6153907775878906,4.495133399963379
1761469393578757400,3.47175732421875,-2.584325075149536,1.7349318265914917,4.910678863525391
1761469393588712200,3.481712158203125,-3.37600040435791,0.8688117265701294,4.5872368812561035
1761469393598667300,3.491667236328125,-4.006897926330566,0.5984596014022827,3.365135908126831
1761469393608622300,3.501622314453125,-4.508501052856445,0.6915090084075928,1.7705525159835815
1761469393618577200,3.5115771484375,-4.975735664367676,0.8497223258018494,0.4716506004333496
1761469393628532200,3.5215322265625,-5.3355607986450195,0.8914720416069031,-0.2218451350927353
1761469393638488300,3.53148828125,-5.581425189971924,0.7317950129508972,-0.14382784068584442
1761469393648443100,3.541443115234375,-5.798767566680908,0.4211842119693756,0.7930935025215149
1761469393658398200,3.551398193359375,-5.918250560760498,0.09151442348957062,2.19698166847229
1761469393668353300,3.561353271484375,-5.917718887329102,-0.2916741967201233,3.486973762512207
1761469393678308400,3.571308349609375,-6.055245399475098,-0.7313093543052673,4.228605270385742
1761469393688263200,3.58126318359375,-6.290745735168457,-0.9044234752655029,4.055629730224609
1761469393698218000,3.591218017578125,-6.520357608795166,-0.3638675808906555,3.4292023181915283
1761469393708173300,3.60117333984375,-6.564122676849365,0.8320952653884888,2.648473024368286
1761469393718128000,3.611128173828125,-6.366787910461426,2.0961523056030273,1.8276755809783936
1761469393728083200,3.621083251953125,-5.5678277015686035,2.8322508335113525,1.4322060346603394
1761469393738038300,3.631038330078125,-3.9829416275024414,2.458073616027832,1.5043199062347412
1761469393747993300,3.640993408203125,-1.8254138231277466,1.1230639219284058,1.78762686252594
1761469393757948200,3.6509482421875,0.42887434363365173,-0.38929495215415955,2.1184136867523193
1761469393767903200,3.6609033203125,2.352952480316162,-1.3541336059570312,2.3082096576690674
1761469393777858300,3.6708583984375,3.709782600402832,-1.7459732294082642,2.2588448524475098
1761469393787813000,3.680813232421875,4.58060884475708,-1.7521909475326538,1.9649277925491333
1761469393797768200,3.690768310546875,5.127834796905518,-1.4767529964447021,1.3973464965820312
1761469393807723300,3.70072314453125,5.409195423126221,-0.9162116646766663,0.5833367705345154
1761469393817678300,3.71067822265625,5.411293029785156,-0.3301548659801483,-0.38586631417274475
1761469393827633200,3.720633056640625,5.140531539916992,0.1984875649213791,-1.2375849485397339
1761469393837588200,3.730588134765625,4.732543468475342,0.6713903546333313,-1.740349531173706
1761469393847543300,3.740543212890625,4.398171901702881,1.0271656513214111,-1.8752859830856323
1761469393857498000,3.750498046875,4.289270401000977,0.9761499166488647,-1.685068130493164
1761469393867453400,3.760453369140625,4.397068500518799,0.39341235160827637,-1.2054493427276611
1761469393877408300,3.770408203125,4.5584716796875,-0.4510400891304016,-0.5576295256614685
1761469393887363000,3.780363037109375,4.541528224945068,-1.0817041397094727,0.07908321171998978
1761469393897319400,3.7903193359375,4.276224613189697,-1.1697202920913696,0.4192703366279602
1761469393907274200,3.800274169921875,3.820241689682007,-0.7793174982070923,0.3300434350967407
1761469393917229000,3.81022900390625,3.3247456550598145,-0.27275392413139343,-0.07981277257204056
1761469393927184100,3.82018408203125,2.8638503551483154,0.061662185937166214,-0.632603645324707
1761469393937139200,3.83013916015625,2.5172743797302246,0.1551567167043686,-1.2717013359069824
1761469393947094300,3.84009423828125,2.266164779663086,0.10793895274400711,-1.9482859373092651
1761469393957049000,3.850049072265625,2.0119388103485107,0.14494970440864563,-2.5329315662384033
1761469393967004400,3.86000439453125,1.7275855541229248,0.4169047772884369,-2.902026891708374
1761469393976959200,3.869959228515625,1.4046306610107422,0.7181367874145508,-2.8540756702423096
1761469393986914000,3.8799140625,1.210383415222168,0.6490124464035034,-2.0613961219787598
1761469393996869400,3.889869384765625,1.2639497518539429,0.029087139293551445,-0.5281168222427368
1761469394006824200,3.89982421875,1.7298835515975952,-1.1602749824523926,1.2350273132324219
1761469394016779300,3.909779296875,3.1630561351776123,-2.4945154190063477,2.474104881286621
1761469394026734000,3.919734130859375,5.777303695678711,-2.75331974029541,2.484890937805176
1761469394036689400,3.929689453125,8.40595817565918,-1.7675725221633911,0.7506120204925537
1761469394046644200,3.939644287109375,8.767881393432617,-0.3715539574623108,-1.454874873161316
1761469394056599000,3.94959912109375,6.594645023345947,0.2900240123271942,-2.9176597595214844
1761469394066554400,3.959554443359375,3.4094254970550537,0.5485077500343323,-3.6869852542877197
1761469394076509200,3.96950927734375,-0.08632663637399673,0.46754175424575806,-3.7087364196777344
1761469394086464300,3.97946435546875,-2.3401455879211426,0.7337452173233032,-3.0062026977539062
1761469394096419300,3.98941943359375,-3.404163122177124,1.0214478969573975,-1.4574673175811768
1761469394106374100,3.9993740234375,-3.686587333679199,0.6778308749198914,0.7458814382553101
1761469394118195200,4.0111953125,-3.268704652786255,-0.05535854399204254,2.958242416381836
1761469394128150500,4.021150634765625,-2.852238178253174,-0.4587605893611908,3.9097938537597656
1761469394138105300,4.031105224609375,-3.1848816871643066,-0.8070200681686401,4.077888011932373
1761469394148060400,4.041060302734375,-4.092188358306885,-1.2086353302001953,3.701568126678467
1761469394158015200,4.05101513671875,-4.846043586730957,-1.470525860786438,2.8789727687835693
1761469394167970300,4.06097021484375,-5.206038475036621,-1.4520456790924072,1.6998291015625
1761469394177925400,4.07092529296875,-5.288390159606934,-1.0076876878738403,0.4684325158596039
1761469394187880200,4.080880126953125,-5.257820129394531,-0.14633961021900177,-0.41011661291122437
1761469394197835500,4.09083544921875,-5.215099334716797,0.7459650039672852,-0.6017382144927979
1761469394207790300,4.100790283203125,-5.232343673706055,0.9871198534965515,0.23003622889518738
1761469394217746200,4.11074609375,-5.142302513122559,0.8734666705131531,1.8849406242370605
1761469394227701500,4.120701416015625,-4.780919551849365,0.7742511034011841,3.4646060466766357
1761469394237656300,4.13065625,-4.305996894836426,0.7758451700210571,4.442739963531494
1761469394247611400,4.140611328125,-3.7384729385375977,0.7465205788612366,4.616083145141602
1761469394257566500,4.15056640625,-3.036500930786133,0.6339871287345886,3.882627487182617
1761469394267521300,4.160521240234375,-2.162592649459839,0.5234856605529785,2.337984800338745
1761469394277476400,4.170476318359375,-1.075096845626831,0.6011426448822021,0.4727138876914978
1761469394287431200,4.18043115234375,0.014682946726679802,0.6546810269355774,-1.2454509735107422
1761469394297386500,4.190386474609375,0.7516252398490906,0.532534122467041,-2.4050981998443604
1761469394307341300,4.20034130859375,0.9442276954650879,0.31863805651664734,-2.7879037857055664
1761469394317296400,4.21029638671875,0.7731049060821533,0.1049795001745224,-2.5480775833129883
1761469394327251500,4.22025146484375,0.4280433654785156,-0.058716487139463425,-1.9017969369888306
1761469394337206300,4.230206298828125,0.11793301999568939,-0.20835094153881073,-1.0447877645492554
1761469394347161300,4.240161376953125,-0.000010659161489456892,-0.4092235863208771,-0.1550501585006714
1761469394357116400,4.250116455078125,0.11381444334983826,-0.6469585299491882,0.5948197841644287
1761469394367071500,4.260071533203125,0.42930635809898376,-0.7989903688430786,1.0990608930587769
1761469394377026300,4.2700263671875,0.9107469916343689,-0.8066696524620056,1.337477445602417
1761469394386981400,4.2799814453125,1.5116523504257202,-0.7866873741149902,1.2303494215011597
1761469394396936400,4.2899365234375,2.107431650161743,-0.7220677137374878,0.7201250791549683
1761469394406891300,4.299891357421875,2.640826463699341,-0.47263583540916443,-0.11049167066812515
1761469394416846300,4.309846435546875,3.0845651626586914,-0.1564180701971054,-1.0618335008621216
1761469394426801400,4.319801513671875,3.279675006866455,0.10619304329156876,-1.9056185483932495
1761469394436756500,4.329756591796875,3.140890121459961,0.21198494732379913,-2.4990267753601074
1761469394446711300,4.339711181640625,2.7686374187469482,0.13351304829120636,-2.7836062908172607
1761469394457290500,4.35029052734375,2.2133257389068604,-0.14557133615016937,-2.6900734901428223
1761469394467245300,4.360245361328125,1.6353200674057007,-0.4401867389678955,-2.194575309753418
1761469394477200400,4.370200439453125,1.1198322772979736,-0.5807768702507019,-1.385905146598816
1761469394487155500,4.380155517578125,0.778763473033905,-0.5793902277946472,-0.4238685071468353
1761469394497110300,4.3901103515625,0.6990678310394287,-0.5397288203239441,0.32290130853652954
1761469394507065300,4.4000654296875,0.8370567560195923,-0.48025834560394287,0.6604611277580261
1761469394517020200,4.410020263671875,1.1094893217086792,-0.28504571318626404,0.6002821922302246
1761469394526975500,4.4199755859375,1.427634596824646,-0.11369764804840088,0.21754154562950134
1761469394536930300,4.429930419921875,1.707520842552185,-0.13523250818252563,-0.3295350968837738
1761469394546885400,4.439885498046875,1.8989019393920898,-0.3737086057662964,-0.9272373914718628
1761469394556840400,4.44984033203125,1.9614046812057495,-0.7229422926902771,-1.4254682064056396
1761469394566795300,4.459795166015625,1.8728100061416626,-0.9772239923477173,-1.7533197402954102
1761469394576750300,4.469750244140625,1.7176231145858765,-1.076765537261963,-1.900298833847046
1761469394586705400,4.479705322265625,1.605962872505188,-1.1395277976989746,-1.7253668308258057
1761469394596660500,4.489660400390625,1.5355688333511353,-1.125091314315796,-1.0904492139816284
1761469394606615300,4.499615234375,1.5872169733047485,-1.1214085817337036,-0.12568287551403046
1761469394616570000,4.509570068359375,1.892033576965332,-1.8554726839065552,0.9456315040588379
1761469394626525400,4.519525390625,2.6740658283233643,-2.936950445175171,1.6736831665039062
1761469394636480300,4.529480224609375,4.329677581787109,-3.406646251678467,1.2389072179794312
1761469394646435300,4.539435302734375,6.545838356018066,-3.1414778232574463,-0.35231316089630127
1761469394656390400,4.549390380859375,7.403656959533691,-2.1490883827209473,-2.320397138595581
1761469394666345500,4.559345458984375,6.2788987159729,-1.0667757987976074,-4.119114875793457
1761469394676300300,4.56930029296875,3.8912649154663086,-0.47885558009147644,-5.311349391937256
1761469394686255400,4.57925537109375,1.1060618162155151,0.031515900045633316,-5.147348880767822
1761469394696210400,4.58921044921875,-0.9624824523925781,0.23217789828777313,-3.5037174224853516
1761469394706165200,4.599165283203125,-2.13834810256958,-0.14193056523799896,-0.595055103302002
1761469394716120300,4.609120361328125,-2.3606765270233154,-1.0648781061172485,2.2792181968688965
1761469394726075400,4.619075439453125,-2.0088398456573486,-1.8741127252578735,3.7882790565490723
1761469394736031200,4.62903125,-1.8003346920013428,-2.0638296604156494,3.789869785308838
1761469394745986600,4.638986572265625,-2.2423269748687744,-2.049818992614746,3.092294216156006
1761469394755941400,4.64894140625,-2.990823984146118,-2.2559854984283447,2.3404526710510254
1761469394765896400,4.658896484375,-3.706261396408081,-2.568504810333252,1.9352872371673584
1761469394775851300,4.668851318359375,-4.308967590332031,-2.6543867588043213,1.7620941400527954
1761469394785806300,4.678806396484375,-4.850139141082764,-2.5658645629882812,1.531758189201355
1761469394795761400,4.688761474609375,-5.419577121734619,-2.230320453643799,1.0318514108657837
1761469394805716200,4.69871630859375,-6.090564727783203,-1.5428259372711182,0.2675616443157196
1761469394815671600,4.708671630859375,-6.7618231773376465,-0.8413438200950623,-0.2031228095293045
1761469394825626400,4.71862646484375,-7.2226996421813965,-0.14932553470134735,-0.09013564139604568
1761469394835581200,4.728581298828125,-7.366714000701904,0.527414858341217,0.5086427927017212
1761469394845536300,4.738536376953125,-7.2415008544921875,0.9193710684776306,1.189785361289978
1761469394855491300,4.7484912109375,-7.186139106750488,1.1026849746704102,1.1720327138900757
1761469394865446400,4.7584462890625,-7.065237998962402,1.6547735929489136,0.43979722261428833
1761469394875401200,4.768401123046875,-6.741668224334717,1.9191713333129883,-0.48682892322540283
1761469394885356500,4.7783564453125,-5.9877777099609375,2.0444891452789307,-1.035796046257019
1761469394895311400,4.788311279296875,-4.836125373840332,2.1908912658691406,-1.11954665184021
1761469394905266200,4.79826611328125,-3.7295496463775635,2.1972968578338623,-0.8701835870742798
1761469394915221500,4.808221435546875,-2.8187954425811768,2.0869140625,-0.4019847512245178
1761469394925176300,4.81817626953125,-2.0838475227355957,1.8801312446594238,0.08126570284366608
1761469394935131400,4.82813134765625,-1.5102659463882446,1.6703952550888062,0.4469984173774719
1761469394945086200,4.838086181640625,-1.0043774843215942,1.4543201923370361,0.629713237285614
1761469394955041500,4.84804150390625,-0.509226381778717,1.1287949085235596,0.6227956414222717
1761469394964996400,4.857996337890625,-0.0006569038378074765,0.7495736479759216,0.44784629344940186
1761469394974951200,4.867951171875,0.5427131652832031,0.4494127035140991,0.05071410909295082
1761469394984906500,4.877906494140625,1.1538175344467163,0.354074090719223,-0.5924199819564819
1761469394994862300,4.8878623046875,1.8082233667373657,0.5938294529914856,-1.3963353633880615
1761469395004817200,4.897817138671875,2.4151015281677246,0.9654470086097717,-2.177792549133301
1761469395014772500,4.9077724609375,2.912371873855591,1.2608754634857178,-2.7924602031707764
1761469395024727300,4.917727294921875,3.248948097229004,1.3485318422317505,-3.156261920928955
1761469395034682400,4.927682373046875,3.331177234649658,1.1307339668273926,-3.1713151931762695
1761469395044637400,4.937637451171875,3.153261184692383,0.6930106282234192,-2.849672794342041
1761469395054592300,4.94759228515625,2.8224973678588867,0.18841053545475006,-2.314373731613159
1761469395064547300,4.95754736328125,2.3803060054779053,-0.17423400282859802,-1.691983699798584
1761469395074502100,4.967502197265625,2.017197370529175,-0.24903526902198792,-1.1021808385849
1761469395084457500,4.97745751953125,1.8894597291946411,0.013281858526170254,-0.6620818972587585
1761469395094412300,4.987412353515625,2.0121662616729736,0.4381742775440216,-0.44561222195625305
1761469395104367400,4.997367431640625,2.3524351119995117,0.7049109935760498,-0.42579028010368347
1761469395114323000,5.007322998046875,2.7349846363067627,0.5960044860839844,-0.6195006370544434
1761469395124278000,5.017278076171875,3.0325891971588135,0.2541346251964569,-1.0126901865005493
1761469395134233000,5.027233154296875,3.229044198989868,-0.17272694408893585,-1.580047369003296
1761469395144188000,5.03718798828125,3.2734720706939697,-0.5136790871620178,-2.1882646083831787
1761469395154143000,5.04714306640625,3.2315704822540283,-0.5483795404434204,-2.6098155975341797
1761469395164098000,5.05709814453125,3.2045512199401855,-0.18890061974525452,-2.689716339111328
1761469395174052900,5.067052978515625,3.170395851135254,0.2936582863330841,-2.4547972679138184
1761469395184008000,5.077008056640625,3.131563663482666,0.532239556312561,-2.0692646503448486
1761469395193963000,5.086962890625,3.069209098815918,0.320734441280365,-1.6720718145370483
1761469395203918000,5.09691796875,2.8435847759246826,-0.44728347659111023,-1.0127471685409546
1761469395213873000,5.106872802734375,2.7314746379852295,-1.3858864307403564,0.13032904267311096
1761469395223828000,5.116827880859375,3.3270671367645264,-2.1070332527160645,1.0165331363677979
1761469395233783000,5.126782958984375,4.927218914031982,-2.3597164154052734,0.781825840473175
1761469395243737900,5.13673779296875,6.687549591064453,-2.182863473892212,-0.731855571269989
1761469395253693000,5.14669287109375,7.058406352996826,-1.5550110340118408,-2.6277084350585938
1761469395263649000,5.15664892578125,5.810636043548584,-0.9282247424125671,-4.08401346206665
1761469395273603800,5.166603759765625,3.431194543838501,-0.2982955873012543,-5.012604713439941
1761469395283559200,5.17655908203125,0.42277824878692627,0.43737784028053284,-5.166548728942871
1761469395293514000,5.186513916015625,-2.207162857055664,1.194358229637146,-4.1288909912109375
1761469395303469000,5.196468994140625,-3.762803792953491,1.5958150625228882,-1.8179887533187866
1761469395313424000,5.206423828125,-3.9288408756256104,1.4095364809036255,1.0932894945144653
1761469395323379000,5.21637890625,-3.2358973026275635,1.2516018152236938,3.26375675201416
1761469395333334000,5.226333984375,-2.5766313076019287,1.4723056554794312,4.306643962860107
1761469395343288800,5.236288818359375,-2.4689369201660156,1.7084860801696777,4.558980941772461
1761469395353244200,5.246244140625,-2.957947254180908,1.7340642213821411,4.345914363861084
1761469395363199000,5.256198974609375,-3.6856932640075684,1.723955512046814,3.788222551345825
1761469395373154000,5.266154052734375,-4.191244602203369,1.802171230316162,3.0456366539001465
1761469395383108900,5.27610888671875,-4.310864448547363,1.827986717224121,2.2561542987823486
1761469395393064000,5.28606396484375,-4.388741970062256,1.8005772829055786,1.6084260940551758
1761469395403019000,5.29601904296875,-4.548588752746582,1.8614526987075806,1.3274602890014648
1761469395412973800,5.305973876953125,-4.692121982574463,2.067758321762085,1.5541908740997314
1761469395422929200,5.31592919921875,-4.712760925292969,2.2529091835021973,2.3586301803588867
1761469395432884000,5.325884033203125,-4.52437162399292,2.185283899307251,3.4108171463012695
1761469395442838800,5.3358388671875,-4.232819557189941,2.030503749847412,4.17774772644043
1761469395452794000,5.345794189453125,-3.978470802307129,1.9284873008728027,4.4694366455078125
1761469395462749000,5.3557490234375,-3.6788792610168457,1.7810405492782593,4.206906318664551
1761469395472704000,5.3657041015625,-3.3387200832366943,1.5334209203720093,3.52661395072937
1761469395482658800,5.375658935546875,-2.985741138458252,1.3130333423614502,2.59647274017334
1761469395492614100,5.3856142578125,-2.6529128551483154,1.1652278900146484,1.5015747547149658
1761469395502569000,5.39556884765625,-2.3824172019958496,1.0715824365615845,0.46253785490989685
1761469395512523800,5.405523681640625,-2.2084386348724365,1.0580307245254517,-0.2090461403131485
1761469395522479000,5.41547900390625,-1.9650237560272217,1.0074480772018433,-0.4436131715774536
1761469395532434000,5.425433837890625,-1.5581798553466797,0.7996362447738647,-0.24186086654663086
1761469395542389800,5.4353896484375,-0.9404484629631042,0.41701599955558777,0.33156609535217285
1761469395552345000,5.445344970703125,0.009811079129576683,-0.1137906089425087,0.916056752204895
1761469395562300000,5.4552998046875,1.2849282026290894,-0.5525198578834534,1.034675121307373
1761469395572255000,5.4652548828125,2.6314711570739746,-0.6729841828346252,0.552159309387207
1761469395582210000,5.4752099609375,3.780839204788208,-0.5222787261009216,-0.35546091198921204
1761469395592165000,5.4851650390625,4.574365139007568,-0.306615948677063,-1.3917335271835327
1761469395602120000,5.495119873046875,4.911822319030762,-0.1694810390472412,-2.3175716400146484
1761469395612074800,5.50507470703125,4.711019039154053,-0.10840357095003128,-2.874459981918335
1761469395622030000,5.515030029296875,4.0725998878479,-0.21404960751533508,-2.977125644683838
1761469395631985000,5.52498486328125,3.1323859691619873,-0.24282293021678925,-2.6291539669036865
1761469395641940000,5.53493994140625,2.1977038383483887,-0.10506225377321243,-1.966853141784668
1761469395651895000,5.54489501953125,1.5174624919891357,-0.01790311187505722,-1.2633360624313354
1761469395661849900,5.554849853515625,1.269524097442627,-0.08172863721847534,-0.7174469828605652
1761469395671805000,5.564804931640625,1.5071600675582886,-0.151838481426239,-0.32024288177490234
1761469395681760000,5.574760009765625,1.992836594581604,-0.22570866346359253,-0.1541360467672348
1761469395691715000,5.584715087890625,2.4205079078674316,-0.35804301500320435,-0.26909753680229187
1761469395701670000,5.594669921875,2.76446533203125,-0.4775448143482208,-0.5356131196022034
1761469395711625000,5.604625,2.946162700653076,-0.45715537667274475,-0.7705545425415039
1761469395721580000,5.614580078125,2.888848304748535,-0.3736252784729004,-0.9480742812156677
1761469395731534800,5.624534912109375,2.580050230026245,-0.3242665231227875,-1.1095489263534546
1761469395741490000,5.634489990234375,2.128767490386963,-0.2707214951515198,-1.336843490600586
1761469395751445000,5.644445068359375,1.706760048866272,-0.1466730386018753,-1.6452971696853638
1761469395761400000,5.654400146484375,1.438212275505066,0.049040328711271286,-1.851643681526184
1761469395771355000,5.66435498046875,1.3521453142166138,0.18712496757507324,-1.8158457279205322
1761469395781310200,5.674310302734375,1.4679803848266602,0.27067244052886963,-1.4724105596542358
1761469395791265000,5.68426513671875,1.7248376607894897,0.16687709093093872,-0.8109127283096313
1761469395801219800,5.6942197265625,1.9784071445465088,-0.28641754388809204,-0.00831831619143486
1761469395811175000,5.7041748046875,2.326801300048828,-0.9945451021194458,0.6171692609786987
1761469395821130000,5.7141298828125,2.906834125518799,-1.5776945352554321,0.6753057241439819
1761469395831085800,5.7240859375,3.7791028022766113,-1.5305936336517334,-0.18300311267375946
1761469395841041200,5.734041259765625,4.428168773651123,-0.9520996809005737,-1.717100739479065
1761469395850996000,5.743995849609375,4.102932929992676,-0.29525578022003174,-3.156032085418701
1761469395860951000,5.753950927734375,2.661754846572876,0.3898187577724457,-3.9644339084625244
1761469395870905900,5.76390576171875,0.6952375769615173,0.903650164604187,-4.137687683105469
1761469395880861000,5.77386083984375,-1.212730884552002,1.2112566232681274,-3.7068283557891846
1761469395890816000,5.78381591796875,-2.4925239086151123,1.5794050693511963,-2.6823537349700928
1761469395900770800,5.793770751953125,-2.839369773864746,1.656265139579773,-1.1465846300125122
1761469395910726100,5.80372607421875,-2.4761226177215576,1.479626178741455,0.3987252414226532
1761469395920681000,5.813680908203125,-2.1294798851013184,1.4179822206497192,1.3576737642288208
1761469395930636000,5.823635986328125,-2.1530914306640625,1.5437558889389038,1.5326703786849976
1761469395940590800,5.8335908203125,-2.4376602172851562,1.9813697338104248,1.0729910135269165
1761469395950546000,5.8435458984375,-2.825446128845215,2.653959035873413,0.2737187445163727
1761469395960501000,5.8535009765625,-3.1367671489715576,3.3308842182159424,-0.40893423557281494
1761469395970455800,5.863455810546875,-3.299326181411743,3.6993296146392822,-0.660056471824646
1761469395980411100,5.8734111328125,-3.4356632232666016,3.730693817138672,-0.3412518799304962
1761469395990366000,5.883365966796875,-3.4798333644866943,3.7291088104248047,0.3521612286567688
1761469396000321000,5.893321044921875,-3.3217737674713135,3.740994930267334,1.2299622297286987
1761469396010276000,5.903276123046875,-3.1106531620025635,3.598048210144043,2.2211198806762695
1761469396020231000,5.91323095703125,-2.8623085021972656,3.265526294708252,2.958557605743408
1761469396030186000,5.92318603515625,-2.6858365535736084,2.8606958389282227,3.146714687347412
1761469396040140800,5.933140869140625,-2.527601957321167,2.768127202987671,2.8239431381225586
1761469396050096000,5.94309619140625,-2.3654251098632812,2.97021484375,2.2048258781433105
1761469396060051000,5.953051025390625,-2.318005323410034,3.1407926082611084,1.631120204925537
1761469396070006000,5.963006103515625,-2.3593099117279053,3.117241144180298,1.387627363204956
1761469396079961000,5.972961181640625,-2.4222869873046875,2.9775643348693848,1.4494701623916626
1761469396089916000,5.982916015625,-2.4397757053375244,2.7361416816711426,1.708914041519165
1761469396099871000,5.99287109375,-2.4592247009277344,2.2656948566436768,1.940941333770752
1761469396109825800,6.00282568359375,-2.455866575241089,1.682433843612671,1.9730877876281738
1761469396119780900,6.01278076171875,-2.421675682067871,1.3022606372833252,1.7717385292053223
1761469396129736000,6.02273583984375,-2.282266139984131,1.1429146528244019,1.4866132736206055
1761469396139690800,6.032690673828125,-1.878724217414856,1.1193097829818726,1.2104572057724
1761469396149646800,6.042646728515625,-1.3608053922653198,1.0919090509414673,0.9754172563552856
1761469396159602000,6.052601806640625,-0.6995974183082581,0.8108581304550171,0.7641035914421082
1761469396169556700,6.062556640625,0.12478164583444595,0.4069146513938904,0.4567074477672577
1761469396179511800,6.07251171875,0.9807977676391602,0.010879487730562687,0.0659596398472786
1761469396189467000,6.082466796875,1.8161171674728394,-0.3295491933822632,-0.3418305218219757
1761469396199422000,6.092421875,2.454038143157959,-0.5476040244102478,-0.7065880298614502
1761469396209376800,6.102376708984375,2.780768871307373,-0.5806437730789185,-0.9427915215492249
1761469396219331800,6.112331787109375,2.813541889190674,-0.6572425961494446,-1.0625115633010864
1761469396229287000,6.122286865234375,2.611130475997925,-0.8805957436561584,-1.0076583623886108
1761469396239241700,6.13224169921875,2.298776865005493,-1.1226162910461426,-0.8168454766273499
1761469396249196800,6.14219677734375,2.0453813076019287,-1.250626802444458,-0.5447873473167419
1761469396259152000,6.15215185546875,1.9108457565307617,-1.210233211517334,-0.2617238461971283
1761469396269107000,6.16210693359375,1.8110640048980713,-1.0249632596969604,-0.030263453722000122
1761469396279061800,6.172061767578125,1.7566492557525635,-0.755993664264679,0.08764321357011795
1761469396289017000,6.18201708984375,1.831079363822937,-0.43652835488319397,0.10024076700210571
1761469396298972000,6.191971923828125,2.0286431312561035,-0.19185079634189606,0.0010150354355573654
1761469396308926700,6.2019267578125,2.2729172706604004,-0.3102317452430725,-0.19683866202831268
1761469396318881800,6.2118818359375,2.480217695236206,-0.9227772951126099,-0.38007238507270813
1761469396328836900,6.2218369140625,2.5898854732513428,-1.6873871088027954,-0.4814296066761017
1761469396338792000,6.2317919921875,2.634613275527954,-2.005974054336548,-0.6743882894515991
1761469396348746800,6.241746826171875,2.659396171569824,-1.9054151773452759,-1.1135128736495972
1761469396358701800,6.251701904296875,2.687776803970337,-1.3507001399993896,-1.6649540662765503
1761469396368657000,6.261656982421875,2.821624279022217,-0.6720343232154846,-2.140998601913452
1761469396378611700,6.27161181640625,3.0024609565734863,-0.0595962218940258,-2.471071243286133
1761469396388566800,6.28156689453125,3.0413360595703125,0.2474910020828247,-2.5042006969451904
1761469396398521900,6.29152197265625,3.1273274421691895,0.053694650530815125,-2.2537219524383545
1761469396408477000,6.301476806640625,3.526055335998535,-0.5981686115264893,-1.8886572122573853
1761469396418431700,6.311431640625,4.124004364013672,-1.283937692642212,-1.6263649463653564
1761469396428386800,6.32138671875,4.83539342880249,-1.8825627565383911,-1.7605355978012085
1761469396438342000,6.331341796875,5.46004581451416,-2.368764638900757,-2.234011650085449
1761469396448297700,6.341297607421875,5.0392351150512695,-1.6947051286697388,-3.0788495540618896
1761469396458252800,6.351252685546875,3.19497013092041,-0.148844912648201,-4.12072229385376
1761469396468207900,6.361207763671875,1.0918395519256592,1.2119324207305908,-5.014626502990723
1761469396478162700,6.37116259765625,-0.4439724385738373,1.7784326076507568,-5.522383689880371
1761469396488118000,6.381117919921875,-1.2679626941680908,1.9304133653640747,-5.58605432510376
1761469396498072800,6.39107275390625,-1.7258461713790894,2.3804779052734375,-4.811555862426758
1761469396508028000,6.40102783203125,-1.9824836254119873,2.6549179553985596,-3.1714110374450684
1761469396517983000,6.41098291015625,-2.1038033962249756,2.361396551132202,-1.18123459815979
1761469396527937800,6.420937744140625,-2.165747880935669,2.130445718765259,0.33040571212768555
1761469396537892900,6.430892822265625,-2.352860689163208,2.422715425491333,1.2360070943832397
1761469396547847700,6.44084765625,-2.4721009731292725,2.5515058040618896,1.6678907871246338
1761469396557803000,6.450802978515625,-2.4475440979003906,2.4620795249938965,1.9287378787994385
1761469396567757800,6.4607578125,-2.3247103691101074,2.3795974254608154,1.9919085502624512
1761469396577713000,6.470712890625,-2.071092128753662,2.646466016769409,1.8359644412994385
1761469396587668000,6.48066796875,-1.967775821685791,3.101485252380371,1.7952440977096558
1761469396597622800,6.490622802734375,-2.1326682567596436,3.3478617668151855,2.032158851623535
1761469396607577900,6.500577880859375,-2.3855409622192383,3.503303289413452,2.1962757110595703
1761469396617532700,6.51053271484375,-2.4505906105041504,3.480574131011963,2.5140469074249268
1761469396627488000,6.520488037109375,-2.2665274143218994,2.8249619007110596,2.7483654022216797
1761469396637442800,6.53044287109375,-1.808294653892517,2.048509359359741,2.738801956176758
1761469396647397600,6.540397705078125,-1.3924542665481567,1.3121367692947388,2.452411413192749
1761469396657353000,6.55035302734375,-1.0997616052627563,0.8000970482826233,2.0123884677886963
1761469396667307800,6.560307861328125,-0.9242988228797913,0.738476037979126,1.4872822761535645
1761469396677262800,6.570262939453125,-0.7281249165534973,0.9314203858375549,0.9683879613876343
1761469396687218000,6.580218017578125,-0.49057814478874207,1.1312332153320312,0.48244810104370117
1761469396697173000,6.590173095703125,-0.39431193470954895,1.0790456533432007,0.15379217267036438
1761469396707127800,6.6001279296875,-0.523606538772583,0.7433038949966431,0.011666984297335148
1761469396717082600,6.61008251953125,-0.8713733553886414,0.25939473509788513,-0.025865696370601654
1761469396727038000,6.620037841796875,-1.4586639404296875,-0.1886666715145111,-0.14016643166542053
1761469396736992800,6.62999267578125,-1.7388554811477661,-0.6714788675308228,-0.2759145200252533
1761469396746947800,6.63994775390625,-1.8374093770980835,-0.7579956650733948,-0.5542090535163879
1761469396756903000,6.64990283203125,-1.788169026374817,-0.7460829019546509,-0.9209386706352234
1761469396766858000,6.65985791015625,-2.081902027130127,-0.029312001541256905,-1.8514187335968018
1761469396776812800,6.669812744140625,-2.0460000038146973,0.5639820694923401,-2.1624560356140137
1761469396786769000,6.679768798828125,-1.5235357284545898,-0.05380631610751152,-2.3559281826019287
1761469396796724000,6.689723876953125,-1.0361906290054321,-0.7285191416740417,-2.3623032569885254
1761469396806678800,6.6996787109375,-0.585516095161438,-1.1429831981658936,-2.079101085662842
1761469396816633900,6.7096337890625,-0.21945267915725708,-0.9688470363616943,-1.5180429220199585
1761469396826589000,6.7195888671875,-0.08802488446235657,-0.7398748397827148,-1.0391548871994019
1761469396836543700,6.729543701171875,-0.0808839499950409,-0.7664749622344971,-0.7722777724266052
1761469396846498800,6.739498779296875,0.16607975959777832,-0.8971847891807556,-0.8633565902709961
1761469396856454000,6.749453857421875,0.36304017901420593,-0.7211393713951111,-1.0836284160614014
1761469396866408700,6.75940869140625,0.4629569351673126,-0.2858467102050781,-1.359877586364746
1761469396876363800,6.76936376953125,0.5333198308944702,0.1883029043674469,-1.7438015937805176
1761469396886318800,6.77931884765625,0.5341253876686096,0.4452401399612427,-1.9986968040466309
1761469396896274000,6.78927392578125,0.4828725755214691,0.5012425780296326,-2.046497344970703
1761469396906228700,6.799228759765625,0.3272249400615692,0.3065846860408783,-1.9160264730453491
1761469396916184000,6.80918408203125,0.16446928679943085,-0.08460118621587753,-1.6524971723556519
1761469396926139000,6.819138916015625,0.10382433235645294,-0.5218717455863953,-1.3755112886428833
1761469396936093700,6.82909375,0.20236873626708984,-0.9732359647750854,-1.0451512336730957
1761469396946048800,6.839048828125,0.3559569716453552,-1.255191683769226,-0.6024824976921082
1761469396956003800,6.84900390625,0.4775255620479584,-1.3687610626220703,-0.14163053035736084
1761469396965959000,6.858958984375,0.5323699712753296,-0.8620336651802063,0.3994707763195038
1761469396975913700,6.868913818359375,0.4748615622520447,-0.11199906468391418,0.7509469389915466
1761469396985869000,6.878869140625,0.31461888551712036,0.3915565013885498,0.8982250690460205
1761469396995823900,6.888823974609375,0.3015485405921936,0.2629600167274475,0.6809852123260498
1761469397005778700,6.89877880859375,0.47314053773880005,-0.24063122272491455,0.10569049417972565
1761469397015734000,6.908734130859375,0.5181853175163269,-0.6553129553794861,-0.699273943901062
1761469397025688800,6.918688720703125,0.42111602425575256,-0.28747206926345825,-1.2758337259292603
1761469397035644000,6.928643798828125,0.2973984181880951,0.44143369793891907,-1.4642325639724731
1761469397045598700,6.9385986328125,0.17211851477622986,0.7912108898162842,-1.3387221097946167
1761469397055553800,6.9485537109375,0.11467622965574265,0.36705970764160156,-1.0163795948028564
1761469397065508900,6.9585087890625,0.33567386865615845,-0.12654948234558105,-0.4450969696044922
1761469397075463700,6.968463623046875,0.7458755373954773,-0.35890308022499084,0.011450588703155518
1761469397085419000,6.9784189453125,1.1613765954971313,0.14063987135887146,0.28134891390800476
1761469397095373800,6.988373779296875,1.5035624504089355,0.8760223388671875,0.2702673673629761
1761469397105329000,6.998328857421875,1.770859956741333,0.908932626247406,-0.10507214069366455
1761469397115283500,7.008283447265625,1.8242254257202148,0.457925409078598,-0.705741286277771
1761469397125238800,7.01823876953125,1.620600938796997,-0.13186652958393097,-1.1958407163619995
1761469397135193600,7.028193603515625,1.479203701019287,-0.1020566076040268,-1.1971399784088135
1761469397145148400,7.0381484375,1.449605107307434,0.3666762709617615,-0.6282016634941101
1761469397155104500,7.0481044921875,1.4418144226074219,0.6909620761871338,0.22419218719005585
1761469397165059600,7.0580595703125,1.5825278759002686,0.7958027720451355,1.1103662252426147
1761469397175014400,7.068014404296875,1.7105461359024048,0.7407107949256897,1.7439665794372559
1761469397184969700,7.0779697265625,1.6843230724334717,0.6569945812225342,2.1001832485198975
1761469397194924500,7.087924560546875,1.5256588459014893,0.5526314377784729,2.2636032104492188
1761469397204879600,7.097879638671875,1.2907978296279907,0.41714924573898315,2.0877785682678223
1761469397214834700,7.107834716796875,1.1115224361419678,0.3692893385887146,1.5915321111679077
1761469397224789500,7.11778955078125,1.1083273887634277,0.6395778059959412,0.8264768123626709
1761469397234744600,7.12774462890625,1.0793514251708984,1.339414358139038,-0.0302288755774498
1761469397244699400,7.137699462890625,0.8377635478973389,2.048940658569336,-0.7219407558441162
1761469397254654700,7.14765478515625,0.5471988320350647,2.464522361755371,-0.8606199026107788
1761469397264609500,7.157609619140625,0.43801218271255493,2.0863900184631348,-0.39879071712493896
1761469397274564600,7.167564697265625,0.5496421456336975,1.3566458225250244,0.5202861428260803
1761469397284519700,7.177519775390625,0.6982721090316772,0.6298965811729431,1.5517246723175049
1761469397294474500,7.187474609375,0.5950170159339905,0.10368262976408005,2.1478025913238525
1761469397304429600,7.1974296875,0.2905188798904419,-0.05106567218899727,2.3182594776153564
1761469397314384600,7.207384521484375,0.08943009376525879,-0.10378093272447586,2.2331433296203613
1761469397324339700,7.217339599609375,-0.006743043661117554,0.02337622456252575,1.9329098463058472
1761469397334294500,7.22729443359375,0.031966544687747955,0.46205854415893555,1.4669450521469116
1761469397344249600,7.23724951171875,0.043483916670084,1.0999040603637695,0.9284756779670715
1761469397354204700,7.24720458984375,0.1519617736339569,1.6008331775665283,0.4082716405391693
1761469397364159500,7.257159423828125,0.3740006983280182,1.962701678276062,-0.21398207545280457
1761469397374114600,7.267114501953125,0.4770680069923401,2.2605416774749756,-0.9476096034049988
1761469397384069600,7.277069580078125,0.5862072706222534,1.968285083770752,-1.503516435623169
1761469397394024700,7.287024658203125,0.46604833006858826,1.3391751050949097,-1.9056305885314941
1761469397403979500,7.2969794921875,0.008770518004894257,0.47574546933174133,-1.9003303050994873
1761469397413934600,7.3069345703125,-0.3230465054512024,0.06196600943803787,-1.303070306777954
1761469397423889700,7.3168896484375,-0.3213261067867279,-0.005894532427191734,-0.5262739062309265
1761469397433844500,7.326844482421875,-0.3072795867919922,-0.23192496597766876,0.13874469697475433
1761469397443799600,7.336799560546875,-0.29293474555015564,-0.37531355023384094,0.6257782578468323
1761469397453754600,7.346754638671875,-0.17297212779521942,-0.4378122389316559,0.8450326323509216
1761469397463709700,7.356709716796875,-0.07417096942663193,-0.46353811025619507,0.8658380508422852
1761469397473664500,7.36666455078125,-0.021661685779690742,-0.47332966327667236,0.7362055778503418
1761469397483619600,7.37661962890625,0.03249582275748253,-0.3314763903617859,0.5423340797424316
1761469397493574700,7.38657470703125,0.16601665318012238,-0.032611098140478134,0.3191543221473694
1761469397503529500,7.396529541015625,0.29450538754463196,0.18526850640773773,0.12516486644744873
1761469397513485600,7.406485595703125,0.3755386769771576,0.038260217756032944,-0.023473646491765976
1761469397523440600,7.416440673828125,0.3363228142261505,-0.20486748218536377,-0.14139094948768616
1761469397533395500,7.4263955078125,0.2506248950958252,-0.36823585629463196,-0.07086661458015442
1761469397543350800,7.436350830078125,0.16230463981628418,-0.5416755080223083,0.16694539785385132
1761469397553305600,7.4463056640625,0.17752902209758759,-0.6767705082893372,0.5195035338401794
1761469397563260700,7.4562607421875,0.31865018606185913,-0.8475276231765747,0.8851081132888794
1761469397573215500,7.466215576171875,0.45623457431793213,-1.423568606376648,1.0124807357788086
1761469397583170600,7.476170654296875,0.5244722366333008,-1.982811689376831,0.7474793791770935
1761469397593125600,7.486125732421875,0.5052520632743835,-2.163450002670288,-0.00029349513351917267
1761469397603080400,7.49608056640625,0.35667723417282104,-1.3926893472671509,-0.7722077965736389
1761469397613035800,7.506035888671875,0.23086687922477722,-0.3358416259288788,-1.3203675746917725
1761469397622990600,7.515990478515625,0.07531775534152985,0.7403018474578857,-1.4138109683990479
1761469397632945700,7.525945556640625,-0.0977519229054451,0.9639770984649658,-0.9513762593269348
1761469397642900700,7.535900634765625,-0.0263267420232296,0.7358685731887817,-0.04289581626653671
1761469397652855600,7.54585546875,0.114775151014328,0.49591028690338135,0.7500421404838562
1761469397662810600,7.555810546875,0.0598466582596302,0.16718751192092896,1.2531119585037231
1761469397672765400,7.565765380859375,-0.1090686097741127,-0.2855430543422699,1.3885574340820312
1761469397682720800,7.575720703125,-0.23825988173484802,-0.35347896814346313,1.1814996004104614
1761469397692675600,7.585675537109375,-0.07748725265264511,-0.48010721802711487,0.6244049668312073
1761469397702630400,7.59563037109375,0.17988090217113495,-0.8070427179336548,-0.28097739815711975
1761469397712585700,7.605585693359375,0.3149349093437195,-1.0697808265686035,-1.2599819898605347
1761469397722540500,7.61554052734375,0.28903087973594666,-0.8761852979660034,-2.0884814262390137
1761469397732495600,7.62549560546875,0.48687610030174255,-0.0028410782106220722,-2.330993890762329
1761469397742450400,7.635450439453125,0.8526775240898132,0.8223377466201782,-1.8939483165740967
1761469397752405800,7.64540576171875,1.1291855573654175,1.2106564044952393,-0.9591348171234131
1761469397762360600,7.655360595703125,1.2170054912567139,0.9994203448295593,0.20428548753261566
1761469397772315400,7.6653154296875,1.1514326333999634,0.3549256920814514,1.2396067380905151
1761469397782270700,7.675270751953125,0.948244035243988,-0.3003906309604645,1.9869959354400635
1761469397792225500,7.6852255859375,0.6152750253677368,-0.8990015387535095,2.4030988216400146
1761469397802180600,7.6951806640625,0.20587927103042603,-1.3705863952636719,2.5569920539855957
1761469397812135700,7.7051357421875,-0.1541408896446228,-1.3080178499221802,2.3925509452819824
1761469397822090800,7.7150908203125,-0.38849908113479614,-0.7959936857223511,1.8606257438659668
1761469397832045600,7.725045654296875,-0.5248250961303711,-0.2017315924167633,1.0929328203201294
1761469397842000400,7.73500048828125,-0.5484995245933533,0.4789894223213196,0.3255072832107544
1761469397851956500,7.74495654296875,-0.33709412813186646,0.8304588198661804,-0.19880437850952148
1761469397861911600,7.75491162109375,0.035920705646276474,0.841246485710144,-0.398112952709198
1761469397871866600,7.76486669921875,0.3945724368095398,0.6265568733215332,-0.24768388271331787
1761469397881821700,7.77482177734375,0.5436141490936279,0.4516500234603882,0.11770766973495483
1761469397891776500,7.784776611328125,0.3895891308784485,0.24012906849384308,0.497437447309494
1761469397901731600,7.794731689453125,-0.05838039517402649,0.03652535006403923,0.7086660861968994
1761469397911686700,7.804686767578125,-0.5216525197029114,-0.00806171353906393,0.6998912692070007
1761469397921641500,7.814641357421875,-0.8085559606552124,0.03445298969745636,0.5540083646774292
1761469397931596500,7.824596435546875,-0.9188178181648254,0.10139485448598862,0.3039208650588989
1761469397941551600,7.834551513671875,-0.8899385333061218,0.34839317202568054,-0.01669495180249214
1761469397951506700,7.844506591796875,-0.814781665802002,0.5585088133811951,-0.2949042320251465
1761469397961461500,7.85446142578125,-0.6754730343818665,0.48273155093193054,-0.5016191005706787
1761469397971416800,7.864416748046875,-0.44493937492370605,0.218584343791008,-0.660410463809967
1761469397981371600,7.87437158203125,-0.230801522731781,0.008864672854542732,-0.6950592398643494
1761469397991326500,7.884326416015625,-0.10610754042863846,-0.10065902024507523,-0.6046012043952942
1761469398001281500,7.894281494140625,-0.05395059660077095,-0.08741485327482224,-0.40622201561927795
1761469398011236600,7.904236572265625,-0.027260394766926765,-0.022004691883921623,-0.19212064146995544
1761469398021191700,7.914191650390625,-0.029201308265328407,-0.014748377725481987,0.006608429830521345
1761469398031146500,7.924146484375,-0.006949154660105705,-0.07726599276065826,0.10705194622278214
1761469398041101600,7.9341015625,0.07541043311357498,0.017381414771080017,0.13009761273860931
1761469398051056600,7.944056640625,0.13891015946865082,0.25450029969215393,0.18421649932861328
1761469398061011500,7.954011474609375,0.1050291582942009,0.41799870133399963,0.2251644730567932
1761469398070966500,7.963966552734375,0.029783880338072777,0.5227605700492859,0.26201316714286804
1761469398080921600,7.973921630859375,-0.13714759051799774,0.5352990031242371,0.40645450353622437
1761469398090876700,7.983876708984375,-0.3282153308391571,0.35395756363868713,0.7016367316246033
1761469398100831500,7.99383154296875,-0.23914963006973267,0.28383147716522217,1.1143078804016113
1761469398110786600,8.00378662109375,-0.020835842937231064,0.09807755053043365,1.3905678987503052
1761469398120741600,8.01374169921875,0.2339431792497635,-0.09619632363319397,1.5156471729278564
1761469398130696400,8.023696533203125,0.4356876611709595,-0.2942667603492737,1.4354331493377686
1761469398140651800,8.03365185546875,0.3710719048976898,-0.6705042719841003,1.1094191074371338
1761469398150607600,8.043607666015625,0.10090502351522446,-1.1194310188293457,0.5299243330955505
1761469398160562700,8.053562744140624,-0.2691289484500885,-1.4733039140701294,-0.09699785709381104
1761469398170517800,8.063517822265625,-0.4077187478542328,-1.5430498123168945,-0.6101992726325989
1761469398180472600,8.07347265625,-0.02420995756983757,-1.215743064880371,-0.9566763043403625
1761469398190427600,8.083427734375,0.44010552763938904,-0.3736163377761841,-0.9389815926551819
1761469398200382700,8.0933828125,0.47786861658096313,0.35608845949172974,-0.8111386299133301
1761469398210337500,8.103337646484375,0.025988083332777023,0.5707887411117554,-0.5876094698905945
1761469398220292600,8.113292724609375,-0.5422074794769287,0.44944101572036743,-0.3442250192165375
1761469398230247700,8.12324755859375,-0.92960524559021,0.22574248909950256,-0.19897302985191345
1761469398240202800,8.13320263671875,-1.081216812133789,0.220124289393425,-0.11770959943532944
1761469398250157600,8.143157470703125,-0.9258652329444885,0.48247864842414856,-0.0980408638715744
1761469398260112600,8.153112548828124,-0.5854149460792542,0.4412417411804199,-0.39757537841796875
1761469398270067700,8.163067626953126,-0.2695854604244232,-0.08240724354982376,-0.9570868015289307
1761469398280022500,8.1730224609375,0.038746800273656845,-0.8379130363464355,-1.700637698173523
1761469398289977600,8.1829775390625,0.33497878909111023,-1.1169826984405518,-2.420834541320801
1761469398299932700,8.1929326171875,0.47683101892471313,-0.6179678440093994,-2.8189303874969482
1761469398309887700,8.2028876953125,0.410595566034317,0.32670024037361145,-2.768230676651001
1761469398319842600,8.212842529296875,0.31201279163360596,0.8745329976081848,-2.234238386154175
1761469398329797600,8.222797607421874,0.22926099598407745,0.7802074551582336,-1.3327142000198364
1761469398339752700,8.232752685546876,0.09085117280483246,0.32899200916290283,-0.11111074686050415
1761469398349707500,8.24270751953125,-0.11705803871154785,-0.12591519951820374,1.1189650297164917
1761469398359662600,8.25266259765625,-0.4313605725765228,-0.48797807097435,2.0202713012695312
1761469398369617700,8.26261767578125,-0.7615848183631897,-0.7310631275177002,2.5807340145111084
1761469398379572700,8.27257275390625,-0.938412070274353,-0.6885327100753784,2.663764476776123
1761469398389527600,8.282527587890625,-0.8977364301681519,-0.27472978830337524,2.275815010070801
1761469398399482600,8.292482666015625,-0.664524495601654,0.3690776824951172,1.5711594820022583
1761469398409437700,8.302437744140626,-0.35714492201805115,0.922112762928009,0.7872654795646667
1761469398419392500,8.312392578125,-0.11598211526870728,1.2219388484954834,0.10376386344432831
1761469398429347800,8.322347900390625,-0.05207731947302818,1.1812981367111206,-0.3047639727592468
1761469398439303700,8.3323037109375,-0.08987290412187576,0.9168720245361328,-0.33064642548561096
1761469398449257700,8.3422578125,-0.16209954023361206,0.4930294454097748,-0.09446271508932114
1761469398459213800,8.3522138671875,-0.16989675164222717,0.1507757157087326,0.3482539653778076
1761469398469168600,8.362168701171875,-0.12901492416858673,0.008454273454844952,0.8015817999839783
1761469398479123700,8.372123779296874,-0.06625247746706009,0.05894114822149277,1.1261833906173706
1761469398489078500,8.38207861328125,0.024370141327381134,0.18764418363571167,1.2021998167037964
1761469398499033600,8.39203369140625,0.0717989057302475,0.2096184641122818,1.0442922115325928
1761469398508988700,8.40198876953125,0.14966687560081482,0.36783650517463684,0.8620380163192749
1761469398518943500,8.411943603515626,0.35025057196617126,0.4382598102092743,0.6715911030769348
1761469398528898800,8.42189892578125,0.4364921748638153,0.4544912576675415,0.45071500539779663
1761469398538853600,8.431853515625,0.39769473671913147,0.5280834436416626,0.2649419605731964
1761469398548808400,8.441808349609374,0.2421170324087143,0.5500226616859436,0.0831427350640297
1761469398558763800,8.451763671875,0.017994442954659462,0.7723305821418762,-0.06009484454989433
1761469398568718600,8.461718505859375,-0.22385984659194946,0.71100914478302,-0.20798000693321228
1761469398578673700,8.471673583984375,-0.4566371738910675,0.42974627017974854,-0.3376874029636383
1761469398588628500,8.48162841796875,-0.7430808544158936,0.005203731823712587,-0.4436533749103546
1761469398598583800,8.491583740234375,-0.7304623126983643,-0.22428752481937408,-0.5690983533859253
1761469398608538600,8.50153857421875,-0.6464481353759766,-0.3666505217552185,-0.7917764186859131
1761469398618493400,8.511493408203124,-0.5826603770256042,-0.43917185068130493,-0.9985743165016174
1761469398628448800,8.52144873046875,-0.5963205695152283,-0.44031864404678345,-1.1391254663467407
1761469398638403600,8.531403564453125,-0.5644132494926453,-0.5319085121154785,-1.212914228439331
1761469398648358700,8.541358642578125,-0.5099573135375977,-0.6050965189933777,-1.2914671897888184
1761469398658313700,8.551313720703124,-0.5136585831642151,-0.6466727256774902,-1.4210137128829956
1761469398668268800,8.561268798828126,-0.6268780827522278,-0.6222304701805115,-1.6106822490692139
1761469398678223600,8.5712236328125,-0.6840721368789673,-0.9502030611038208,-1.8796192407608032
1761469398688178400,8.581178466796874,-0.5498798489570618,-1.261915922164917,-2.1505179405212402
1761469398698133800,8.5911337890625,-0.22950264811515808,-1.1785733699798584,-1.9869176149368286
1761469398708088600,8.601088623046875,0.10904407501220703,-0.9845972657203674,-1.4599177837371826
1761469398718044400,8.61104443359375,0.3011922240257263,-0.9538499712944031,-0.8577076196670532
1761469398727999700,8.620999755859375,0.20552587509155273,-1.2404059171676636,-0.3982466161251068
1761469398737954600,8.63095458984375,-0.03172582760453224,-1.5386751890182495,-0.16404956579208374
1761469398747909600,8.64090966796875,-0.18590585887432098,-1.7181261777877808,-0.12869510054588318
1761469398757864700,8.65086474609375,-0.06743114441633224,-1.4173903465270996,-0.08366824686527252
1761469398767819500,8.660819580078124,0.39938536286354065,-0.17602181434631348,0.11011344194412231
1761469398777774600,8.670774658203126,0.9719668626785278,1.099373698234558,0.22176674008369446
1761469398787729700,8.680729736328125,1.2497588396072388,1.6831510066986084,-0.01606062613427639
1761469398797684700,8.690684814453125,1.1528685092926025,1.4336326122283936,-0.39715713262557983
1761469398807639600,8.7006396484375,0.911535918712616,0.8283765912055969,-0.668734073638916
1761469398817594600,8.7105947265625,0.6990751028060913,0.47551754117012024,-0.5587364435195923
1761469398827549700,8.7205498046875,0.5302656292915344,0.3573812246322632,-0.1132354885339737
1761469398837504500,8.73050439453125,0.7044470310211182,0.48680391907691956,0.19976583123207092
1761469398847459600,8.74045947265625,0.7377445101737976,0.264678955078125,-0.13176025450229645
1761469398857414700,8.75041455078125,0.6276973485946655,-0.2609323561191559,-0.9436560273170471
1761469398867369700,8.76036962890625,0.7764454483985901,-0.6935946345329285,-1.7985121011734009
1761469398877324500,8.770324462890626,1.2751535177230835,-0.663878321647644,-2.304168939590454
1761469398887279900,8.78027978515625,1.7905364036560059,-0.1449171006679535,-2.2875216007232666
