time,seconds_elapsed,z,y,x
1761467668414727700,0.063727783203125,-0.0019879589468240737,-0.005787351229786872,-0.006525785039551556
1761467668424680700,0.0736806640625,-0.004826981765031814,-0.004330284289270639,-0.02013471500677988
1761467668434633700,0.0836337890625,-0.0015384616136550901,-0.017594802999310193,-0.006247826614696532
1761467668444587800,0.093587890625,-0.004677344161272049,-0.002595131059736013,-0.017778781264089046
1761467668454540800,0.103540771484375,0.008189736196398735,-0.006786335671879351,-0.0022847864689305424
1761467668464493800,0.113493896484375,-0.006921323695778846,-0.01152127350559458,-0.008359722468443215
1761467668474446800,0.12344677734375,-0.00781564218699932,-0.0069019066092558205,-0.006007222791854292
1761467668484399900,0.13339990234375,0.008943184912204742,-0.024605266283266244,-0.012006755467597394
1761467668494353000,0.143352783203125,-0.004972527715563774,-0.006754588826745748,-0.0012152392749674617
1761467668504305700,0.1533056640625,-0.006471241840720177,-0.00993272567251697,-0.01295305987438187
1761467668514259700,0.163259765625,-0.011706219884753226,-0.011174688557628541,-0.023312669189460573
1761467668524212500,0.17321240234375,-0.011410451808571816,-0.008397570260800421,-0.013908917560800909
1761467668534165500,0.18316552734375,-0.013203764966130255,-0.004271064915321767,-0.015575426000915467
1761467668544118500,0.193118408203125,-0.01111176112294197,-0.006275938464328647,-0.017147406291682273
1761467668554071600,0.203071533203125,-0.010661094745993614,-0.0038159963578917083,-0.014778887062054127
1761467668564024600,0.213024658203125,-0.006620294922590256,-0.003849295839294791,-0.025474231137521564
1761467668573977600,0.2229775390625,-0.004226677784323692,-0.004834927609469741,-0.016252320615481583
1761467668583931600,0.232931640625,-0.011858780097961425,-0.009119765321817248,-0.014507449709530919
1761467668593884700,0.242884765625,0.005198737686872482,-0.0014764109618030487,-0.019069095069263128
1761467668603837700,0.252837646484375,-0.003781272104382515,-0.003023549072258174,-0.013635215185955165
1761467668613790700,0.262790771484375,-0.010966799694299697,-0.005749028513394296,-0.014255118916276842
1761467668623743700,0.27274365234375,0.003097381493449211,-0.010349471513554453,-0.016667038896214216
1761467668633696800,0.28269677734375,0.00040448914766311644,-0.00981936495853588,-0.017052567615080623
1761467668643649800,0.29264990234375,0.006237433084845543,-0.0025965558318421242,-0.002783383640833199
1761467668653603800,0.302603759765625,0.003541618129611015,-0.009077350952196866,-0.01050431501539424
1761467668663556900,0.312556884765625,-0.001246200668811798,-0.010336794695071875,-0.0017685075098648666
1761467668673509600,0.322509521484375,0.00563888266980648,-0.008593147631827742,-0.004915701228100806
1761467668683462700,0.332462646484375,0.01087561427950859,-0.010360084239114076,-0.016212098202947525
1761467668693415700,0.342415771484375,-0.007082067215442657,-0.010139171497430651,-0.008740209686011075
1761467668703368700,0.35236865234375,0.002791676545143127,-0.007146090628672391,-0.012655702629312872
1761467668713321700,0.36232177734375,-0.005589782831072807,-0.004423058872949331,-0.007604976844694465
1761467668723275800,0.37227587890625,-0.0172626849681139,-0.0009902531463652849,-0.00006915624607354401
1761467668733228800,0.382228759765625,0.0014414309799671173,-0.014601959592569618,-0.014982903467863797
1761467668743181800,0.392181884765625,0.0003945522755384445,-0.007527491161692887,-0.01197749284049496
1761467668753134800,0.402134765625,-0.007238719081878662,-0.01538143779877573,-0.00836218842016533
1761467668763088000,0.412087890625,-0.0011047463715076445,-0.010182206921558827,-0.007434095523506402
1761467668773041000,0.422041015625,-0.00873626416325569,-0.011323796438425779,-0.0067771842510439455
1761467668782994000,0.431993896484375,0.0011386486411094664,-0.01590021924218163,-0.011904391071666031
1761467668792947700,0.44194775390625,-0.00918634601831436,-0.011491535954456776,-0.0023997911507263776
1761467668802900700,0.451900634765625,-0.011132219389081,-0.012677804863266647,-0.01043329560579732
1761467668812853800,0.461853759765625,-0.004248305094242096,-0.01105133617259562,-0.0006218764916993677
1761467668822806500,0.471806640625,0.002485387074947357,0.00408421884002164,-0.009726553842239081
1761467668832759600,0.481759521484375,0.015053776746988295,0.0011523666392080484,-0.008409881753101945
1761467668842712600,0.491712646484375,-0.00454699577987194,-0.0019169395372271537,-0.018020024407748133
1761467668852666600,0.50166650390625,-0.004397358176112175,-0.025220256376452744,-0.0050911673928610976
1761467668862619600,0.51161962890625,0.001437339326739311,-0.008753708488401025,-0.009672631697915494
1761467668872572700,0.52157275390625,0.01655073730647564,-0.0013628127858042716,-0.009630564388167112
1761467668882525700,0.531525634765625,-0.009933949515223502,-0.023735497711412607,-0.006613280659914017
1761467668892469800,0.5414697265625,-0.016217559829354286,-0.013341474670078604,-0.012311145241651684
1761467668902422800,0.5514228515625,-0.010830606094002724,-0.002854585713520646,-0.008539408150594681
1761467668912375800,0.561375732421875,-0.017415829703211785,-0.006763046127837151,-0.014024506764486432
1761467668922329600,0.57132958984375,-0.005448328533768654,0.005074581584241241,-0.01398696949938312
1761467668932282600,0.58128271484375,0.0030810148805379867,0.0004500453224405646,-0.010063969103060661
1761467668942235600,0.591235595703125,-0.00978548095524311,-0.01618027829257771,-0.00005118219796568155
1761467668952188700,0.601188720703125,-0.009339490753412246,-0.011421375061385334,-0.008745196388382464
1761467668962141700,0.6111416015625,-0.012031214055418968,-0.00967827598741278,-0.0053237705723382526
1761467668972094700,0.6210947265625,0.004427168792486191,-0.0023263788546435534,-0.008030874106567353
1761467668982047700,0.6310478515625,-0.009340075275301932,-0.010632708901725709,-0.002855900887772441
1761467668992001800,0.641001708984375,-0.005000000244379043,-0.012665895229764282,-0.0014578706581145524
1761467669001954800,0.650954833984375,0.004126724541187286,-0.010308646312821655,-0.003973269278835505
1761467669011907800,0.660907958984375,-0.008592471778392792,-0.015825382173992694,-0.018489651213493198
1761467669021860900,0.67086083984375,-0.005748188263177871,-0.00017678133901208638,-0.016524598218221217
1761467669031814000,0.68081396484375,0.008764905735850334,-0.007344992467947304,-0.005949884847737849
1761467669041766700,0.6907666015625,0.0029307927548885343,-0.006026475481595844,-0.019515030472166836
1761467669051719700,0.7007197265625,-0.004403787916898727,-0.005754983330145478,-0.011355908609740435
1761467669061673700,0.710673828125,-0.012783493727445602,-0.02027724701631814,-0.0065817712767980985
1761467669071626800,0.720626708984375,-0.003956044149398804,-0.010999277191795408,-0.008140672890283166
1761467669081579800,0.730579833984375,-0.01009352399110794,-0.00805947914654389,-0.010030158165004103
1761467669091532800,0.74053271484375,0.002924363014101982,-0.005299713843315839,-0.010972991973068565
1761467669101485800,0.75048583984375,-0.0026128128468990326,-0.001495645385235548,-0.013424769039358943
1761467669111438800,0.76043896484375,0.005167758026719093,0.000758618081267923,-0.011896481759846209
1761467669121392600,0.770392578125,0.0006774608701467514,-0.003387669676914811,-0.011493179922271519
1761467669131345700,0.780345703125,0.0017220014870166778,-0.005645001883339136,-0.006535575781203806
1761467669141298700,0.790298583984375,-0.006057984864711761,-0.015466266538016497,-0.0063978295446373516
1761467669151251700,0.800251708984375,-0.002317629292607307,-0.01968998518027365,-0.020922924508713185
1761467669161204700,0.810204833984375,-0.012342764222621917,-0.013570698582381009,-0.02142435295851901
1761467669171157800,0.82015771484375,-0.007255085694789886,0.004543579980079085,-0.006905724267847835
1761467669181110800,0.83011083984375,0.0012736731976270674,-0.006098426472954451,-0.0050736317361705
1761467669191064800,0.84006494140625,-0.007107786178588866,-0.004540730435866862,-0.01675212336378172
1761467669201017900,0.850017822265625,0.003215454915165901,0.0033932957001030443,-0.01530601620869711
1761467669210970600,0.859970703125,0.007405307820439338,-0.014235829693917184,-0.006759484197571873
1761467669220923600,0.869923583984375,-0.008305471530556678,-0.013431052649673073,-0.014832462146505713
1761467669230876700,0.879876708984375,-0.01084814175069332,-0.006124912621080875,-0.022718941080011427
1761467669240829700,0.88982958984375,-0.0030687399208545684,-0.010700988364964723,-0.014623459038324653
1761467669250782700,0.89978271484375,-0.0029226094484329224,-0.0055803026166744525,-0.004674056225642561
1761467669260736800,0.90973681640625,-0.0017266776621341704,-0.0029541370978578923,-0.012910755102615802
1761467669270689800,0.919689697265625,0.0018669629156589508,-0.003342643225099891,-0.018954711441975084
1761467669280642800,0.929642822265625,-0.005167173504829406,-0.014287888674717395,-0.013976210643351077
1761467669290595800,0.939595947265625,-0.013697101441025733,-0.00154176781559363,-0.022757026334386317
1761467669300548900,0.949548828125,-0.00023030162453651428,-0.003982018840871751,-0.014845047633443027
1761467669310502000,0.959501953125,-0.01414601425230503,-0.006346976140234619,-0.009156845929194241
1761467669320455000,0.969454833984375,-0.02252864267230034,-0.004789133972674608,0.003493522937875241
1761467669330408700,0.97940869140625,-0.01040682772397995,-0.007764679184742272,-0.0025517303094267844
1761467669340361700,0.98936181640625,0.0009632920742034911,-0.014847239590529351,-0.012950045933388173
1761467669350314800,0.999314697265625,0.007993921363353728,-0.011900518614146857,-0.005077741655707359
1761467669360267500,1.009267578125,0.0009580313771963119,-0.0119575094983913,0.005664966959133744
1761467669370220500,1.019220458984375,-0.008020809370279311,-0.008048336698021739,-0.015395137530565262
1761467669380173600,1.029173583984375,-0.005178279420733452,-0.004765369504597038,0.004681399281881749
1761467669390127600,1.039127685546875,-0.0009878419935703277,-0.010029007387533784,-0.00226127772917971
1761467669400080600,1.04908056640625,-0.0027829087167978283,-0.00912767463363707,-0.009319269949290901
1761467669410033700,1.05903369140625,-0.007571312037110328,-0.009122943659592419,-0.009755871268268674
1761467669419986700,1.068986572265625,-0.008470306703448295,-0.01683355456953868,-0.004398910812381655
1761467669429939700,1.078939697265625,-0.015652327162027357,-0.004068327151145786,-0.006172112763673067
1761467669439892700,1.088892822265625,0.0017050503522157668,-0.004729147413745523,-0.009355400708597153
1761467669449845800,1.098845703125,-0.0011386486411094664,-0.011915314324479549,-0.00708363811802119
1761467669459799800,1.1087998046875,0.0008095628172159195,-0.0028538002622313795,-0.011357607376482337
1761467669469752800,1.1187529296875,-0.014602525848150253,-0.002745882908347994,-0.010964954797085374
1761467669479705900,1.128705810546875,-0.002482464465498924,0.005769687708932906,0.0029718919502571225
1761467669489659000,1.138658935546875,-0.004725859478116035,-0.0002906352433376014,-0.004349007256049663
1761467669499612000,1.14861181640625,-0.011457213559746741,0.007206040654983371,0.0070384107368066905
1761467669509564700,1.158564697265625,-0.010111059647798537,-0.003382810838706791,-0.009209434632956981
1761467669519517700,1.168517578125,-0.006072013390064239,-0.009015117637254298,-0.01565512190731242
1761467669529471700,1.1784716796875,-0.0015828852772712706,-0.005413750410731882,-0.005930778288468718
1761467669539424800,1.1884248046875,-0.00263210206925869,-0.00872261923039332,-0.010792392975464462
1761467669549377800,1.198377685546875,-0.008916881427168845,-0.0004907243927009403,-0.003618738486431539
1761467669559330800,1.208330810546875,0.0002098433583974838,-0.0011155782927758991,-0.006123067723866552
1761467669569283800,1.218283935546875,-0.005776829835772514,-0.012015614627487957,0.0002594729200936854
1761467669579236900,1.22823681640625,-0.005924129351973533,-0.008788469274528324,-0.005037336580082774
1761467669589190000,1.23818994140625,-0.011162030005455017,-0.01961010661078617,-0.0021860570685006677
1761467669599143700,1.248143798828125,-0.00487725064754486,-0.0037129378422163426,-0.015924787427857516
1761467669609096700,1.2580966796875,0.00694295100569725,-0.010350202165916561,0.006538827184215188
1761467669619049700,1.2680498046875,0.007242226213216781,-0.01653986885258928,0.0019777115474455056
1761467669629002800,1.278002685546875,-0.013407178583741188,0.002570380210969597,-0.003018909429758787
1761467669638955800,1.287955810546875,0.0030517887860536572,-0.0013481266733258962,0.0004500087898224592
1761467669648908800,1.29790869140625,-0.003830371943116188,-0.014547927850391714,-0.00680509517127648
1761467669658862800,1.30786279296875,0.013978840991854667,-0.004306757283210754,-0.016752232961636037
1761467669668816000,1.31781591796875,0.00500233833193779,-0.008567026809882371,-0.012732749920897185
1761467669678768600,1.3277685546875,-0.008614099088311195,-0.006106975105591118,-0.00402879885835573
1761467669688721700,1.3377216796875,-0.004869651862978935,0.0022174020548351107,-0.01040690078921616
1761467669698674700,1.3476748046875,-0.016537877824902535,-0.003965396499633789,-0.013802479777950794
1761467669708627700,1.357627685546875,0.0000713116705417633,-0.006653777067083865,-0.00344619493111968
1761467669718580700,1.367580810546875,-0.005316811108589172,0.0036261546079069374,-0.010599080626759677
1761467669728534800,1.37753466796875,0.004410802179574966,-0.00151780241811648,-0.003825823632162064
1761467669738487800,1.38748779296875,-0.0014227262794971466,-0.0050217188858427105,-0.002830236723553389
1761467669748440800,1.39744091796875,-0.000377016618847847,-0.0067340392290614545,-0.000414700014423579
1761467669758393900,1.407393798828125,-0.0068108490586280815,-0.009099014794733375,-0.004602580158319324
1761467669768347000,1.417346923828125,-0.001423310801386833,-0.005709317557513713,-0.007818327334430069
1761467669778300000,1.4272998046875,-0.016686346384882925,-0.011686090412177145,0.006415529598109424
1761467669788253700,1.437253662109375,0.003215454915165901,-0.0013671601673588157,-0.010224803954269737
1761467669798206700,1.447206787109375,-0.0048643911659717555,-0.004064454693626612,-0.016528762936685232
1761467669808159700,1.45715966796875,-0.005611410140991211,-0.002791621746215969,-0.01578072104835883
1761467669818112800,1.46711279296875,-0.01339315005838871,0.006793496065028011,0.004310410545021295
1761467669828065500,1.4770654296875,-0.005163666373491287,-0.0057423613105900585,-0.0036970826859585937
1761467669838018600,1.4870185546875,-0.016683423775434494,-0.0026898053395561874,0.0008626629776321351
1761467669847971600,1.4969716796875,0.004715922605991363,-0.001452920488361269,-0.0009488616900518536
1761467669857925600,1.506925537109375,-0.007855389675498009,-0.005395904226787388,-0.010351499073859304
1761467669867878700,1.516878662109375,-0.005311550411581992,-0.016126812805980443,0.005569452429097146
1761467669877831700,1.526831787109375,0.005011690682172775,-0.002172576532419771,-0.00014276947155594826
1761467669887784700,1.53678466796875,-0.0033656770408153533,0.0008817695369012653,-0.0064895812150090925
1761467669897737500,1.546737548828125,-0.01383972478210926,-0.00798818574231118,-0.0007396759187802672
1761467669907690500,1.5566904296875,-0.00950140331685543,-0.009406929966434836,-0.011346939851995556
1761467669917644500,1.56664453125,0.005310965889692306,-0.004409158211760223,-0.008353639787528663
1761467669927597600,1.57659765625,-0.023718144717812535,-0.009167129861190915,-0.0031146796881221235
1761467669937550600,1.586550537109375,-0.0023187983363866806,0.0007712583671323955,-0.005358019901812076
1761467669947503600,1.596503662109375,-0.004709492865204811,0.0029917474281974136,-0.01697431474709883
1761467669957456600,1.60645654296875,-0.003661445116996765,0.0034640411150641736,-0.00603239376572892
1761467669967409700,1.61640966796875,-0.006654781714081764,0.006177008134499192,-0.0021045893301256
1761467669977362700,1.62636279296875,-0.005009937116503715,0.001326097504608333,-0.01331876964792609
1761467669987316700,1.636316650390625,-0.013088614153861998,-0.00895255552874878,-0.01592142642699182
1761467669997269500,1.64626953125,-0.011741875720024109,-0.006880480228736996,-0.00889591170437634
1761467670007222500,1.656222412109375,-0.014584405669569969,-0.0004666311310604214,-0.004464742590207607
1761467670017175600,1.666175537109375,-0.0027659575819969176,-0.012825962895993142,-0.0018372984297573565
1761467670027128600,1.676128662109375,-0.002468435940146446,-0.005811864616535604,-0.007462645764555782
1761467670037081600,1.68608154296875,-0.0018704700469970702,-0.013654120815824717,-0.004800532149523497
1761467670047034600,1.69603466796875,-0.021621464699506758,-0.015107223967276512,-0.005726067762915045
1761467670056988400,1.705988525390625,0.007408230429887771,-0.004829027591645717,-0.003971223452221602
1761467670066941400,1.71594140625,-0.0009685527712106704,-0.0025303769941441715,-0.010339169315248727
1761467670076894500,1.72589453125,-0.011893266889452933,-0.003911291692219675,-0.006874123553186655
1761467670086847500,1.735847412109375,-0.008453355568647384,-0.006834467396233231,-0.007318962977547198
1761467670096800500,1.745800537109375,-0.00815466488301754,-0.0017244309061206877,-0.014454897538386285
1761467670106753500,1.75575341796875,-0.003068155398964882,-0.0030963585801422593,0.00010957958800718187
1761467670116707600,1.76570751953125,0.0038157588958740232,-0.016096107140462845,0.007887227852176874
1761467670126660600,1.77566064453125,-0.0017179098337888716,0.0010550437445752323,-0.004748527967650443
1761467670136613600,1.785613525390625,-0.005459434449672698,-0.008404036534205078,-0.015389365376904605
1761467670146566700,1.795566650390625,0.006959902140498161,-0.005019307733047753,-0.008966967646591365
1761467670156519700,1.805519775390625,-0.002915595185756683,0.0019945348180830475,-0.010359079592116176
1761467670166472700,1.81547265625,0.009656301617622374,-0.0012595716070383787,-0.0037149106035940346
1761467670176425700,1.82542578125,0.0033697686940431593,0.0039562998777255415,-0.006047317340224981
1761467670186379800,1.8353798828125,0.008906944555044174,0.006095741325523704,-0.005295202064979821
1761467670196332800,1.845332763671875,-0.0011176058530807495,-0.0014519158413633703,-0.00602395473094657
1761467670206285600,1.85528564453125,-0.011743629285693167,-0.009367091146390885,-0.0006662088237702846
1761467670216238600,1.865238525390625,-0.013239420801401138,-0.00480440460704267,-0.0033166137346997853
1761467670226191600,1.875191650390625,-0.0018698855251073835,0.0026410890933126208,-0.006203147222753614
1761467670236144600,1.88514453125,-0.006361936247348785,-0.00880525601254776,-0.01509255612110719
1761467670246097700,1.89509765625,-0.0017249240964651107,-0.0024887846084311604,0.00030941300904378295
1761467670256051500,1.905051513671875,-0.017889292433857916,-0.0011009104466065765,0.000675250646751374
1761467670266004500,1.91500439453125,0.0066501055389642716,-0.010744151653256267,-0.000805927821714431
1761467670275957500,1.92495751953125,-0.007866495591402053,0.00023788214279338716,-0.022043909628968683
1761467670285910500,1.93491064453125,0.0035059622943401335,0.002389598550274968,0.005680018397793174
1761467670295863600,1.944863525390625,-0.005021043032407761,-0.009649269088637084,-0.01170408272659406
1761467670305816600,1.954816650390625,-0.007267360654473304,-0.0006793970989063382,-0.007307984925806522
1761467670315770600,1.9647705078125,-0.00936111806333065,-0.013622465302236377,-0.003857369547896087
1761467670325723600,1.9747236328125,0.0081476506203413,-0.001870177786052227,-0.005474504154641181
1761467670335676700,1.9846767578125,-0.0038233576804399486,-0.008621917068585753,-0.009388499260600655
1761467670345629700,1.994629638671875,-0.017440964144468305,-0.005510379185620695,-0.013264080318622291
1761467670355582500,2.00458251953125,-0.008912205252051353,0.002468052347656339,-0.010503346901014447
1761467670365535500,2.014535400390625,0.006649521017074584,-0.00936457039574161,-0.006129698394052684
1761467670375488500,2.024488525390625,-0.010559972459077834,-0.019252854138333348,0.002442881373781711
1761467670385442600,2.034442626953125,-0.0011339724659919738,-0.008357293049339205,-0.005894446599762886
1761467670395395600,2.0443955078125,-0.007268529698252677,-0.0041438218064606186,-0.014288509729225188
1761467670405348600,2.0543486328125,-0.011311083087325095,-0.004904138654470444,-0.005490395843517035
1761467670415301600,2.064301513671875,-0.021637831312417984,-0.004736563535220921,-0.012866221841145307
1761467670425254700,2.074254638671875,0.0018541034340858458,-0.008801547951810061,-0.020904639933351427
1761467670435207700,2.084207763671875,-0.01490589270889759,0.0047341706487350164,-0.004962992702238262
1761467670445161500,2.094161376953125,0.006343816068768501,0.002844831504486501,0.0007123495204374193
1761467670455114500,2.104114501953125,0.00035889644026756285,-0.008586937086749822,-0.0006983757940120994
1761467670465067500,2.114067626953125,-0.004281622841954231,-0.006931059638503939,-0.012136665457580237
1761467670475020500,2.1240205078125,-0.005479892715811729,-0.005843081738706677,0.00008179653193801641
1761467670484973600,2.1339736328125,-0.00861994430720806,-0.00992792163323611,-0.008747717139031738
1761467670494926600,2.143926513671875,-0.010715455281734466,-0.003155194361601025,-0.007797759470436721
1761467670504879400,2.15387939453125,-0.0005412672698497772,-0.01211339417984709,-0.014747359412629156
1761467670514833700,2.163833740234375,-0.01625438470840454,0.0013251476565375923,-0.011880261277407407
1761467670524786400,2.173786376953125,-0.013859598526358603,-0.007663209837954491,0.001699515660572797
1761467670534739500,2.183739501953125,0.006790975314378738,-0.011967464636825024,-0.005469353055488318
1761467670544692500,2.1936923828125,-0.006677578067779541,-0.005090162745863199,0.002375752688013017
1761467670554645500,2.2036455078125,-0.015507365733385086,0.0024982648228295146,-0.003298402224574238
1761467670564598500,2.2135986328125,-0.011318681871891022,0.012181052588578312,-0.00671706982795149
1761467670574551600,2.223551513671875,0.0016968670457601547,-0.011531593970209359,0.000537741872202605
1761467670584505600,2.233505615234375,-0.009376900154352188,-0.0025464330798015,0.007628522117063403
1761467670594458600,2.243458740234375,-0.007732640078663825,-0.006951134312152862,-0.0007396211198531091
1761467670604411600,2.25341162109375,-0.00279459915459156,-0.002569576493371278,-0.008031915286183357
1761467670614364700,2.26336474609375,0.004088146096467972,-0.0044795565668493504,-0.0054191024392843245
1761467670624317700,2.273317626953125,-0.012820318606495856,-0.015188545575179159,-0.010930942929629235
1761467670634270700,2.283270751953125,-0.0015974983245134354,-0.0019901326376013458,-0.005514909230265766
1761467670644224800,2.293224853515625,0.0033405425995588303,-0.008823832848854362,-0.003942326151300222
1761467670654177800,2.303177734375,-0.0020458266139030457,-0.0070046911302953955,-0.008154171692673117
1761467670664130600,2.313130615234375,-0.0026432079851627347,-0.011863821599259972,0.005028349556028842
1761467670674083600,2.32308349609375,0.004541150560975074,-0.004779818155057728,-0.004301679249294102
1761467670684036600,2.33303662109375,-0.010870938104391097,-0.01134385284576565,-0.004011537196300923
1761467670693989600,2.34298974609375,-0.016556582525372503,-0.005134586409479379,-0.008450414692889898
1761467670703942700,2.352942626953125,0.00978022025823593,-0.006578519873786717,-0.0018438195020891726
1761467670713896400,2.362896484375,0.002595277190208435,-0.009009710809774696,-0.00969643269861117
1761467670723849500,2.372849365234375,-0.01416296538710594,-0.005250285211019217,-0.008978420622367412
1761467670733802500,2.382802490234375,-0.0012947159856557845,-0.004935081782005727,-0.008801219158247112
1761467670743755500,2.392755615234375,-0.005783259576559067,-0.004726042141206562,-0.0069674461261369286
1761467670753708500,2.40270849609375,-0.010424947902560234,-0.015280242446623741,0.0008870119675993919
1761467670763661600,2.41266162109375,-0.011324527090787887,0.008815795672871172,0.0035164654220454393
1761467670773614600,2.422614501953125,0.017704583516716957,-0.0020976116000674663,0.0010139810818247496
1761467670783568600,2.432568603515625,0.0007972878575325012,-0.003963789064437151,-0.003795337162353098
1761467670793521700,2.442521728515625,-0.003243511965870857,0.01269174205707386,-0.011336710718926042
1761467670803474700,2.452474609375,0.014562778359651564,-0.00377529902132228,-0.010571626364253461
1761467670813427700,2.462427734375,0.00423895274400711,-0.005337634700909257,-0.018320468659047035
1761467670823380500,2.47238037109375,-0.0035439562171697614,0.0021342720823362468,-0.006111030226200818
1761467670833333500,2.48233349609375,-0.011176058530807494,-0.01196061477093026,0.010186937895603477
1761467670843286500,2.49228662109375,0.006032850423455238,0.006878927592467516,0.007165982639230788
1761467670853240600,2.502240478515625,-0.010574585506319999,-0.0017160466702654956,-0.013679657115880399
1761467670863193600,2.512193603515625,-0.004587912312150002,-0.011116236368659884,-0.00940128567693755
1761467670873146600,2.522146728515625,-0.004440612795948982,-0.014176811249367892,0.00010612725559622048
1761467670883099600,2.532099609375,-0.0038432314246892928,0.00735489280745387,-0.010337397483270614
1761467670893052700,2.542052734375,0.006930676046013832,-0.0014497238842770457,-0.013142390167713165
1761467670903005400,2.55200537109375,-0.005940495964884758,0.0012192213303409516,-0.012157580381445586
1761467670912959200,2.561959228515625,-0.0016015899777412413,0.000581197421438992,-0.001090060259029269
1761467670922912300,2.571912353515625,0.014408464580774306,-0.004100037463661283,-0.017372629882302135
1761467670932865300,2.581865234375,0.010964461606740951,-0.0050613019775599235,-0.010572886739578097
1761467670942818300,2.591818359375,-0.0005570493608713149,-0.004894512309599667,-0.007132317831646651
1761467670952771300,2.601771240234375,0.00019347674548625944,-0.0004317424807697534,-0.015222630507871508
1761467670962724400,2.611724365234375,0.004983049109578132,0.008722783627174794,0.0041901086336001755
1761467670972677400,2.621677490234375,-0.01835924803316593,-0.007093885517399758,-0.0015300225788727401
1761467670982631400,2.63163134765625,-0.012227028888463973,-0.007750906387716531,-0.009498955631442367
1761467670992584400,2.64158447265625,-0.011477671825885771,-0.006889193258155137,-0.004380114780366421
1761467671002537500,2.651537353515625,-0.010133271479606628,-0.004559836995135992,-0.005499967389460653
1761467671012490200,2.661490234375,0.0019873744249343872,-0.006821954974532127,-0.015387356082908808
1761467671022443300,2.671443359375,-0.000706102442741394,-0.007444525585975498,-0.012708126936294138
1761467671032396300,2.681396240234375,-0.014921090278029441,-0.010403411924187093,0.0011880772734060882
1761467671042349300,2.691349365234375,-0.013274492114782332,0.0024944836968556045,0.009887461758684365
1761467671052303400,2.701303466796875,-0.007287818920612334,-0.006885485197417438,0.0025231070031411945
1761467671062256400,2.71125634765625,-0.0013005612045526504,-0.02038315507620573,0.0022412578544579445
1761467671072209400,2.72120947265625,-0.015217442876100539,-0.00002237622858956456,-0.0022120865589007736
1761467671082162400,2.731162353515625,-0.016267244189977645,-0.0018932846670038997,-0.003363886942528188
1761467671092115500,2.741115478515625,-0.01881108345389366,-0.0013040683358907699,-0.00934714433690533
1761467671102068500,2.751068359375,-0.008186229065060615,-0.00035918870121240615,-0.02519013523282483
1761467671112022300,2.761022216796875,-0.0010007014751434325,-0.0017759601639583706,0.0019713366055861114
1761467671121975300,2.770975341796875,-0.006688099461793899,-0.005103168357908725,-0.0017616759102791547
1761467671131928300,2.78092822265625,-0.008037175983190536,-0.0010486505364067852,-0.012380502417124807
1761467671141881300,2.79088134765625,-0.0029477438896894454,-0.015408782463427632,-0.011415036652144044
1761467671151834400,2.80083447265625,-0.005492167675495148,-0.0018254253288730977,-0.009910787835344671
1761467671161787400,2.810787353515625,0.0006418050348758697,-0.004540182446595281,-0.010039419183693825
1761467671171740400,2.820740478515625,-0.016866379126906392,0.007451064924616366,0.0023036920988000927
1761467671181694200,2.830694091796875,-0.015369418567419052,-0.003530895806197077,-0.015153346397634595
1761467671191647200,2.840647216796875,0.00154021517932415,-0.007704783957358449,-0.0018488062044605613
1761467671201600300,2.850600341796875,-0.010579261681437491,-0.0032063400269486007,0.00003629515608772635
1761467671211553300,2.86055322265625,0.001692190870642662,-0.011849994003307074,-0.0026997422116808592
1761467671221506300,2.87050634765625,-0.005189969858527183,-0.004161211332678795,0.004346486505400389
1761467671231459300,2.880459228515625,-0.010426701468229294,-0.009094101157598197,-0.014394691783748565
1761467671241412400,2.890412353515625,-0.003692424777150154,-0.002893054560385644,0.00463704868350178
1761467671251366400,2.900366455078125,0.0037906244546175,-0.003903236249927431,0.0036969365554861723
1761467671261319400,2.9103193359375,-0.017605799317359925,-0.009128825411107391,-0.011773622565157712
1761467671271272400,2.9202724609375,-0.006084288349747657,-0.010014978862181305,0.00606945610679686
1761467671281225500,2.9302255859375,0.009478022441267967,-0.0022176212505437432,-0.0011191584893502295
1761467671291178500,2.940178466796875,-0.005334931287169456,-0.006012154695298522,-0.0015363244554959237
1761467671301131500,2.950131591796875,-0.012817395997047424,-0.0012372136447578667,-0.00002241276120766997
1761467671311084300,2.960084228515625,-0.00024900632500648496,-0.007530377238523215,-0.006830339210387319
1761467671321038600,2.97003857421875,-0.02104804872572422,-0.00859535785522312,0.00013703385051339864
1761467671330991400,2.979991455078125,-0.006383563557267189,-0.016323687084950505,-0.0020610424493439495
1761467671340944400,2.9899443359375,-0.0021937106519937513,-0.0071439169378951185,0.00009184300191700458
1761467671350897400,2.9998974609375,0.003940846580266952,0.0020020605374127627,0.009269183729868381
1761467671360850400,3.009850341796875,0.0018476736932992934,-0.014100275414437055,-0.0009408610466867685
1761467671370803500,3.019803466796875,0.004839256724715232,0.008611176478862762,-0.011400405338592826
1761467671380756500,3.029756591796875,-0.0068336454123258585,-0.006893832900654524,-0.0004919299690984189
1761467671390710300,3.039710205078125,-0.0009977788656949996,-0.00467633951427415,-0.006932210415974259
1761467671400663300,3.049663330078125,0.0021457798570394516,-0.001962605309858918,-0.018966931602731347
1761467671410616300,3.0596162109375,0.010675707793235779,-0.016823964757286012,-0.0022931707047857343
1761467671420569300,3.0695693359375,-0.010870353582501411,-0.005753357628639787,-0.012095474930666386
1761467671430522400,3.0795224609375,-0.013563245928287506,0.003122479402087629,-0.012407463489286601
1761467671440475400,3.089475341796875,-0.015656418815255164,-0.009201689717918633,0.006910199513565749
1761467671450428400,3.099428466796875,-0.0014420155018568038,-0.00030579627985134717,-0.009126743051875382
1761467671460382500,3.109382568359375,-0.009971358916163443,-0.01296062212632969,-0.006512030508834869
1761467671470335500,3.11933544921875,0.002148117944598198,-0.012863153101224451,-0.010098035769443958
1761467671480288300,3.129288330078125,0.009181085321307183,-0.004526500981114804,-0.013417791309300809
1761467671490241300,3.1392412109375,-0.0033878888726234435,0.002384447451122105,-0.007138911969214678
1761467671500194300,3.1491943359375,-0.0017418752312660217,0.009105499334447086,0.00047494230167940255
1761467671510147300,3.159147216796875,0.00708498982489109,-0.013062602929770946,-0.007079217671230435
1761467671520101400,3.169101318359375,-0.009074702337384223,-0.003728792998474091,-0.007261351038794964
1761467671530054400,3.179054443359375,-0.006081950262188911,-0.0023951332419179377,0.010706797051243484
1761467671540007400,3.18900732421875,-0.0071294134885072705,-0.001153700079768896,-0.011096819282136856
1761467671549960400,3.19896044921875,-0.005333762243390083,-0.0062060150332748885,-0.003292684869840741
1761467671559913500,3.20891357421875,-0.003987023809552193,0.0008816234064288437,-0.0019047376427799461
1761467671569866500,3.218866455078125,-0.0005459434449672699,0.0037640469749458134,-0.004824917672108859
1761467671579819500,3.228819580078125,0.0015478139638900755,-0.0012101064421236513,-0.0004596168683841824
1761467671589773300,3.238773193359375,-0.013714052575826644,0.00024485987285152077,-0.004168243861664087
1761467671599726300,3.248726318359375,-0.004435936620831489,-0.009366068233083932,-0.007205364801548421
1761467671609679400,3.258679443359375,-0.0008446341305971145,-0.0013301708915270864,-0.0008181662487797438
1761467671619632400,3.26863232421875,-0.003088613665103912,-0.002516622463427484,0.007101429503038525
1761467671629585200,3.278585205078125,-0.003088613665103912,-0.009101352882292121,-0.01176701016128063
1761467671639538200,3.2885380859375,0.002598199799656868,-0.009869341580104083,0.0021080416625365614
1761467671649491200,3.2984912109375,0.006935352221131325,-0.014123857219424099,0.0017080277605913579
1761467671659445200,3.3084453125,0.004541735082864761,-0.002500657709315419,0.003118661743495613
1761467671669398300,3.318398193359375,-0.008476151922345162,-0.004518390739895403,-0.01088810843490064
1761467671679351300,3.328351318359375,-0.012369067707657814,-0.00037188378600403664,-0.006020228403899818
1761467671689304300,3.33830419921875,-0.01191957037448883,-0.010958634654153138,-0.007530742564704269
1761467671699257300,3.34825732421875,0.0018476736932992934,-0.00426642527282238,-0.01688033458702266
1761467671709210400,3.35821044921875,-0.004286299017071724,-0.00563908359920606,-0.010071129496209323
1761467671719163400,3.368163330078125,-0.01625789183974266,-0.00540982315428555,-0.011461049484647809
1761467671729117400,3.378117431640625,-0.012666589349508284,-0.005423486353456974,-0.010550346114207059
1761467671739070500,3.388070556640625,-0.01625789183974266,0.005224675845727324,-0.003516775949299335
1761467671749023500,3.3980234375,-0.00862520500421524,-0.002213456532079726,-0.009665343440603465
1761467671758976500,3.4079765625,-0.008776011651754378,-0.010654299679026006,0.010985486128460615
1761467671768929500,3.417929443359375,-0.011019991186261176,-0.006683953009638935,0.0051947373651899395
1761467671778882300,3.42788232421875,-0.0014443535894155502,0.00004424100052565336,0.0006290734174661338
1761467671788835300,3.43783544921875,-0.015510288342833517,-0.005936367779038846,0.005415376112237572
1761467671798789400,3.447789306640625,-0.010424947902560234,-0.005223488535638898,-0.010358622934389859
1761467671808742400,3.457742431640625,-0.009825812965631484,-0.006774590435158461,-0.0011694456381723284
1761467671818695400,3.4676953125,0.010226210460066795,-0.00850146902669221,-0.001127506192587316
1761467671828648400,3.4776484375,-0.012670096480846405,-0.007446480081044137,-0.011070059139374642
1761467671838601500,3.4876015625,-0.0054845688909292215,-0.006335048240423202,0.0015609839727170765
1761467671848554500,3.497554443359375,-0.0009977788656949996,-0.00656584305530414,-0.00767738449377939
1761467671858507500,3.507507568359375,-0.00623626404106617,-0.004065459340624511,-0.012726758571527897
1761467671868461300,3.51746142578125,-0.004886602997779846,0.0030444091971963644,-0.014446860362403094
1761467671878414300,3.527414306640625,-0.016410452052950858,-0.002205547220259905,-0.009148699155356734
1761467671888367400,3.537367431640625,-0.01386544374525547,-0.01215281287478283,-0.005691069514770061
1761467671898320600,3.547320556640625,-0.007730301991105079,-0.004498681392427533,-0.01254815060161054
1761467671908273700,3.557273681640625,0.00020166005194187164,0.009156243140995501,-0.007339841368794441
1761467671918226700,3.567226806640625,-0.0048871875196695325,-0.0071659095739945765,-0.00310885273553431
1761467671928180700,3.5771806640625,-0.012819149562716483,-0.009248013077676295,-0.0022853892571292815
1761467671938133800,3.5871337890625,-0.003391396003961563,0.0009722242993302643,-0.008987681641057134
1761467671948086800,3.597086669921875,-0.00040098201632499694,-0.006515610705409199,0.0007050247305072844
1761467671958039600,3.60703955078125,-0.018055881172418593,0.0008529818338342011,-0.004045987455174327
1761467671967992600,3.61699267578125,-0.012519289833307266,-0.0013821933397091925,-0.0052135699298232795
1761467671977945600,3.626945556640625,-0.015808979028463364,-0.002214972635731101,0.01073803243972361
1761467671987898600,3.636898681640625,-0.011170797833800315,0.010671908400952815,0.006569331920333207
1761467671997852700,3.646852783203125,-0.0053343467652797695,-0.006680135351046919,-0.01245093730483204
1761467672007805700,3.6568056640625,-0.0033890579164028165,-0.014923154370952397,-0.01365063195079565
1761467672017758700,3.6667587890625,-0.0011444938600063323,0.0051213616017252205,-0.009479008821956812
1761467672027711700,3.676711669921875,0.0036421558946371077,-0.008532814013026654,-0.0049193179572932415
1761467672037664800,3.686664794921875,-0.011472411128878594,0.004604680783860385,0.0016941088330931962
1761467672047617800,3.69661767578125,-0.004587912312150002,0.0009516381690278648,0.005446191375609487
1761467672057570800,3.70657080078125,0.002596446233987808,-0.003348798971250653,-0.011505290485173464
1761467672067524600,3.716524658203125,0.003194412127137184,-0.0009821794377639888,-0.008970072919130325
1761467672077477600,3.7264775390625,-0.015806640940904615,-0.0016346702634356914,-0.006342299965117126
1761467672087430700,3.7364306640625,0.0015507365733385084,0.0032595680515281854,-0.008887125609721987
1761467672097383700,3.7463837890625,-0.017752514311671255,-0.0052555276417173445,-0.006768270292226225
1761467672107336400,3.75633642578125,0.021302315747737884,0.007389836256671696,-0.004408683287724853
1761467672117289500,3.76628955078125,0.004691957208514213,0.006132566204573958,-0.007738193036615848
1761467672127242500,3.776242431640625,-0.005184709161520004,-0.013702617866359651,-0.00928982465909794
1761467672137196500,3.786196533203125,-0.01491115340590477,-0.0016087686371989546,0.0008554295192472636
1761467672147149600,3.796149658203125,-0.017304186022281644,-0.002372409953456372,-0.00416077294126153
1761467672157102600,3.8061025390625,-0.014759762236475944,0.00962318479930982,-0.005500424047186971
1761467672167055600,3.8160556640625,-0.0026408698976039886,-0.015388141534198074,-0.005716642347443849
1761467672177008600,3.826008544921875,0.008131868529319762,0.002488437548559159,-0.008137531085126102
1761467672186961700,3.835961669921875,-0.007280220136046409,-0.01010271194456145,-0.0016176095307804644
1761467672196914700,3.845914794921875,-0.0051852936834096905,-0.005945245205238461,-0.011351926554366945
1761467672206868700,3.85586865234375,-0.011620879688858984,0.0023496683986857533,0.0017981719957664607
1761467672216821800,3.86582177734375,-0.0005476970106363296,-0.007276439010072499,0.007271196579374373
1761467672226774800,3.87577490234375,-0.0023439327776432037,-0.0033810390067286786,0.005215487892273813
1761467672236727800,3.885727783203125,-0.009525953236222266,0.008157605758775026,-0.004668886860180646
1761467672246680800,3.895680908203125,-0.003689502167701721,-0.000856836025044322,0.0014008615075610576
1761467672256633600,3.905633544921875,0.0036421558946371077,-0.009719393449090421,-0.003827759860921651
1761467672266586600,3.915586669921875,-0.012817395997047424,-0.007133614739589393,-0.01967856873711571
1761467672276540400,3.92554052734375,-0.0047369653940200806,-0.008191964686103165,0.0003568688799627125
1761467672286493400,3.935493408203125,-0.0072784665703773494,-0.003263897166773677,-0.0024599786390550435
1761467672296446500,3.945446533203125,-0.012065700846910476,0.007313866677321494,0.0011662125014699994
1761467672306399500,3.9553994140625,-0.009822305834293365,0.013510638958215714,-0.003954929904546588
1761467672316352500,3.9653525390625,-0.0050339025139808655,-0.006102134533692151,-0.009956289211194961
1761467672326305500,3.975305419921875,-0.0021884499549865723,-0.006929945393651723,-0.010285649029724299
1761467672336258600,3.985258544921875,0.004397358176112175,0.006211385328136384,-0.010273227939568459
1761467672346834700,3.995834716796875,-0.0033832126975059506,0.004603420408535748,-0.013282200497202575
1761467672356787700,4.00578759765625,-0.008919219514727591,-0.0006156659466214477,-0.006538114798162132
1761467672366740700,4.01574072265625,-0.003382628175616264,-0.01331005661850795,-0.015209606629516929
1761467672376693800,4.02569384765625,0.003947860842943191,0.0021979667020030316,-0.00768514767512679
1761467672386646500,4.035646484375,-0.006527940464019775,-0.0038663383056409656,-0.006801533241011202
1761467672396599600,4.045599609375,-0.0009925181686878204,-0.009449508732836693,-0.00514147280799225
1761467672406552600,4.055552490234375,-0.002041150438785553,-0.00726504083322361,0.0032577596869319677
1761467672416506600,4.065506591796875,-0.002789338457584381,0.0006814977244473993,0.006574300356395542
1761467672426459600,4.075459716796875,-0.011020575708150864,0.004093954782746732,-0.0064256491333246225
1761467672436412700,4.08541259765625,0.0016974515676498412,0.0006287811565212905,-0.0021987338869832456
1761467672446365700,4.09536572265625,-0.008326514318585396,-0.012443539449665695,-0.008790442035906017
1761467672456318700,4.105318603515625,0.0034960254222154616,-0.012242719647940247,-0.007006335098110139
1761467672466271700,4.115271728515625,-0.002788753935694694,-0.0018799319950863719,-0.010096921524591743
1761467672476224800,4.125224853515625,0.0018505963027477263,0.0005892163311131298,-0.0028878486623056233
1761467672486178600,4.135178466796875,-0.005330255112051963,0.011838522761221975,-0.0044458369603380555
1761467672496131600,4.145131591796875,-0.01475683962702751,-0.0049220579036511475,-0.0025228695411235093
1761467672506084600,4.155084716796875,-0.006827800193428993,-0.00950578723102808,-0.009862838774081319
1761467672516037600,4.16503759765625,-0.010420271727442742,-0.00023116014106199144,0.004563289327546954
1761467672525990700,4.17499072265625,-0.002790507501363754,-0.0074027870697900644,0.007060604302305728
1761467672535943400,4.184943359375,-0.006232172387838363,-0.009333188876789062,0.0031812786509282883
1761467672545896400,4.194896484375,-0.013710545444488525,-0.010412161486223339,-0.006617390579450875
1761467672555850800,4.204850830078125,0.009035539370775222,-0.012374017877411096,-0.007605506567656993
1761467672565803500,4.214803466796875,-0.0035328503012657165,-0.0066916065931320184,0.008061634571012109
1761467672575756500,4.224756591796875,-0.01430500420629978,0.012706081109680235,-0.0160333623688668
1761467672585709600,4.23470947265625,-0.006525602376461028,0.0014195114091038704,-0.007045808591973036
1761467672595662600,4.24466259765625,-0.009965513697266578,-0.016493271498195825,-0.007973225635197013
1761467672605615600,4.25461572265625,-0.0029296237111091613,-0.003142755005136132,0.007462207373138517
1761467672615569700,4.264569580078125,-0.0035270050823688506,-0.012380502417124807,-0.0018528795913793146
1761467672625522700,4.274522705078125,-0.015048516049981116,-0.0052920054608955975,0.01419860295606777
1761467672635475700,4.284475830078125,-0.005021627554297447,0.004601666842866689,0.005923471764847636
1761467672645428700,4.2944287109375,-0.0008306056052446365,0.0005215213897638022,-0.00004369301125407219
1761467672656003800,4.30500390625,-0.009957914912700653,-0.007513681832049041,-0.003306147139612585
1761467672665957600,4.31495751953125,-0.005915946045517921,0.0013850611502304673,0.003239036720152944
1761467672675910700,4.32491064453125,-0.007561959686875343,0.009504362458921969,-0.0054194494991563254
1761467672685863700,4.33486376953125,-0.0033726913034915922,-0.0035001901406794783,-0.00834268000209704
1761467672695816400,4.34481640625,-0.008158172014355659,-0.0004993643568828701,-0.006855345787480473
1761467672705769500,4.35476953125,-0.0011252046376466751,-0.00004652428915724158,0.0001790828939527273
1761467672715722500,4.364722412109375,-0.008607084825634955,-0.007714392035920173,-0.01317192678945139
1761467672725675500,4.374675537109375,-0.0002262099713087082,-0.005912840772978961,0.004268872958235442
1761467672735629600,4.384629638671875,-0.001423310801386833,-0.011596311503183096,0.004571235171984881
1761467672745582600,4.39458251953125,0.004115034103393554,0.001735829082969576,0.000008767828345298767
1761467672755535600,4.40453564453125,-0.007707505637407302,-0.011434490271285175,0.00005299056256189942
1761467672765488600,4.414488525390625,-0.004415478354692459,-0.007456471752095967,-0.005840360058657824
1761467672775441700,4.424441650390625,-0.0036690439015626907,0.005171137293893843,-0.004783160889614373
1761467672785394700,4.434394775390625,-0.0018728081345558165,-0.0012253770764917135,-0.005078728036396205
1761467672795347700,4.44434765625,-0.011000117442011832,-0.005280917811300605,-0.0031606011890806256
1761467672805301800,4.4543017578125,-0.00890752907693386,-0.00004561097370460629,-0.001261288640089333
1761467672815254800,4.4642548828125,-0.00666238049864769,-0.008422047114931046,0.0011233232078142464
1761467672825207800,4.474207763671875,-0.0009749825119972228,0.008124671603552997,-0.005447250821534544
1761467672835160800,4.484160888671875,-0.008906944555044174,-0.0031052908052690326,-0.0037354236686602234
1761467672845113600,4.494113525390625,-0.008908698120713234,-0.007890607119351625,-0.00245037056049332
1761467672855066600,4.504066650390625,0.002162146469950676,-0.006357333137467503,-0.0032025589009746906
1761467672865020400,4.5140205078125,-0.009361702585220337,-0.012878697730228305,-0.008262527437973767
1761467672874973400,4.523973388671875,-0.003525836038589477,0.002384082124941051,-0.0024384609269909557
1761467672884926500,4.533926513671875,-0.0024777882903814314,-0.0023724464860744774,-0.0006488923627883195
1761467672894879700,4.543879638671875,-0.000533083963394165,-0.009811272983625531,-0.0028100341857410964
1761467672904832800,4.553832763671875,-0.008013795107603073,0.0038224260986782607,-0.013174721534736453
1761467672914785800,4.563785888671875,-0.016692191603779792,-0.010677826685085892,-0.005128375864401459
1761467672924738800,4.57373876953125,-0.0036731355547904966,-0.00112807244816795,-0.004722261015232652
1761467672934692900,4.58369287109375,0.003510638469457626,0.006659001231472939,-0.0011862506425008178
1761467672944646000,4.59364599609375,-0.008610007435083389,-0.004873213793244213,0.0022283983728848397
1761467672954599000,4.603598876953125,-0.00367255103290081,0.005425934038870036,-0.019592516155168414
1761467672964552000,4.613552001953125,-0.009057751202583312,0.011029562732204795,0.001605846027750522
1761467672974505000,4.6235048828125,-0.003221300134062767,0.007764569586887956,-0.003783920719195157
1761467672984457700,4.633457763671875,-0.013994038560986518,0.008906286967918276,-0.011387143998220562
1761467672994410800,4.64341064453125,-0.010403905114531516,-0.0014112002384848892,-0.008917064090259373
1761467673004364800,4.65336474609375,-0.018782441881299017,-0.004102740877401084,-0.004802322247810661
1761467673014317800,4.66331787109375,-0.0045674540460109705,-0.004890603319462388,-0.017978030163235962
1761467673024270800,4.673270751953125,-0.0018763152658939361,-0.007242207946907728,-0.010473408420477061
1761467673034223900,4.683223876953125,0.002011924344301224,0.00019756839871406555,-0.0075228880518116055
1761467673044177000,4.693177001953125,-0.00951017114520073,-0.002453969023376703,-0.01271921458588913
1761467673054130000,4.7031298828125,-0.012802198427915572,0.0037148558046668765,-0.0020634353358298537
1761467673064083000,4.7130830078125,-0.0026280104160308834,0.005795954661350697,-0.012208726046793163
1761467673074036700,4.72303662109375,-0.014899462968111038,-0.0019887261318042872,-0.013945139651652425
1761467673083989800,4.73298974609375,-0.002179097604751587,-0.010607008204888552,-0.0009366597956046461
1761467673093942800,4.74294287109375,0.007398293557763099,-0.015900456704199314,0.005709080095496029
1761467673103895800,4.752895751953125,-0.008162848189473151,-0.0017874679386615752,-0.0028331228003837168
1761467673113848800,4.762848876953125,-0.011006547182798384,-0.010947473939321934,-0.012705551386717705
1761467673123801900,4.7728017578125,0.0032107787400484085,0.00014907134817913174,-0.015324081588350235
1761467673133756000,4.782755859375,-0.016241525226831435,-0.0038064796108752486,-0.017495269881282
1761467673143709000,4.792708984375,-0.012052256843447684,-0.017169691188726573,-0.007201309680938721
1761467673153661700,4.80266162109375,-0.0008306056052446365,-0.006145772746019065,0.0012089191320352256
1761467673163614700,4.81261474609375,0.00021627309918403624,-0.0014875351440161466,-0.010878628220502286
1761467673173567700,4.822567626953125,-0.012651391780376433,-0.01683360936846584,-0.006072269118390977
1761467673183520800,4.832520751953125,0.004409633135795593,-0.0019464213600382209,0.0017924181084148585
1761467673193473800,4.842473876953125,0.001118190374970436,0.00014826763058081269,-0.004510938085801899
1761467673203427800,4.852427734375,0.002913257098197937,-0.001424680774565786,-0.006819288093410432
1761467673213380900,4.862380859375,0.001267243456840515,-0.0010865348613820968,-0.007236691521573811
1761467673223334000,4.872333984375,0.004708908343315124,-0.0033121932879090306,-0.00004131839107722044
1761467673233287000,4.882286865234375,0.006955810487270355,-0.008163085651490837,0.002305372599232942
1761467673243240000,4.892239990234375,-0.002923193970322609,-0.004157046614214777,-0.015820833863038567
1761467673253193000,4.90219287109375,-0.018038345515727996,-0.0006005231764167547,0.005036204068921506
1761467673263146000,4.91214599609375,0.002011924344301224,-0.007402677471935749,-0.006019844811409712
1761467673273099800,4.922099853515625,-0.010857494100928306,-0.006677943393960595,-0.011412789896130562
1761467673283052800,4.932052734375,-0.007415829214453697,0.0006335851958021521,-0.006495042841415852
1761467673293005800,4.942005859375,-0.007415829214453697,0.004577719711698592,0.0015018376640044153
1761467673302958800,4.951958740234375,0.0011135141998529433,-0.006829517226479947,-0.00046878655552864073
1761467673312912000,4.961911865234375,-0.0069669164031744,0.0010129947011359036,-0.010301906044781208
1761467673322865000,4.971864990234375,-0.0000865092396736145,-0.00341777255423367,0.002195208489336073
1761467673332818000,4.98181787109375,-0.0020335516542196275,-0.004575016297958791,-0.0064935450040735304
1761467673342771700,4.991771728515625,-0.009967851784825324,-0.0042007213591597975,-0.00549306272463873
1761467673352724700,5.001724853515625,-0.012811550778150558,-0.00266984026376158,-0.01740136278644204
1761467673362677800,5.011677734375,0.008884732723236083,-0.00952631856240332,-0.008933540301024914
1761467673372630800,5.021630859375,-0.008772504520416259,-0.008486180126015097,0.003178392574097961
1761467673382583800,5.031583740234375,-0.00532908606827259,-0.0021680464877747,-0.0013655709984712302
1761467673392536800,5.041536865234375,-0.008471475747227668,0.0018285488677211104,0.0035373620796017346
1761467673402491000,5.051490966796875,0.007839023062586783,-0.009265311272349207,-0.005300407963059842
1761467673412444000,5.06144384765625,-0.004281622841954231,-0.014071560776606202,-0.006237506150081754
1761467673422397000,5.07139697265625,-0.007573065602779388,-0.014011884744931011,-0.0016998992530629037
1761467673432350000,5.081349853515625,-0.010717208847403526,-0.0068501033567823465,-0.011679331877827643
1761467673442303000,5.091302978515625,-0.006079027652740478,-0.0034212796855717896,-0.00581865968350321
1761467673452255700,5.101255859375,0.006640753188729286,0.014429525635112076,-0.009991141328867524
1761467673462208800,5.111208740234375,0.004547580301761627,-0.006206142897438258,-0.011419274435844272
1761467673472162800,5.121162841796875,-0.01670095943212509,-0.0043097164252772924,-0.0006773330059833824
1761467673482115800,5.13111572265625,-0.0027858313262462612,-0.005107095614355057,-0.004867971362546086
1761467673492068900,5.14106884765625,-0.003833294552564621,0.002096753083541989,0.0023309088992886245
1761467673502022000,5.15102197265625,-0.00772328772842884,-0.006234857535269111,-0.0006469378677196801
1761467673511975000,5.160974853515625,-0.0071282444447278975,0.0025816505236551162,-0.005094053469691425
1761467673521928000,5.170927978515625,-0.012217676538228988,0.0006481982430443168,-0.0072478887690231196
1761467673531881000,5.180880859375,-0.010572247418761253,-0.002766414239723235,0.004657105090841651
1761467673541834800,5.190834716796875,0.0013946692287921906,0.005200637383013964,-0.009172920281160622
1761467673551787800,5.200787841796875,-0.01985328598320484,-0.007954447869490832,-0.0042340208405628795
1761467673561740800,5.21074072265625,-0.015664602121710777,-0.0013498437063768506,-0.003550733017828315
1761467673571693800,5.22069384765625,-0.011924831071496009,-0.0019604498853906987,-0.01261686845626682
1761467673581646800,5.230646728515625,-0.017163316246867177,-0.013936865013651548,0.003004314648825675
1761467673591599900,5.240599853515625,-0.0035480478703975677,-0.012280987565405667,-0.003179068427532911
1761467673601552600,5.250552734375,-0.00818856715261936,0.004727941837348044,-0.007628576915990561
1761467673611507000,5.2605068359375,0.0000415010541677475,0.0015517960192635654,0.0020738288656808436
1761467673621459700,5.270459716796875,-0.010133271479606628,-0.004580149130802601,-0.0063495516898110504
1761467673631412700,5.280412841796875,-0.003100304102897644,0.001733472729101777,-0.011252028110157698
1761467673641365800,5.29036572265625,-0.01761807427704334,-0.007204780279658735,-0.005224621046800166
1761467673651318800,5.30031884765625,-0.011185995402932166,-0.0016211897273547945,-0.010885642483178526
1761467673661271800,5.310271728515625,-0.004302665629982948,-0.008188110494893043,-0.00007690116111189127
1761467673671224800,5.320224853515625,-0.005348959812521934,-0.015209697961062193,-0.008825148023106157
1761467673681179000,5.330178955078125,-0.009238368466496467,-0.0012938574691303073,-0.00019161358196288347
1761467673691132000,5.3401318359375,0.00767184980213642,0.0006148074300959705,-0.0010513356838375329
1761467673701085000,5.3500849609375,-0.010883213064074516,0.003115574737265706,-0.006631254708021879
1761467673711038000,5.360037841796875,-0.00549509028494358,-0.007168759118206799,-0.0066489182288758455
1761467673720991000,5.369990966796875,0.00019230770170688627,0.011173976171575487,-0.014420246350113302
1761467673730944000,5.379944091796875,0.0036339725881814953,0.004493037102930248,0.0009012231560423969
1761467673740897800,5.389897705078125,0.00019406126737594602,-0.013317856332473456,-0.0003922689869068563
1761467673750850800,5.399850830078125,-0.011627309429645538,-0.007284238724038004,-0.005299129321426153
1761467673760803800,5.409803955078125,-0.010430793121457099,-0.008790478568524121,-0.010224676090106367
1761467673770756600,5.419756591796875,-0.010578092637658118,-0.007401818955410272,0.010664729741495103
1761467673780709600,5.429709716796875,-0.005938742399215698,-0.0035935492462478577,-0.012964019659813492
1761467673790662700,5.43966259765625,-0.0029430677145719526,0.008524776837043464,-0.010560429116804153
1761467673800615700,5.44961572265625,-0.0009983633875846863,-0.002529171417746693,-0.01756764099774882
1761467673810569700,5.45956982421875,-0.0038426469027996062,-0.016803725686855613,-0.009321991629339754
1761467673820522800,5.469522705078125,-0.011024082839488983,-0.00716938017271459,-0.0009326412076130509
1761467673830475800,5.479475830078125,0.00035012861192226406,-0.003364690660126507,-0.0036864699603989717
1761467673840428800,5.4894287109375,0.006335632762312889,-0.0021151655230671165,-0.0012433511245995758
1761467673850381800,5.4993818359375,-0.0066822542428970335,-0.013375413472298531,-0.007445110107865184
1761467673860334800,5.5093349609375,-0.0029401451051235196,-0.0055846317319199435,-0.001340692285541445
1761467673870288000,5.519287841796875,-0.0054833998471498484,-0.0006477781179361045,-0.0030288828345015643
1761467673880242000,5.529241943359375,-0.0006949965268373489,0.0038773163573816417,-0.007497570947464555
1761467673890195000,5.53919482421875,0.005292261189222335,-0.00506168557005003,0.011776837435550988
1761467673900147700,5.549147705078125,-0.004733458262681961,-0.002670351720415056,0.007727178452257066
1761467673910100700,5.559100830078125,-0.025981997996568678,0.000018047113344073295,-0.014424794661067426
1761467673920053500,5.569053466796875,-0.002039396873116493,0.001430891319643706,-0.015305961409769952
1761467673930006500,5.579006591796875,-0.010268880558013916,-0.005843794124759733,-0.005403594342898577
1761467673939959600,5.58895947265625,0.013519991308450698,0.0072341342383064325,-0.0009657945585437119
1761467673949913600,5.59891357421875,-0.002638531810045242,0.0006766571525484323,0.0004309752957895398
1761467673959866600,5.60886669921875,-0.00877425808608532,0.0055873716782778495,-0.013463511880859732
1761467673969819600,5.618819580078125,-0.0029372224956750867,0.0022924765850417315,-0.009934351374022663
1761467673979772700,5.628772705078125,-0.013262801676988602,-0.007190404694434255,-0.006658581106364726
1761467673989725700,5.6387255859375,0.0028998130947351453,-0.0019245383217930793,-0.006449450134020298
1761467673999678700,5.6486787109375,0.0121779290497303,0.002881711182463914,-0.008259166437108069
1761467674009631700,5.6586318359375,-0.0012882862448692321,0.0038066622739657756,-0.009799710409995168
1761467674019585500,5.66858544921875,-0.010415595552325248,-0.002295362661872059,-0.0018636384474113583
1761467674029538600,5.67853857421875,-0.00398059406876564,0.003409516182541847,-0.010411704828497022
1761467674039491600,5.68849169921875,-0.005628361275792122,-0.003915018019266426,-0.008204732836131006
1761467674049444600,5.698444580078125,-0.004431260445713996,-0.0008814590096473693,0.006339066828414798
1761467674059397600,5.708397705078125,-0.005178863942623138,0.006328052244056016,-0.005929316983744502
1761467674069350400,5.718350341796875,-0.0057756607919931405,-0.000139682465326041,-0.00304181538131088
1761467674079303400,5.728303466796875,-0.005924129351973533,0.009525112986005842,0.001896682200487703
1761467674089257500,5.738257568359375,-0.004129062628746033,-0.0016851218090392648,0.002402878156956285
1761467674099210500,5.74821044921875,0.0006570026040077209,-0.009349244962446391,0.014471629477478563
1761467674109163500,5.75816357421875,-0.004580898049473763,0.007968604259006678,-0.013835413933172822
1761467674119116500,5.768116455078125,-0.008471475747227668,0.0030074747202917932,-0.0009715301795862614
1761467674129069600,5.778069580078125,-0.013709376400709152,-0.008019348065555095,-0.0005878646242432296
1761467674139022600,5.788022705078125,-0.0072749594390392296,-0.00267983193481341,0.0029477804223075506
1761467674148975600,5.7979755859375,-0.009967267262935639,-0.007936784348636865,0.0021099778912961483
1761467674158929700,5.8079296875,-0.022087328645586966,-0.00028897300921380516,0.007787676467839628
1761467674168882700,5.817882568359375,-0.006673486414551734,-0.0053226380611769855,0.004483629953768104
1761467674178835700,5.827835693359375,0.001710311049222946,-0.008556560214795172,-0.0009114522891119122
1761467674188788700,5.837788818359375,-0.011010054314136505,-0.007497424816992134,-0.008314622951392084
1761467674198741800,5.84774169921875,0.0009627075523138045,-0.01491493453187868,0.0021233670958317814
1761467674208694800,5.85769482421875,-0.0009808277308940886,-0.011148969594482331,-0.010529120663087815
1761467674218647600,5.8676474609375,-0.005316811108589172,-0.004827840281557291,-0.020704806512314825
1761467674228601600,5.8776015625,0.0048597149908542634,-0.007857179773785174,0.000014941840805113315
1761467674238554400,5.887554443359375,-0.006363105291128158,-0.008189206473436206,0.0019067834693938493
1761467674248507400,5.89750732421875,0.0038128362864255903,0.002921623067744076,-0.0007688837469555437
1761467674258460400,5.90746044921875,-0.0035158991664648053,-0.005830551050696521,-0.010156962882447986
1761467674268413400,5.917413330078125,-0.0009726444244384765,-0.0008847834778949618,-0.011329623391013592
1761467674278366500,5.927366455078125,-0.02281915005147457,-0.013388181622326373,-0.002776296312920749
1761467674288319500,5.937319580078125,-0.004561608827114105,-0.008196951388474554,-0.016382833393663167
1761467674298273500,5.9472734375,-0.023416531422734258,-0.004326448364369571,-0.009180957457143812
1761467674308226600,5.9572265625,-0.014887772530317306,-0.006758187289629131,-0.0059031961617991326
1761467674318179600,5.9671796875,0.0024736966371536255,-0.012784370510280132,0.0005917005491442978
1761467674328132600,5.977132568359375,0.012349778485298156,0.004422529149986803,-0.006583451777230948
1761467674338085600,5.987085693359375,-0.01144201599061489,-0.0057246795234270394,-0.01602247564867139
1761467674348038700,5.99703857421875,0.0008276829957962036,0.007789320435654372,-0.003660933660343289
1761467674357992700,6.00699267578125,0.006813771668076515,-0.0016086407730355858,-0.008004387958440929
1761467674367945700,6.01694580078125,-0.0006675239980220794,0.00006922931130975484,-0.010564575568959116
1761467674377898800,6.026898681640625,-0.0048562078595161436,-0.006605426147021353,-0.019391075298935172
1761467674387851500,6.0368515625,-0.005455342796444893,-0.0000030687399208545685,-0.008728044324181974
1761467674397804500,6.046804443359375,-0.004706570255756378,-0.008215783953107894,-0.0051441214228048916
1761467674407757600,6.056757568359375,-0.00036649522483348846,0.0026966734717600045,0.005585325851663947
1761467674417710600,6.066710693359375,-0.006200023683905601,0.0017578947843052445,-0.0029678733622655273
1761467674427664600,6.07666455078125,-0.008295534658432007,-0.014353081131726503,-0.0075181388114579015
1761467674437617700,6.08661767578125,-0.014279285243153571,-0.007253934917319566,0.00621412527449429
1761467674447570700,6.09657080078125,0.004275777623057365,0.0011762041725218296,-0.002266794154513627
1761467674457523700,6.106523681640625,-0.002010170778632164,0.0040591026650741695,-0.01623715957896784
1761467674467476500,6.1164765625,-0.004257072922587394,-0.0036421010957099495,-0.009152772542275488
1761467674477429500,6.126429443359375,-0.0066512745827436446,-0.006060797876305877,0.003110916828457266
1761467674487382500,6.136382568359375,-0.007549684727191925,-0.003290675575844943,-0.0003868621594272554
1761467674497336600,6.146336669921875,-0.002463759765028953,0.004483703019004315,-0.003588745206966996
1761467674507289600,6.15628955078125,-0.01862286740541458,-0.0007064495026133954,-0.014692323023453354
1761467674517242600,6.16624267578125,0.008462123396992684,-0.0020481281688436866,0.005330748302396386
1761467674527195600,6.176195556640625,0.0030775077491998672,0.010898648095224051,-0.004903919458761811
1761467674537148400,6.1861484375,-0.0075467621177434914,-0.0009466332003474235,-0.0019303835406899452
1761467674547101400,6.196101318359375,0.006368950510025024,-0.0018769728530198336,0.00494381307773292
1761467674557054500,6.206054443359375,-0.008593056300282478,-0.006024539252836257,-0.010820048167370259
1761467674567008500,6.216008544921875,-0.014427753803133964,-0.006310881913546473,-0.009667297935672104
1761467674576961500,6.22596142578125,-0.007993921363353728,-0.003993362218793481,-0.004783416617941111
1761467674586914600,6.23591455078125,-0.014578560450673102,-0.002620612560864538,-0.006222253782022744
1761467674596867600,6.24586767578125,0.0015828852772712706,0.009421378616895525,-0.008582790634594857
1761467674606820600,6.255820556640625,0.00038461540341377254,-0.00047647667163982984,-0.018111319420393554
1761467674616773600,6.265773681640625,0.009361702585220337,-0.0053912097853608424,-0.0018790917448699472
1761467674626726700,6.2757265625,-0.0009638765960931778,-0.0016694493158720433,-0.0026090134546160695
1761467674636680700,6.2856806640625,-0.012336919003725052,0.010727072654291988,-0.006345953226927667
1761467674646633700,6.2956337890625,-0.02161269687116146,0.0008576580089516937,-0.008808635279722511
1761467674656586800,6.305586669921875,0.004721183302998542,-0.004549680927302688,0.00447199431490153
1761467674666539800,6.315539794921875,-0.0027618659287691116,0.00019221637016162275,-0.0025554383701644834
1761467674676492800,6.325492919921875,0.012649638214707375,-0.009995360846258699,-0.009848116128984839
1761467674686445600,6.335445556640625,-0.012188450443744659,-0.0015775149824097752,-0.0027205840703099964
1761467674696398600,6.345398681640625,-0.00395838223695755,0.018162209357414392,-0.0037844504421576854
1761467674706352400,6.355352294921875,-0.012036474752426148,0.00292131254049018,0.0034687538227997717
1761467674716305400,6.365305419921875,-0.009493220010399818,-0.005886920880433172,0.00022200872022658586
1761467674726258400,6.375258544921875,-0.0005137947410345078,0.0010409604202955961,-0.005349453002866357
1761467674736211500,6.38521142578125,-0.006946458137035369,-0.015689316437859088,-0.006147398447524756
1761467674746164500,6.39516455078125,-0.0056003042250871654,-0.0034097536445595322,-0.012089611445460467
1761467674756117500,6.405117431640625,0.003974164327979088,0.010485153657197951,-0.0009100457833148539
1761467674766070500,6.415070556640625,-0.0033580782562494275,-0.001002729035448283,0.0004617357602342963
1761467674776024600,6.425024658203125,-0.009494973576068877,0.001331120739597827,-0.008333108456153423
1761467674785977600,6.4349775390625,-0.012039981883764267,-0.0027898133816197514,0.010056096323858945
1761467674795930600,6.4449306640625,-0.014583236625790596,0.006913797976449132,-0.008543079678714274
1761467674805883600,6.454883544921875,0.0006803834795951843,-0.012655921825021505,0.0017708821300417184
1761467674815836700,6.464836669921875,-0.008297288224101066,-0.015882592253945768,0.005095606105960905
1761467674825789700,6.474789794921875,0.0014297405421733855,-0.006352912690676748,0.0006561806201003491
1761467674835742500,6.484742431640625,0.0009825812965631483,-0.0014091544118709862,-0.008234853979758918
1761467674845696800,6.49469677734375,-0.004852700728178024,0.003152143887989223,-0.00940075595397502
1761467674855649500,6.5046494140625,-0.010089432337880134,-0.01832441418180242,-0.018793036340549588
1761467674865602600,6.5146025390625,-0.001557166314125061,-0.007735069497767835,-0.009864172214642166
1761467674875555600,6.5245556640625,-0.007841945672035217,0.004243884647451341,-0.0029960217445157466
1761467674885508600,6.534508544921875,0.006225158125162124,0.0036834012204781173,-0.010502798911742866
1761467674895461600,6.544461669921875,-0.027141689425706862,-0.006423986899200826,-0.0086246022160165
1761467674905415200,6.554415283203125,-0.010080664509534836,-0.00637877778429538,-0.00779606070369482
1761467674915369000,6.564368896484375,-0.0024479776740074155,-0.007831588674802333,-0.014842216355539858
1761467674925322000,6.574322021484375,-0.00978022025823593,-0.009811693108733742,-0.0021728322607465086
1761467674935274800,6.584274658203125,-0.003044190001487732,0.0022050905625335872,0.007775730301719158
1761467674945227800,6.594227783203125,0.0021937106519937513,0.004464596459735184,-0.0019593721731565894
1761467674955180800,6.604180908203125,-0.004389174869656563,-0.007362400260474532,0.002746997153200209
1761467674965133800,6.6141337890625,0.003393149569630623,0.00362704965705052,0.0033542971302755174
1761467674975086800,6.6240869140625,-0.009176409146189689,-0.0011646598652005195,-0.018785528887528925
1761467674985041000,6.634041015625,-0.0037894554108381267,-0.0011393792934715748,-0.0036481837766245005
1761467674994994000,6.643993896484375,-0.012618074032664298,0.0026439203712157904,-0.00781887532370165
1761467675004947000,6.653947021484375,-0.0024421324551105496,-0.003612710604444146,-0.006020867724716663
1761467675014900000,6.66389990234375,0.0007031798332929611,-0.007407408445980399,0.0023061397842131554
1761467675024853000,6.67385302734375,0.0005523731857538223,-0.0000491181050427258,0.003422046870552003
1761467675034806000,6.683805908203125,-0.0067798693984746925,-0.0048436223725788295,-0.004657854009512812
1761467675044759000,6.693759033203125,-0.004983049109578132,0.007308624246623366,-0.0075197097140364344
1761467675054713000,6.703713134765625,-0.0021428572475910186,-0.006139836195576936,-0.007199720512051135
1761467675064666000,6.713666015625,0.003692424777150154,0.0032752770773135124,-0.001494092748966068
1761467675074619100,6.723619140625,-0.007830839756131172,-0.001811323738284409,-0.004138104451727122
1761467675084572200,6.733572265625,-0.0123217214345932,0.011763740491960196,-0.00916345833307132
1761467675094525000,6.74352490234375,-0.016212883654236794,0.007160173952952027,-0.004445197639521211
1761467675104478000,6.75347802734375,0.0030897827088832855,-0.012649382486380636,0.003143321260716766
1761467675114431000,6.763430908203125,-0.013968904119729996,-0.008307097232062369,0.01017871805652976
1761467675124384800,6.773384765625,-0.015913023924827574,-0.01826614465592429,-0.0004261164575815201
1761467675134337800,6.783337890625,-0.0005032733470201492,-0.00666555883642286,-0.002738923444598913
1761467675144290800,6.793290771484375,0.004586158746480941,-0.00007739435145631433,-0.007755345100816339
1761467675154243800,6.803243896484375,0.0018926818788051604,-0.008491696551349013,-0.013786496757529675
1761467675164196900,6.81319677734375,-0.014266425761580466,-0.0009269969181157648,-0.008274948528129607
1761467675174150000,6.82314990234375,-0.00034837504625320433,-0.002389726414438337,0.003934380306862295
1761467675184103000,6.83310302734375,0.008032499808073043,-0.005773998557869344,-0.006834266466833651
1761467675194057000,6.843056884765625,0.006086626437306404,0.0009821977040730416,-0.003043861207924783
1761467675204010000,6.853010009765625,-0.008428221127390861,-0.002772442121710628,-0.014416757485084235
1761467675213963000,6.862962890625,-0.004837503159046173,-0.0051914311632514,-0.01682975517725572
1761467675223916000,6.872916015625,-0.005883797341585159,-0.009487246927339583,-0.0009801701437681912
1761467675233869000,6.882869140625,0.00234627086520195,0.006403400768898427,-0.0076923263345845035
1761467675243821800,6.89282177734375,-0.0004962590843439102,0.006274696355313063,-0.005586348764970898
1761467675253776100,6.902776123046875,0.02104921776950359,0.002788425142131746,-0.0035813290854915976
1761467675263729000,6.91272900390625,-0.017407646396756172,-0.004220394174009562,-0.005785542865190655
1761467675273682000,6.922681884765625,-0.0022960019826889035,-0.004735010898951441,-0.0006923844446428119
1761467675283635000,6.932635009765625,-0.0024450550645589825,-0.01199079071348533,-0.011565496239811181
1761467675293588000,6.942587890625,0.0020446575701236723,-0.005005534936022013,-0.011049363411217927
1761467675303541000,6.952541015625,-0.009176409146189689,-0.1472012069256976,-0.02871166042247787
1761467675313494000,6.962493896484375,0.012366729620099067,0.3143848061069846,0.017559165430348366
1761467675323448000,6.972447998046875,-0.10778116028308868,-0.21566450229901818,-0.026572693898715076
1761467675333401000,6.982401123046875,0.19791209758520126,0.011029836726840585,0.017663740049675105
1761467675343354000,6.99235400390625,-0.21507073765695095,0.08354832577509805,-0.0438888991523534
1761467675353307100,7.00230712890625,0.16334756468236444,-0.11328363015688955,0.023775099069438872
1761467675363260000,7.012260009765625,-0.06693827776312827,0.0765125271204859,0.003869534909725189
1761467675373213000,7.022212890625,-0.04299567663967609,-0.01475926904613152,-0.02860878456989303
1761467675383166000,7.032166015625,0.09047638973891735,-0.01611965241283178,0.027731727740727363
1761467675393120000,7.0421201171875,-0.11975742928087711,0.025043036646023392,-0.020372250089701265
1761467675403073000,7.052072998046875,0.0936199484616518,-0.030684604463260618,0.008462123396992684
1761467675413025800,7.06202587890625,-0.049430093601346016,0.004092329081241041,-0.0077036879788152865
1761467675422978800,7.071978759765625,-0.006783376529812812,0.028929705353640017,-0.018454945226293058
1761467675432931800,7.081931884765625,0.02643675602674484,-0.019660211096517742,-0.0139625291778706
1761467675442884900,7.091884765625,-0.014714754050970077,0.023314459287747738,-0.013579429878108203
1761467675452838000,7.101837890625,-0.0066308163166046135,-0.0028094131312333044,-0.019392372206877916
1761467675462792000,7.1117919921875,0.016857611298561094,-0.005514890963956714,0.007339823102485388
1761467675472745000,7.121744873046875,-0.020997779843211172,0.006684245270583779,-0.0214921392314136
1761467675482698000,7.131697998046875,0.017456161713600156,-0.004849759852420538,0.006489489883463829
1761467675492651000,7.141651123046875,-0.015761048233509063,0.008337382772471756,-0.014865944290999323
1761467675502604000,7.15160400390625,-0.02518763274848461,0.0006043773676268756,-0.007527089302893727
1761467675512557000,7.16155712890625,0.0002513444125652313,0.0016817242755554616,0.0014678075302392243
1761467675522510000,7.171510009765625,-0.015609657064080237,-0.0021868242534808812,-0.018318788158614187
1761467675532464000,7.181464111328125,0.002347439908981323,-0.003511643116455525,0.011895184851903468
1761467675542417200,7.191417236328125,-0.0013917466193437576,0.0011948723403736948,0.006784764769300818
1761467675552370200,7.2013701171875,0.005942834052443504,0.003967533657792955,-0.009737330964580179
1761467675562323000,7.211322998046875,-0.0031897359520196913,-0.0027189218361862,-0.008981799889542163
1761467675572276000,7.22127587890625,-0.013664368215203284,0.00463441833499819,-0.018383505691587924
1761467675582229000,7.23122900390625,0.009830489140748976,0.009657927319128066,-0.013603468340821564
1761467675592182000,7.24118212890625,0.007734978166222572,0.003932042219303548,0.003302987068146467
1761467675602135800,7.2511357421875,-0.013662030127644538,0.0057756973246112465,0.004914824445266276
1761467675612088800,7.2610888671875,-0.015755787536501885,-0.004570942911040037,0.007522467926703393
1761467675622041900,7.271041748046875,-0.00109013332426548,-0.005865421434678137,-0.0071407933990471064
1761467675631995000,7.280994873046875,-0.004983049109578132,0.008140453694574534,-0.002895757974125445
1761467675641948000,7.290947998046875,0.008485504272580146,0.005188179760240018,-0.01009312213230878
1761467675651901000,7.30090087890625,-0.007376666247844696,-0.005688439166266471,-0.002684343713149428
1761467675661854000,7.31085400390625,-0.0024421324551105496,-0.009783307264465838,0.003423362044803798
1761467675671808000,7.32080810546875,-0.00857902777493,-0.006533073296863585,0.0016810666884295642
1761467675681761000,7.330760986328125,-0.005288754057884216,0.01438040753006935,0.0016020101028494536
1761467675691714000,7.340714111328125,-0.0028939678758382794,0.009955741221923381,-0.009153430129401386
1761467675701667000,7.3506669921875,-0.01112520512640476,-0.0012821852976456283,-0.007753427138365804
1761467675711619800,7.360619873046875,0.003689502167701721,-0.007174220744613558,-0.008130918681249022
1761467675721572900,7.37057275390625,-0.010975567522644995,-0.0050974692694842815,-0.006618267362285405
1761467675731526000,7.38052587890625,-0.0024479776740074155,0.011978972411528229,-0.0003833550280891359
1761467675741480000,7.39047998046875,0.00338847339451313,-0.013884276309888808,-0.011763503029942512
1761467675751433000,7.400432861328125,0.0015957447588443754,0.0009063194562681019,-0.015232202053815126
1761467675761386000,7.410385986328125,-0.004839841246604919,0.008896021302230656,0.0014934168955311178
1761467675771339000,7.420339111328125,-0.001093055933713913,-0.023175562273710964,-0.0038509946060366926
1761467675781292000,7.4302919921875,0.06445873590707779,-0.04610637427242473,-0.0010202098932117223
1761467675791245000,7.4402451171875,-0.009141337832808493,0.005264971323497593,-0.006049600628856569
1761467675801198000,7.450197998046875,-0.004496726897358894,-0.005804448495060205,-0.006990772202797234
1761467675811152000,7.46015185546875,-0.06897416750490665,0.05038596955407411,-0.0066049512229859825
1761467675821105000,7.47010498046875,-0.011822539740800856,0.024267321299482135,-0.0034602234564721584
1761467675831058000,7.480057861328125,-0.09906535438597201,0.06647279740953818,0.01279543989356607
1761467675841011000,7.490010986328125,0.015249007058143615,0.019258918552938847,-0.030487109129782763
1761467675850964000,7.4999638671875,0.00386427421271801,0.015659122228994966,0.012344590853527187
1761467675860916700,7.509916748046875,-0.02097615253329277,-0.0078300177722238,-0.03130317475302145
1761467675870871000,7.51987109375,0.03183423115611076,-0.00813840786796063,0.02573964060805738
1761467675880823800,7.52982373046875,-0.023078677770495413,-0.005824851962272078,-0.019312932028807697
1761467675890776800,7.53977685546875,0.018964812710881233,-0.01097876412672922,0.0012457988100126386
1761467675900730400,7.54973046875,-0.0007873509854078293,-0.014897234478406607,0.004943776545114815
1761467675910683400,7.559683349609375,0.0004091653227806091,-0.00392645272873342,-0.002324607022665441
1761467675920636400,7.569636474609375,0.01163023203909397,-0.010215725598670542,0.0039005511024966834
1761467675930589400,7.57958935546875,0.0062432783037424085,0.008805402143020183,-0.0029719832818023858
1761467675940543500,7.58954345703125,-0.012760697373747824,0.00014565554838627575,-0.00010952478908002376
1761467675950496500,7.59949658203125,0.007886953857541084,-0.010385346544533967,-0.004682294331025332
1761467675960449500,7.609449462890625,-0.01635375342965126,-0.0024373101495206353,-0.0007986578307114541
1761467675970402600,7.619402587890625,0.006989712756872176,0.0008844729506410658,0.005960661970078945
1761467675980355600,7.62935546875,0.0010053776502609252,0.010321889386884867,-0.013839286390691995
1761467675990308600,7.63930859375,-0.001536123526096344,0.01044969875132665,-0.0020352686872705814
1761467676000261600,7.64926171875,-0.009910568639636038,0.009992365171574055,-0.004713054795470089
1761467676010215400,7.65921533203125,-0.018287351840734482,0.009747450499795376,-0.010518544470146298
1761467676020168400,7.66916845703125,0.008799977049231529,-0.006352108973078429,-0.0005883943472057581
1761467676030121500,7.67912158203125,-0.010951602125167846,0.010832085665035992,-0.0009450440314598381
1761467676040074200,7.68907421875,-0.018583704438805578,0.004313716746959835,-0.004570741981640458
1761467676050027300,7.69902734375,0.005807809495925903,0.005834423508215695,-0.013260353991575538
1761467676059980300,7.708980224609375,0.0013204349488019943,-0.0007046411380171775,-0.00478354448210448
1761467676069933300,7.718933349609375,0.004462824627757072,-0.005173493647761642,-0.0022212562460452315
1761467676079887400,7.728887451171875,-0.013342296653985977,0.00026513547590002414,0.002072787686064839
1761467676089840400,7.73884033203125,0.0035649990051984785,0.008592983235046267,0.005860142471361905
1761467676099793400,7.74879345703125,-0.006462474012374877,0.0019575455422513187,-0.007725771946460008
1761467676109746400,7.758746337890625,-0.012300094124674796,0.0036125462076626717,-0.008374098053667694
1761467676119699500,7.768699462890625,0.01747954258918762,0.004143091154098511,0.001651584865618497
1761467676129652500,7.778652587890625,0.00012274959683418273,0.002840611987095326,0.003871964328829199
1761467676139605500,7.78860546875,-0.0009212064981460571,-0.004562631740421056,-0.005983385258540511
1761467676149559600,7.7985595703125,0.01673719978928566,-0.0050268151860684155,-0.0068006929907947775
1761467676159512600,7.8085126953125,-0.024708909320831297,0.012648140377365051,0.002744147608987987
1761467676169465600,7.818465576171875,-0.0018143559455871582,0.007162840834073722,-0.014575857036933301
1761467676179418600,7.828418701171875,-0.008995207360386849,0.014795710332691668,-0.016640954606886953
1761467676189371400,7.838371337890625,-0.007495908713340759,-0.0037979492445476353,-0.016695059414301067
1761467676199324400,7.848324462890625,0.0028290859460830685,-0.007560059990733861,0.0009470533254556357
1761467676209277400,7.85827734375,-0.02380290039181709,0.010548044559266417,-0.005221899366751313
1761467676219231500,7.8682314453125,0.014652210208773612,-0.010624543861579148,-0.007736494269873946
1761467676229184500,7.8781845703125,-0.020807810229063032,0.008542458624206483,0.0005914630871266126
1761467676239137500,7.888137451171875,-0.00015665186643600462,0.004595657227188348,0.0022359788911417125
1761467676249090600,7.898090576171875,0.002685293561220169,-0.00827719528414309,0.0021455971939489246
1761467676259043300,7.908043212890625,-0.01886252138018608,-0.0007589834074489772,-0.0033528723581694063
1761467676268996400,7.917996337890625,-0.009735212072730063,0.015893204979505388,-0.004622691364586353
1761467676278950400,7.927950439453125,-0.0046446109354496,0.002840063997823745,0.010296572282537818
1761467676288903400,7.9379033203125,0.015704349610209466,0.00874159792549908,-0.0007828392070718109
1761467676298856400,7.9478564453125,-0.02364917113482952,0.004139547490142286,0.003983936803322285
1761467676308809500,7.9578095703125,0.009869652107357978,-0.014235756628680974,-0.010955492848996072
1761467676318762500,7.967762451171875,0.006725508862733841,0.011124492740351707,-0.008247329868841916
1761467676328715500,7.977715576171875,-0.012579495587944984,-0.0012393508029170334,0.006113642308395356
1761467676340534500,7.989534423828125,0.00043780689537525175,0.011263937743660062,-0.006875858852546662
1761467676350488300,7.99948828125,-0.010032733714580536,-0.001783997339941561,0.005866535679530352
1761467676360441300,8.00944140625,0.012561959931254385,0.00987600878290832,-0.016117844048235564
1761467676370394400,8.019394287109375,-0.030682138511538504,0.013207016369141638,0.0009286774185486138
1761467676380347400,8.029347412109376,0.016302900025248528,-0.006563523234054446,0.005464841277152299
1761467676390300400,8.039300537109375,-0.009885434198379516,-0.0022469752091914415,0.0058337111221626395
1761467676400253400,8.04925341796875,-0.0113806411921978,0.02392994257127866,0.00020911270603537558
1761467676410206500,8.05920654296875,-0.005543605601787567,-0.006855546716880053,-0.013571885892469436
1761467676420160500,8.069160400390626,-0.002850713256001472,-0.008368033639062196,-0.010566712727118283
1761467676430113500,8.079113525390625,-0.0035989012748003004,-0.004031264810077846,-0.010428217571880668
1761467676440066600,8.089066650390626,0.0146527947306633,-0.001550517377629876,0.0008090696268714964
1761467676450019300,8.099019287109375,-0.013927987587451934,0.002836081942450255,0.004602196565829217
1761467676459972400,8.108972412109376,0.01689618974328041,0.00487387138037011,0.008654358033463358
1761467676469925400,8.11892529296875,-0.0021077859342098237,0.0006991429789923131,-0.015421148754656314
1761467676479878400,8.12887841796875,0.002530395260453224,-0.004261274173669517,-0.0056941199883818626
1761467676489832400,8.13883251953125,-0.013479074776172637,0.00929745997628197,-0.006605243483930826
1761467676499785500,8.148785400390626,0.0023836802661418915,0.012353705741744488,-0.007368501207698136
1761467676509738500,8.158738525390625,-0.000008183306455612182,0.012714374013990164,-0.0009853212429210543
1761467676519691500,8.16869140625,-0.008837970972061156,0.0023759718837216494,-0.003625478754471987
1761467676529644500,8.17864453125,-0.009736381116509436,0.0074805467474274336,0.001508924991916865
1761467676539597600,8.18859765625,0.007920856127142906,0.0005363536327145993,0.0017155717462301254
1761467676549550600,8.198550537109375,0.0007364975810050964,-0.006669924484286457,-0.00763498839046806
1761467676559504400,8.20850439453125,0.003876549172401428,-0.010714889026153833,0.01539155733399093
1761467676569457400,8.21845751953125,0.012256254982948302,0.010719638266507535,0.0026929471447132525
1761467676579410400,8.228410400390626,-0.016024083083868025,0.0010017974536865948,0.0047506833921186625
1761467676589363500,8.238363525390625,-0.01063946743607521,0.0037750980919227,-0.004935246178787201
1761467676599316500,8.24831640625,-0.0033060558080673214,0.008045377555955201,-0.014645269011333584
1761467676609269500,8.25826953125,-0.01063771387040615,-0.0119821507493034,0.014678805954754352
1761467676619222500,8.268222412109376,-0.0010585691422224045,-0.012985044181533158,-0.00652149245692417
1761467676629176300,8.27817626953125,0.00402852486371994,-0.01059714439800009,-0.008131959860865026
1761467676639129300,8.28812939453125,-0.009734627550840378,0.007188705927692354,-0.010294142863433808
1761467676649082400,8.298082275390625,0.0064244800895452495,0.00986824560156092,0.0005675524885766208
1761467676659035400,8.308035400390626,-0.0028518822997808456,0.0072558528797701,-0.010202939182333648
1761467676668988400,8.317988525390625,-0.001803250029683113,-0.001512340791709721,-0.006761402160022407
1761467676679564500,8.328564453125,-0.010182371318340301,0.009030826663039624,-0.0007686462849378586
1761467676689517600,8.338517578125,-0.013175123393535612,0.01390851570200175,0.004258552493620664
1761467676699470600,8.348470703125,-0.0018014964640140532,-0.0020587226280942557,0.0029001966872252522
1761467676709423600,8.358423583984376,0.00104220252931118,0.002188943145330995,-0.007719360471982508
1761467676719377400,8.36837744140625,-0.003595394143462181,0.00019473712081089615,-0.010236622256226837
1761467676729330400,8.378330322265626,-0.006588146218657494,-0.0005060498259961605,-0.0030087533619254825
1761467676739283500,8.388283447265625,-0.01856149260699749,0.008739789560902864,0.0026171419621445237
1761467676749236200,8.398236328125,0.007173837152123451,-0.0011717289268039165,0.004208265344798565
1761467676759189200,8.408189208984375,-0.013326514562964438,0.005533979256916791,-0.01152127350559458
1761467676769142300,8.418142333984376,0.0014887772530317305,0.00020971549423411486,0.00509381600767374
1761467676779095300,8.42809521484375,0.0056780456364154816,0.005965794802922755,0.011337624034378676
1761467676789049300,8.43804931640625,-0.01347498312294483,0.013018270597700029,0.002772021996602416
1761467676799002400,8.44800244140625,-0.0017997428983449935,0.00503366505196318,0.004044453085213899
1761467676808955400,8.457955322265626,0.010620178213715553,-0.007630129552260041,-0.002936254381295293
1761467676818908400,8.467908447265625,-0.0034457565397024155,-0.0024802725084125993,-0.010186115911696105
1761467676828861400,8.477861328125,-0.011377134060859679,0.004907225660700351,-0.010097432981245219
1761467676838814500,8.487814453125,-0.010929974815249443,0.013124142124969512,-0.0068606978160329155
1761467676848767500,8.497767578125,-0.004497311419248581,0.00887357200840488,-0.00025472367973998185
1761467676858721500,8.507721435546875,0.0029845687687397003,-0.001331376467924565,0.002411883447319269
1761467676868674600,8.517674560546874,-0.01272562606036663,0.006794117119535804,-0.006164660109579563
1761467676878627600,8.527627685546875,-0.005993687456846237,0.001110244530532509,-0.001136255754623562
1761467676888580600,8.53758056640625,0.007923194214701652,-0.0020338621814735233,-0.003704882399924099
1761467676898533000,8.547533203125,-0.008687748846411705,-0.0034970300692133602,-0.0010801233869045972
1761467676908486100,8.557486083984376,-0.00973579659461975,-0.005913900218904018,0.0016298114252276718
1761467676918440200,8.567440185546875,-0.005696750336885452,-0.0014431480130180716,0.005712057503871619
1761467676928393200,8.577393310546874,-0.017369067952036858,0.001859674658346921,-0.0009663973467424512
1761467676938346200,8.58734619140625,0.004473930543661117,0.0011894837792031465,-0.007103840655833482
1761467676948299300,8.59729931640625,-0.013334113347530364,0.011330993364192545,0.008794698085915298
1761467676958252300,8.607252197265625,-0.005405073913931847,0.01117143715461716,0.009014843642618507
1761467676968205000,8.617205078125,-0.00824877290725708,-0.008990914777759462,-0.004078629349451512
1761467676978158000,8.627157958984375,0.00013034838140010832,0.005112137115653604,0.0036010019003413617
1761467676988112000,8.63711181640625,-0.004957330146431922,-0.002174750223197043,0.002302815315965563
1761467676998065000,8.64706494140625,-0.002563128486275673,-0.009519541761744767,-0.004302099374402314
1761467677008018000,8.657017822265624,-0.011391747108101844,-0.00966159884724766,0.0027385215857997536
1761467677017971000,8.666970947265625,0.009406710770726204,-0.0008823723251000046,0.0018670177145861087
1761467677027924000,8.676924072265624,-0.023214286848902702,0.00871107492307201,-0.0024596498454920947
1761467677037877000,8.686876953125,0.004917582657933235,0.004916030021663755,0.006183127348031848
1761467677047831000,8.6968310546875,-0.002563128486275673,-0.006994717725552618,0.004679499585740268
1761467677057784000,8.7067841796875,0.0071615621924400324,0.0026710823727771637,0.001416113875620067
1761467677067737000,8.716737060546874,-0.016183073037862778,-0.000048442251607775685,0.009680193949863315
1761467677077690000,8.726690185546875,-0.01004910032749176,-0.009807546656578778,0.0026670637847855685
1761467677087643100,8.73664306640625,0.0037181437402963634,0.0051645066237077115,-0.0046601372981444
1761467677097596200,8.74659619140625,-0.004365209472179413,0.0029570231746882196,-0.008499112672824412
1761467677107549200,8.756549072265624,0.00042319384813308713,0.012073811088129877,-0.0005758453928865492
1761467677117503200,8.766503173828125,-0.00511339749097824,-0.002426368630398065,-0.010159721095114945
1761467677127456300,8.776456298828125,-0.013342296653985977,-0.006142356946226209,0.0037369032396934922
1761467677137409000,8.786408935546875,-0.011100070685148239,-0.002589486770238727,0.0043972485782578586
1761467677147362000,8.796362060546874,-0.002122398981451988,0.004661105412524193,-0.011942439793422818
1761467677157315000,8.806315185546875,0.003264554753899574,0.00039089901372790336,0.0030781105373986063
1761467677167268000,8.81626806640625,-0.008404840251803398,0.005975640343502163,-0.00941999037740752
1761467677177221000,8.82622119140625,-0.000024549919366836548,-0.001595470764208585,0.000347279067710042
1761467677187175000,8.8361748046875,-0.006608019962906837,0.004578687826078385,0.004075067419186234
1761467677197128000,8.8461279296875,-0.006008885025978088,0.016148458382207898,0.009763890177942812
1761467677207081000,8.8560810546875,-0.0010720131456851958,-0.0005192198348231614,0.001109002421516925
1761467677217034000,8.866033935546875,-0.0030196400821208952,-0.001477324277255684,-0.009463573790807277
1761467677226987000,8.875987060546874,-0.012298340559005737,-0.006035462505649775,0.004914075526595115
1761467677236940000,8.88593994140625,-0.01978138979077339,-0.007144684122875332,0.0005745119523257017
1761467677246894000,8.89589404296875,-0.00227612823843956,0.007175170592684298,-0.0002271963519975543
1761467677256847000,8.90584716796875,0.00715162532031536,0.014005144476890562,-0.004979541978240013
1761467677266800000,8.915800048828125,-0.007660743886232376,-0.008252919359412044,-0.0023236937072128056
1761467677276753200,8.925753173828125,-0.014679682737588882,0.008742109382152558,-0.008703220410179346
1761467677286706000,8.935705810546875,-0.033875966116786,0.005465206603333354,-0.0666532320103608
1761467677296659000,8.945658935546875,0.061087213647365565,-0.02633636439219117,0.12165036688800901
1761467677306612000,8.955612060546875,-0.07027706679701805,0.04140826131775975,-0.07027270114915445
1761467677316566000,8.96556591796875,0.013527590093016623,-0.02020803597131744,0.01461472774259746
1761467677326519000,8.97551904296875,0.019951485660672185,0.0072345726297236975,0.03712811804683879
1761467677336472000,8.98547216796875,-0.018498364242911337,0.0024944288979284464,-0.03369757734257728
1761467677346425000,8.995425048828125,-0.006834229934215545,-0.010633987543359398,0.038134609941951926
1761467677356378000,9.005378173828126,0.0025958617120981214,-0.001061765746306628,-0.029504673963692038
1761467677366331100,9.0153310546875,-0.004905892220139503,-0.0010341288207098842,0.02551472754469141
1761467677376284200,9.0252841796875,-0.0022246903121471403,-0.007367880153190344,-0.0018525690641254186
1761467677386238200,9.03523828125,0.023328268617391585,0.01327507663667202,0.015178645235672592
