time,seconds_elapsed,z,y,x
1761467668414727700,0.063727783203125,0.0007364602643065155,0.0003263907856307924,0.0022872393019497395
1761467668424680700,0.0736806640625,0.0004927809932269156,0.0000699283555150032,-0.0007026917301118374
1761467668434633700,0.0836337890625,0.0003441371372900903,-0.0005820326041430235,-0.0010684134904295206
1761467668444587800,0.093587890625,-0.0008316485327668488,0.0011346410028636456,0.0006626411341130733
1761467668454540800,0.103540771484375,-0.0008205304620787501,-0.0012963360641151667,-0.00034964829683303833
1761467668464493800,0.113493896484375,0.00032995507353916764,0.0016006503719836473,0.0012690209550783038
1761467668474446800,0.12344677734375,-0.0012504903133958578,-0.0011661925818771124,-0.0009110851678997278
1761467668484399900,0.13339990234375,0.0012100042076781392,0.001813085749745369,0.0010314245009794831
1761467668494353000,0.143352783203125,-0.0003533907874953002,-0.0020045938435941935,-0.00009994185529649258
1761467668504305700,0.1533056640625,0.0006887041963636875,0.0010457909666001797,-0.000639764592051506
1761467668514259700,0.163259765625,0.0014534976799041033,-0.00007340530282817781,0.000048195477575063705
1761467668524212500,0.17321240234375,-0.0006847543991170824,-0.0006494470871984959,-0.00008043507114052773
1761467668534165500,0.18316552734375,-0.00015889451606199145,0.00012399052502587438,-0.0019874004647135735
1761467668544118500,0.193118408203125,0.0007535045151598752,-0.0002760162460617721,0.00016043870709836483
1761467668554071600,0.203071533203125,-0.00029478000942617655,0.00032668723724782467,-0.00019482383504509926
1761467668564024600,0.213024658203125,-0.0025520753115415573,-0.0003271188179496676,0.00006217113696038723
1761467668573977600,0.2229775390625,-0.0002455711073707789,0.0000018128484953194857,-0.0012968361843377352
1761467668583931600,0.232931640625,-0.00010389095405116677,0.0006548199453391135,-0.00015833484940230846
1761467668593884700,0.242884765625,0.0000814709928818047,0.00021343491971492767,0.00008155405521392822
1761467668603837700,0.252837646484375,-0.0011323977960273623,0.00016842747572809458,-0.0003157895989716053
1761467668613790700,0.262790771484375,0.0006739257369190454,0.00010812218533828855,-0.0008379006758332253
1761467668623743700,0.27274365234375,-0.00031969964038580656,-0.00035393628058955073,0.0005943472497165203
1761467668633696800,0.28269677734375,-0.00005865446291863918,-0.0014997515827417374,0.0006861285073682666
1761467668643649800,0.29264990234375,-0.0016640080139040947,-0.0009343624114990234,-0.0006632951553910971
1761467668653603800,0.302603759765625,0.0006851748912595212,0.0017370602581650019,0.00023575476370751858
1761467668663556900,0.312556884765625,-0.0001689008204266429,0.0008017580839805305,0.0006272393511608243
1761467668673509600,0.322509521484375,-0.00040905424975790083,0.001203623367473483,-0.00004970282316207886
1761467668683462700,0.332462646484375,-0.0015081408200785518,0.0011085483711212873,0.0008166234474629164
1761467668693415700,0.342415771484375,-0.0006302110268734396,0.00034990027779713273,-0.0005231697577983141
1761467668703368700,0.35236865234375,0.00010908249532803893,-0.0009209602139890194,-0.00008614500984549522
1761467668713321700,0.36232177734375,-0.0011833809548988938,0.0006871987716294825,-0.0005261977203190327
1761467668723275800,0.37227587890625,0.0017407698323950171,-0.0006307996227405965,-0.000839651795104146
1761467668733228800,0.382228759765625,0.0010141065577045083,-0.0002785563701763749,-0.0014797039330005646
1761467668743181800,0.392181884765625,-0.0010924538364633918,-0.0006636494654230773,0.0009016945259645581
1761467668753134800,0.402134765625,-0.0009615316521376371,0.00009058282012119889,-0.0014700798783451319
1761467668763088000,0.412087890625,-0.00004167575389146805,-0.000025797344278544188,-0.0006287875585258007
1761467668773041000,0.422041015625,-0.00011497607920318842,-0.0004996235948055983,0.0007924683159217238
1761467668782994000,0.431993896484375,0.000009926152415573597,0.00027615524595603347,0.000056903110817074776
1761467668792947700,0.44194775390625,0.0000286590657196939,-0.0005272275302559137,0.0006388986948877573
1761467668802900700,0.451900634765625,0.000032653799280524254,-0.0015565392095595598,0.0007813777774572372
1761467668812853800,0.461853759765625,0.00031564763048663735,0.0006494374829344451,0.00007198820821940899
1761467668822806500,0.471806640625,-0.0014007596764713526,-0.0006650987779721618,-0.00015837512910366058
1761467668832759600,0.481759521484375,0.00027298007626086473,-0.0005331916618160903,0.0005543634761124849
1761467668842712600,0.491712646484375,0.0000010713119991123676,0.0013043894432485104,-0.00025790068320930004
1761467668852666600,0.50166650390625,0.00016403000336140394,0.0002528371987864375,0.0008418681100010872
1761467668862619600,0.51161962890625,0.0002804101095534861,-0.0013296131510287523,-0.000693710520863533
1761467668872572700,0.52157275390625,0.00025985343381762505,-0.0002782271185424179,0.0003786871675401926
1761467668882525700,0.531525634765625,0.0017280541360378265,-0.000981834251433611,0.0013099946081638336
1761467668892469800,0.5414697265625,0.0002816959167830646,0.0002760996576398611,-0.0004051721189171076
1761467668902422800,0.5514228515625,-0.0004783702897839248,-0.0025212846230715513,0.0003354530781507492
1761467668912375800,0.561375732421875,-0.0013372480170801282,0.0004806614597328007,-0.0004260428249835968
1761467668922329600,0.57132958984375,0.0006835585809312761,-0.0004434554139152169,-0.0006598683539777994
1761467668932282600,0.58128271484375,0.00044927821727469563,0.00017181539442390203,0.0013472562422975898
1761467668942235600,0.591235595703125,-0.00010332767851650715,0.0007055128226056695,-0.0002655540592968464
1761467668952188700,0.601188720703125,-0.0006224821554496884,0.00013437829329632223,-0.0007383127231150866
1761467668962141700,0.6111416015625,-0.001162304892204702,-0.0007628406747244298,0.0007770259398967028
1761467668972094700,0.6210947265625,0.000687675375957042,-0.000576467951759696,-0.00035308883525431156
1761467668982047700,0.6310478515625,0.0011768981348723173,-0.0005956427194178104,0.0006437324918806553
1761467668992001800,0.641001708984375,0.0012564007192850113,-0.0007140477537177503,0.0005202016327530146
1761467669001954800,0.650954833984375,-0.0022358023561537266,0.0007221950218081474,0.0003462971653789282
1761467669011907800,0.660907958984375,-0.0002101856516674161,-0.00032248333445750177,0.000265306094661355
1761467669021860900,0.67086083984375,-0.00007969076978042722,-0.001645541749894619,-0.0016433815471827984
1761467669031814000,0.68081396484375,0.0002808901481330395,-0.00035201525315642357,0.0016252219211310148
1761467669041766700,0.6907666015625,0.00035386066883802414,-0.0008686685469001532,-0.0010557821951806545
1761467669051719700,0.7007197265625,0.00030113605316728354,0.000163154152687639,0.000510175246745348
1761467669061673700,0.710673828125,-0.0006115292781032622,-0.0012366033624857664,-0.0014411229640245438
1761467669071626800,0.720626708984375,0.001395373372361064,-0.0013214823557063937,-0.0015483037568628788
1761467669081579800,0.730579833984375,0.0003649964346550405,-0.001149708405137062,0.00026451004669070244
1761467669091532800,0.74053271484375,-0.0010406502988189459,-0.0008857239154167473,0.00037501612678170204
1761467669101485800,0.75048583984375,0.00039372825995087624,0.0015707758720964193,0.0001257441472262144
1761467669111438800,0.76043896484375,0.0006960111204534769,-0.0017593485536053777,-0.00008446513675153255
1761467669121392600,0.770392578125,-0.0006928273942321539,-0.00037983106449246407,0.00029157311655581
1761467669131345700,0.780345703125,-0.0015273538883775473,-0.001497734454460442,-0.0009022436570376158
1761467669141298700,0.790298583984375,-0.00030256612808443606,0.0002889803145080805,-0.00010409438982605934
1761467669151251700,0.800251708984375,0.00021482922602444887,0.0009618445765227079,-0.0013576035853475332
1761467669161204700,0.810204833984375,0.0014220401644706726,0.0013892819406464696,-0.00008860742673277855
1761467669171157800,0.82015771484375,0.0010373237309977412,0.0005093427607789636,-0.00016603292897343636
1761467669181110800,0.83011083984375,0.00028604594990611076,0.000974596943706274,-0.001367385033518076
1761467669191064800,0.84006494140625,0.0005993357626721263,-0.00042952055810019374,0.0000026281923055648804
1761467669201017900,0.850017822265625,-0.0003109327226411551,-0.0017792105209082365,-0.00041202595457434654
1761467669210970600,0.859970703125,-0.000013304117601364851,0.00021749018924310803,0.0005701063200831413
1761467669220923600,0.869923583984375,-0.0007294281385838985,0.00006089636008255184,0.00010085734538733959
1761467669230876700,0.879876708984375,-0.0001465278910472989,0.0002304406079929322,0.0015612081624567509
1761467669240829700,0.88982958984375,0.0028796219266951084,-0.000613515148870647,-0.0013906396925449371
1761467669250782700,0.89978271484375,0.0006850893842056394,0.0002383038226980716,-0.0012395502999424934
1761467669260736800,0.90973681640625,0.00025285838637501,0.00175790349021554,0.0006060202140361071
1761467669270689800,0.919689697265625,0.0006609671399928629,0.00013978657079860568,0.0003714151680469513
1761467669280642800,0.929642822265625,-0.00032706561614759266,0.0003709489537868649,-0.0007204809226095676
1761467669290595800,0.939595947265625,0.00008054147474467754,-0.0010079225758090615,0.0006368826143443584
1761467669300548900,0.949548828125,0.0005750904674641788,0.0010842566844075918,0.0009109219536185265
1761467669310502000,0.959501953125,-0.001587565871886909,-0.00023067041183821857,0.00016762316226959229
1761467669320455000,0.969454833984375,0.001015940448269248,0.0006612222641706467,-0.0006683431565761566
1761467669330408700,0.97940869140625,0.0006523138144984841,-0.0001368820812785998,0.00003445195034146309
1761467669340361700,0.98936181640625,-0.0007213447242975235,-0.0010870979167521,0.000023532891646027565
1761467669350314800,0.999314697265625,0.0010986689012497663,0.00021231119171716273,-0.001489128451794386
1761467669360267500,1.009267578125,-0.0002430315362289548,-0.00028010725509375334,-0.0009442456066608429
1761467669370220500,1.019220458984375,-0.00026080175302922726,0.00032029367866925895,0.00013321521691977978
1761467669380173600,1.029173583984375,-0.0019774753600358963,0.00004305859329178929,-0.0013791942037642002
1761467669390127600,1.039127685546875,-0.0008079024264588952,0.0007605204591527581,-0.0014882206451147795
1761467669400080600,1.04908056640625,0.0008128974586725235,-0.0000307047157548368,-0.0005180309526622295
1761467669410033700,1.05903369140625,-0.0003273756883572787,-0.00019593922479543835,0.0001358219888061285
1761467669419986700,1.068986572265625,0.00029740185709670186,-0.0013863722560927272,0.0004500751383602619
1761467669429939700,1.078939697265625,0.0002326014218851924,0.0011491331970319152,-0.001357093919068575
1761467669439892700,1.088892822265625,0.0005681597976945341,-0.0007742017041891813,-0.00013550184667110443
1761467669449845800,1.098845703125,-0.0012922186870127916,0.000992074143141508,0.00024598720483481884
1761467669459799800,1.1087998046875,0.0016175510827451944,0.0016165855340659618,0.0007075129542499781
1761467669469752800,1.1187529296875,-0.0005857375217601657,-0.00013415816647466272,-0.001451514195650816
1761467669479705900,1.128705810546875,0.00008857483044266701,0.000024832552298903465,-0.0013015782460570335
1761467669489659000,1.138658935546875,0.0007369735976681113,-0.0003964710340369493,0.0007981108501553535
1761467669499612000,1.14861181640625,-0.0012020738795399666,-0.0005535975797101855,-0.00025117467157542706
1761467669509564700,1.158564697265625,-0.0004870927077718079,0.00012582936324179173,-0.0011406312696635723
1761467669519517700,1.168517578125,0.000610395974945277,0.0005460762185975909,0.0002945463638752699
1761467669529471700,1.1784716796875,0.0008573485538363457,0.0010440328624099493,0.00048066210001707077
1761467669539424800,1.1884248046875,0.00031353102531284094,-0.001152542419731617,-0.0003888600040227175
1761467669549377800,1.198377685546875,0.0005622126045636833,0.00019874947611242533,-0.0003031408414244652
1761467669559330800,1.208330810546875,-0.0003246200503781438,-0.0005884809652343392,-0.000197945861145854
1761467669569283800,1.218283935546875,-0.0005653271800838411,-0.0003407140029594302,0.0013845991343259811
1761467669579236900,1.22823681640625,0.000113246263936162,0.0003849974018521607,0.001327607547864318
1761467669589190000,1.23818994140625,0.00038976751966401935,-0.0001604983990546316,-0.0002700991462916136
1761467669599143700,1.248143798828125,0.00045847712317481637,-0.0005980557762086391,-0.00040219188667833805
1761467669609096700,1.2580966796875,0.0003917599096894264,0.0013631086330860853,-0.0012314817868173122
1761467669619049700,1.2680498046875,0.0004900305066257715,0.0014730971306562424,-0.0013723631855100393
1761467669629002800,1.278002685546875,0.001086557749658823,-0.0008461265242658556,-0.00012191105633974075
1761467669638955800,1.287955810546875,-0.000826390809379518,0.0010076998732984066,-0.0005762462969869375
1761467669648908800,1.29790869140625,0.001408927608281374,-0.0005270674009807408,-0.0013328318018466234
1761467669658862800,1.30786279296875,0.0007932048174552619,0.0007999858353286982,0.0006624083034694195
1761467669668816000,1.31781591796875,0.0007486841059289873,0.0004925180110149086,0.0008839021902531385
1761467669678768600,1.3277685546875,-0.0011703898198902607,0.00010849017417058349,0.0009100012248381972
1761467669688721700,1.3377216796875,-0.00008449866436421871,0.0014175174292176962,0.0004719523712992668
1761467669698674700,1.3476748046875,0.00021404167637228966,-0.00016573176253587008,0.001370769226923585
1761467669708627700,1.357627685546875,-0.00012024666648358107,-0.0011391594307497144,0.0008940425468608737
1761467669718580700,1.367580810546875,-0.00043370071216486394,0.00026406015967950225,-0.0010508638806641102
1761467669728534800,1.37753466796875,-0.00018447177717462182,0.0009444047464057803,0.0003610490821301937
1761467669738487800,1.38748779296875,0.001159625593572855,0.0003004524623975158,-0.00032924232073128223
1761467669748440800,1.39744091796875,0.0021302083041518927,-0.001276586321182549,0.0001696101389825344
1761467669758393900,1.407393798828125,0.0011648123618215322,0.00173678039573133,-0.0004229433834552765
1761467669768347000,1.417346923828125,0.0002499326947145164,-0.0003596521564759314,0.0004173368215560913
1761467669778300000,1.4272998046875,0.0014994877856224775,0.00001585355494171381,-0.0012282305397093296
1761467669788253700,1.437253662109375,-0.000729473598767072,0.00026259751757606864,0.0008374328026548028
1761467669798206700,1.447206787109375,0.0007427218952216208,0.0001438204781152308,0.0001870887354016304
1761467669808159700,1.45715966796875,-0.0014068502932786942,0.0003164798254147172,0.00019618729129433632
1761467669818112800,1.46711279296875,-0.001305117504671216,-0.000996192218735814,0.0004917981568723917
1761467669828065500,1.4770654296875,-0.0008245805511251092,-0.0008464608108624816,-0.00044261384755373
1761467669838018600,1.4870185546875,0.0006300380919128656,0.0013160259695723653,0.00037630810402333736
1761467669847971600,1.4969716796875,-0.0009602414793334901,-0.0005906666629016399,0.00023211492225527763
1761467669857925600,1.506925537109375,0.00093220075359568,-0.00026815783348865807,-0.0001282107550650835
1761467669867878700,1.516878662109375,-0.00044106290442869067,-0.001483611878938973,0.0006619675550609827
1761467669877831700,1.526831787109375,0.0013669570907950401,0.0011473249178379774,-0.00017080293036997318
1761467669887784700,1.53678466796875,0.00026881753001362085,0.0023489054292440414,-0.0010113518219441175
1761467669897737500,1.546737548828125,-0.0010300062131136656,0.001389368437230587,0.0008283598581328988
1761467669907690500,1.5566904296875,0.0010536937043070793,0.000330588489305228,-0.0017995527014136314
1761467669917644500,1.56664453125,0.00031360116554424167,-0.0008044507121667266,-0.0002021885011345148
1761467669927597600,1.57659765625,-0.00013228959869593382,0.0006549707613885403,0.0006487451028078794
1761467669937550600,1.586550537109375,-0.0003330919425934553,0.0008259457536041737,-0.0001307621132582426
1761467669947503600,1.596503662109375,0.000014677876606583595,-0.00005693899584002793,0.00021400838159024715
1761467669957456600,1.60645654296875,0.000572077464312315,0.0012269709259271622,0.00047686253674328327
1761467669967409700,1.61640966796875,-0.002117381663993001,-0.0004236125969327986,-0.0005500304978340864
1761467669977362700,1.62636279296875,0.00039451185148209333,0.0011633650865405798,-0.000021925661712884903
1761467669987316700,1.636316650390625,-0.0003142291971016675,0.0012138427700847387,-0.0008818046189844608
1761467669997269500,1.64626953125,0.0002506272867321968,0.0010580478701740503,0.00045084115117788315
1761467670007222500,1.656222412109375,-0.00016965146642178297,0.000908361398614943,-0.00035623926669359207
1761467670017175600,1.666175537109375,-0.002207235898822546,-0.0004937929334118962,-0.0007053795270621777
1761467670027128600,1.676128662109375,-0.0013794922269880772,0.00011926822480745614,0.00027634575963020325
1761467670037081600,1.68608154296875,-0.0004966543056070805,0.00035602322896011174,0.0003818068653345108
1761467670047034600,1.69603466796875,0.0003385546151548624,0.0008596444968134165,-0.0006414109375327826
1761467670056988400,1.705988525390625,-0.0008207194041460752,0.0007384705822914839,-0.0004563212860375643
1761467670066941400,1.71594140625,0.00007656216621398926,0.0008114767842926085,-0.0006707974243909121
1761467670076894500,1.72589453125,0.00028668559389188886,-0.0009922821773216128,-0.0008473650086671114
1761467670086847500,1.735847412109375,-0.0006255934131331742,0.00011043244739994407,-0.0005525529850274324
1761467670096800500,1.745800537109375,0.0005714974831789732,-0.0013061028439551592,0.000052517279982566833
1761467670106753500,1.75575341796875,0.00021022680448368192,0.0001357782748527825,-0.0007695038802921772
1761467670116707600,1.76570751953125,0.0003705490380525589,0.0003541574697010219,0.0002800477668642998
1761467670126660600,1.77566064453125,0.00012301368406042457,0.0007532413583248854,0.0014989272458478808
1761467670136613600,1.785613525390625,0.00022980640642344952,-0.0007690215134061873,-0.0005684846546500921
1761467670146566700,1.795566650390625,0.0015735423658043146,0.0009209105046465993,-0.0008911231998354197
1761467670156519700,1.805519775390625,-0.0007532614399679005,0.0013400920433923602,-0.00006767385639250278
1761467670166472700,1.81547265625,0.001763602253049612,0.000811174453701824,-0.0014953077770769596
1761467670176425700,1.82542578125,-0.000367193017154932,-0.000854899175465107,-0.0005714572034776211
1761467670186379800,1.8353798828125,0.00031577073968946934,-0.00021823321003466845,0.00172545132227242
1761467670196332800,1.845332763671875,0.00007502094376832247,-0.0005900104879401624,0.0003861475270241499
1761467670206285600,1.85528564453125,-0.0004683528677560389,-0.0008768956759013236,0.0002729366533458233
1761467670216238600,1.865238525390625,-0.0004718149430118501,-0.0013045993400737643,0.00011101644486188889
1761467670226191600,1.875191650390625,-0.0006536258733831346,-0.0007435865700244904,-0.0012653663288801908
1761467670236144600,1.88514453125,0.0008348147966898978,-0.0011507838498800993,0.0005746115930378437
1761467670246097700,1.89509765625,-0.0002927453024312854,-0.00007897027535364032,-0.00010432722046971321
1761467670256051500,1.905051513671875,-0.0007603963604196906,-0.0004246485768817365,-0.0006247088313102722
1761467670266004500,1.91500439453125,-0.000985137652605772,0.0010772235691547394,-0.00046032853424549103
1761467670275957500,1.92495751953125,-0.0009134986321441829,-0.0001134757767431438,-0.0006419562269002199
1761467670285910500,1.93491064453125,-0.00039038443355821073,-0.0008103328291326761,0.0006927130743861198
1761467670295863600,1.944863525390625,0.00042321125511080027,0.00004134606570005417,-0.0003355334047228098
1761467670305816600,1.954816650390625,-0.00006859912537038326,0.00010109372669830918,0.0005659370217472315
1761467670315770600,1.9647705078125,0.00007281475700438023,-0.0009575128206051886,0.00042984960600733757
1761467670325723600,1.9747236328125,0.0015104917110875249,0.0007678046240471303,0.000681133009493351
1761467670335676700,1.9846767578125,0.0005088768666610122,0.00016539759235456586,0.00006248056888580322
1761467670345629700,1.994629638671875,0.0006735994829796255,0.0004108657012693584,-0.001021914416924119
1761467670355582500,2.00458251953125,0.0000038145226426422596,0.00010620005195960402,0.00006092689000070095
1761467670365535500,2.014535400390625,0.00031344802118837833,-0.00007299537537619472,-0.0008786523249000311
1761467670375488500,2.024488525390625,-0.00032171595375984907,-0.00018724496476352215,-0.00011192820966243744
1761467670385442600,2.034442626953125,-0.00042560548172332346,-0.000327657675370574,0.0007381138857454062
1761467670395395600,2.0443955078125,-0.0013334770919755101,-0.001734605641104281,-0.0007908069528639317
1761467670405348600,2.0543486328125,0.001091183046810329,-0.0003563830687198788,0.0007253354415297508
1761467670415301600,2.064301513671875,0.00021793250925838947,0.00008410378359258175,-0.0008608431089669466
1761467670425254700,2.074254638671875,0.0003774631186388433,-0.00045930378837510943,0.00006312085315585136
1761467670435207700,2.084207763671875,-0.0005277453456073999,0.000014738878235220909,0.0008018817752599716
1761467670445161500,2.094161376953125,0.0014219146687537432,-0.00011285272194072604,-0.001568822655826807
1761467670455114500,2.104114501953125,0.0005073851789347827,0.0007185861468315125,-0.0012934519909322262
1761467670465067500,2.114067626953125,-0.0011947035090997815,-0.0026281820610165596,0.0011473865015432239
1761467670475020500,2.1240205078125,-0.00047058999189175665,0.00021207937970757484,0.0007606956642121077
1761467670484973600,2.1339736328125,-0.0005392114981077611,-0.000613297859672457,0.00018977350555360317
1761467670494926600,2.143926513671875,0.0002323062508367002,-0.001431953627616167,0.0006877845153212547
1761467670504879400,2.15387939453125,-0.0000634088646620512,0.0007468479452654719,-0.0004994112532585859
1761467670514833700,2.163833740234375,0.001549401436932385,0.0005207456415519118,0.00004067784175276756
1761467670524786400,2.173786376953125,0.0004131582099944353,-0.0003675702027976513,0.00018707732670009136
1761467670534739500,2.183739501953125,0.0002525695599615574,0.00029795372392982244,-0.0008776544127613306
1761467670544692500,2.1936923828125,0.0002952897339127958,0.00021783425472676754,-0.00036320765502750874
1761467670554645500,2.2036455078125,-0.0015915598487481475,-0.000021317624486982822,-0.0007432408165186644
1761467670564598500,2.2135986328125,0.00008765264647081494,0.0009606479434296489,-0.0006030034273862839
1761467670574551600,2.223551513671875,0.00021681596990674734,-0.0007400467293336987,-0.00004187552258372307
1761467670584505600,2.233505615234375,0.00036981666926294565,-0.0009319061646237969,-0.0014289077371358871
1761467670594458600,2.243458740234375,-0.0002536293468438089,0.00028435944113880396,-0.00001130695454776287
1761467670604411600,2.25341162109375,0.0003706338466145098,-0.0008275513537228107,0.00024172640405595303
1761467670614364700,2.26336474609375,-0.0008008907316252589,-0.00012394419172778726,0.00043107708916068077
1761467670624317700,2.273317626953125,-0.0012009310303255916,-0.0006265141419135034,0.0010134343756362796
1761467670634270700,2.283270751953125,0.0005655436543747783,0.0001596510410308838,-0.00007526576519012451
1761467670644224800,2.293224853515625,-0.00012732762843370438,0.0011989170452579856,-0.0004313495010137558
1761467670654177800,2.303177734375,-0.0003523647610563785,-0.0006426589097827673,0.00003869854845106602
1761467670664130600,2.313130615234375,-0.001108379801735282,-0.0002115410752594471,0.0007546704728156328
1761467670674083600,2.32308349609375,-0.00022687349701300263,-0.00044270348735153675,-0.0011103411670774221
1761467670684036600,2.33303662109375,0.000396093528252095,0.001048846635967493,0.0009950993116945028
1761467670693989600,2.34298974609375,0.00019156275084242225,-0.0005101679125800729,0.0012590185506269336
1761467670703942700,2.352942626953125,0.0017887151334434748,-0.000005229667294770479,-0.0012541536707431078
1761467670713896400,2.362896484375,-0.0007921542273834348,0.0004951782757416368,-0.00012976676225662231
1761467670723849500,2.372849365234375,0.00003989168908447027,0.0001227346365340054,-0.0004723560996353626
1761467670733802500,2.382802490234375,0.0006364397122524679,-0.0012067153584212065,-0.00036716111935675144
1761467670743755500,2.392755615234375,0.001101575675420463,-0.000823350390419364,-0.00029240059666335583
1761467670753708500,2.40270849609375,-0.0006364032160490751,-0.0011397339403629303,-0.0012588617391884327
1761467670763661600,2.41266162109375,-0.0001225341111421585,-0.0004907045513391495,0.000014130491763353348
1761467670773614600,2.422614501953125,-0.0012924608308821917,-0.0007647437741979957,-0.00011822860687971115
1761467670783568600,2.432568603515625,0.0005430091987363994,0.0004967392887920141,-0.000895684352144599
1761467670793521700,2.442521728515625,0.0013446204829961061,-0.0009046160848811269,0.0000172473955899477
1761467670803474700,2.452474609375,-0.0004500006325542927,0.0010353073012083769,0.0013993124011904001
1761467670813427700,2.462427734375,-0.0019634750206023455,-0.00040093553252518177,0.0004965008702129126
1761467670823380500,2.47238037109375,0.0006426139734685421,-0.0008212048560380936,0.0002308099064975977
1761467670833333500,2.48233349609375,-0.00033130403608083725,-0.0010201430413872004,-0.0006799912080168724
1761467670843286500,2.49228662109375,0.000255496590398252,0.0006987759261392057,-0.00006226496770977974
1761467670853240600,2.502240478515625,-0.0003301325486972928,-0.0006490498781204224,0.0007177749648690224
1761467670863193600,2.512193603515625,0.0012511531822383404,0.0006738342344760895,-0.00033580302260816097
1761467670873146600,2.522146728515625,0.0007414242718368769,0.00034786330070346594,-0.0007738929707556963
1761467670883099600,2.532099609375,0.0002540369750931859,0.00019218484521843493,0.0009873397648334503
1761467670893052700,2.542052734375,0.0007083722157403827,-0.000564951857086271,-0.000515748281031847
1761467670903005400,2.55200537109375,0.000024460547138005495,-0.00031524355290457606,0.00048313126899302006
1761467670912959200,2.561959228515625,-0.00016462383791804314,-0.0011386929545551538,-0.0013118390925228596
1761467670922912300,2.571912353515625,-0.0007444648072123528,-0.0001563221449032426,0.00007479055784642696
1761467670932865300,2.581865234375,-0.0008757586474530399,-0.0006585943046957254,-0.001265844563022256
1761467670942818300,2.591818359375,-0.00016693619545549154,0.0015398242976516485,0.0008339696796610951
1761467670952771300,2.601771240234375,0.0011201695306226611,0.0001680299756117165,0.00032211001962423325
1761467670962724400,2.611724365234375,0.0009091760730370879,0.0006326014408841729,0.0011983198346570134
1761467670972677400,2.621677490234375,-0.00018911162624135613,0.00034737694659270346,-0.0002581628505140543
1761467670982631400,2.63163134765625,-0.00015661248471587896,0.0008101965649984777,-0.0006282890681177378
1761467670992584400,2.64158447265625,0.00018240796634927392,0.000032287207432091236,-0.0005012562032788992
1761467671002537500,2.651537353515625,0.0006596379680559039,0.00009474519174546003,-0.0010853104759007692
1761467671012490200,2.661490234375,-0.0003912454121746123,0.0010952947195619345,-0.0006030120421200991
1761467671022443300,2.671443359375,-0.0009911656379699707,-0.0006892583915032446,-0.00012068776413798332
1761467671032396300,2.681396240234375,-0.00026731850812211633,0.0004228776670061052,0.00021620211191475391
1761467671042349300,2.691349365234375,0.0010051883291453123,-0.0007960529765114188,0.0002360776998102665
1761467671052303400,2.701303466796875,0.0009236956248059869,0.0003443125751800835,0.0010113237658515573
1761467671062256400,2.71125634765625,0.00020519096869975328,-0.0012173554860055447,0.0006945778150111437
1761467671072209400,2.72120947265625,0.0007263715961016715,0.00046682762331329286,-0.0004362002946436405
1761467671082162400,2.731162353515625,0.001751328818500042,-0.0005298486212268472,-0.0006483120378106833
1761467671092115500,2.741115478515625,0.0005814021569676697,-0.0006949646049179137,-0.0008573702070862055
1761467671102068500,2.751068359375,-0.00024687248514965177,0.0006396175595000386,-0.00001141522079706192
1761467671112022300,2.761022216796875,-0.00047404010547325015,-0.0004517457855399698,0.0000050961971282958984
1761467671121975300,2.770975341796875,-0.0009141856571659446,-0.0007258726982399821,-0.0017643668688833714
1761467671131928300,2.78092822265625,-0.00020711641991510987,-0.0006728757871314883,-0.0005632813554257154
1761467671141881300,2.79088134765625,0.0011240513995289803,-0.0002777435875032097,-0.0010965322144329548
1761467671151834400,2.80083447265625,0.0005464117275550961,0.0012626287061721087,-0.0006342073902487755
1761467671161787400,2.810787353515625,-0.0005767366383224726,-0.00022232095943763852,-0.0004182741977274418
1761467671171740400,2.820740478515625,-0.0003764668945223093,0.00023015012266114354,0.0003796089440584183
1761467671181694200,2.830694091796875,0.00020440557273104787,-0.00034548589610494673,0.0004332941025495529
1761467671191647200,2.840647216796875,0.0010568834841251373,0.0006627868860960007,0.0007091977167874575
1761467671201600300,2.850600341796875,0.002724205609411001,0.0007495200261473656,-0.0002143483143299818
1761467671211553300,2.86055322265625,0.00131139880977571,-0.0003921771130990237,0.0005731484852731228
1761467671221506300,2.87050634765625,0.00022868707310408354,-0.0003289958694949746,0.000027542002499103546
1761467671231459300,2.880459228515625,0.0006001980509608984,0.0003357291570864618,0.0010717674158513546
1761467671241412400,2.890412353515625,-0.0003600471536628902,0.0004058126942254603,-0.0002202622126787901
1761467671251366400,2.900366455078125,-0.0007882834761403501,0.0006412361981347203,0.00003939610905945301
1761467671261319400,2.9103193359375,-0.0006869760109111667,-0.00006727006984874606,0.0007802863838151097
1761467671271272400,2.9202724609375,0.0005106475437059999,-0.0005676780128851533,-0.0008040282409638166
1761467671281225500,2.9302255859375,0.0010667956667020917,-0.000025010231183841825,0.0018100403249263763
1761467671291178500,2.940178466796875,-0.0001958089997060597,-0.0016263689612969756,0.0006497011054307222
1761467671301131500,2.950131591796875,0.0005531944334506989,-0.0009980227332562208,-0.00008806842379271984
1761467671311084300,2.960084228515625,0.0008645178750157356,-0.0005831021699123085,0.0015084965853020549
1761467671321038600,2.97003857421875,0.00030321715166792274,-0.00006139991455711424,-0.001047011697664857
1761467671330991400,2.979991455078125,-0.0004901385400444269,0.00004619179526343942,0.0013764649629592896
1761467671340944400,2.9899443359375,-0.00030516672995872796,-0.0006972917472012341,-0.00012147403322160244
1761467671350897400,2.9998974609375,0.000576872262172401,0.00034826528280973434,0.001456448924727738
1761467671360850400,3.009850341796875,-0.0004574590129777789,0.0012922807363793254,0.000792222679592669
1761467671370803500,3.019803466796875,0.0021231439895927906,-0.000981526100076735,-0.0018411108758300543
1761467671380756500,3.029756591796875,0.0005263363127596676,0.0018220971105620265,-0.00036774040199816227
1761467671390710300,3.039710205078125,0.0010520443320274353,0.0007110262522473931,-0.0010164864361286163
1761467671400663300,3.049663330078125,-0.0012621216010302305,0.00047704242751933634,0.0008741753408685327
1761467671410616300,3.0596162109375,0.0006124775391072035,-0.000021767657017335296,0.00021264608949422836
1761467671420569300,3.0695693359375,0.0007508571143262088,0.001207586145028472,-0.0000979399774223566
1761467671430522400,3.0795224609375,-0.000335978897055611,-0.0006789971375837922,0.0011968888575211167
1761467671440475400,3.089475341796875,0.001210379763506353,-0.0007210883777588606,0.0005383950192481279
1761467671450428400,3.099428466796875,0.0002420543460175395,0.00009996417793445289,-0.0007859950419515371
1761467671460382500,3.109382568359375,0.00013507920084521174,-0.0005348529666662216,0.0007025825325399637
1761467671470335500,3.11933544921875,0.001616861904039979,-0.000937256554607302,-0.00017945654690265656
1761467671480288300,3.129288330078125,0.0020024976693093777,0.0017962537240236998,-0.00016473885625600815
1761467671490241300,3.1392412109375,-0.00022603559773415327,-0.0005238921730779111,0.000995600363239646
1761467671500194300,3.1491943359375,-0.0023103365674614906,0.00030656857416033745,-0.0009995510336011648
1761467671510147300,3.159147216796875,-0.0012165764346718788,0.00013532734010368586,0.0003000714350491762
1761467671520101400,3.169101318359375,-0.00007284269668161869,0.0006455433904193342,0.0004368533845990896
1761467671530054400,3.179054443359375,-0.0013929716078564525,-0.0009073459077626467,-0.0007141649257391691
1761467671540007400,3.18900732421875,0.0006573053542524576,0.00004203571006655693,-0.00032639456912875175
1761467671549960400,3.19896044921875,0.0002634237753227353,-0.0000969812972471118,0.0014294275315478444
1761467671559913500,3.20891357421875,0.0011133623775094748,-0.00031817296985536814,-0.0008717000018805265
1761467671569866500,3.218866455078125,-0.0015351512702181935,-0.0006851565558463335,0.0005035563372075558
1761467671579819500,3.228819580078125,0.0014274839777499437,0.00007249569171108305,0.0006192864384502172
1761467671589773300,3.238773193359375,0.0019603825639933348,-0.00046865863259881735,-0.00005529215559363365
1761467671599726300,3.248726318359375,0.0004237035755068064,0.00006867916090413928,0.0003710128366947174
1761467671609679400,3.258679443359375,0.0001810896210372448,0.0008822748786769807,-0.0010798771400004625
1761467671619632400,3.26863232421875,0.00033670972334221005,0.00043698909576050937,0.0002849248703569174
1761467671629585200,3.278585205078125,0.00022139481734484434,0.0004718764976132661,-0.0006852645892649889
1761467671639538200,3.2885380859375,-0.0007097094203345478,0.0009107873775064945,0.0008470196044072509
1761467671649491200,3.2984912109375,-0.000233003607718274,-0.0007694009691476822,-0.000038215192034840584
1761467671659445200,3.3084453125,-0.0007389583624899387,-0.0004265369498170912,0.001159402192570269
1761467671669398300,3.318398193359375,-0.000796216307207942,-0.00032160841510631144,0.00035166554152965546
1761467671679351300,3.328351318359375,-0.0011684573255479336,-0.0008251152466982603,-0.0009119105525314808
1761467671689304300,3.33830419921875,0.0005562057485803962,0.0008502793498337269,0.00030009401962161064
1761467671699257300,3.34825732421875,-0.00007641507545486093,0.0010004299692809582,-0.00020282668992877007
1761467671709210400,3.35821044921875,0.0010703420266509056,0.00040974083822220564,-0.0005618208087980747
1761467671719163400,3.368163330078125,0.0017909534508362412,-0.0006004758761264384,-0.0009718546643853188
1761467671729117400,3.378117431640625,-0.00007725402247160673,0.0007651931373402476,0.00127372273709625
1761467671739070500,3.388070556640625,0.0020052012987434864,0.0003719678788911551,0.0001659661065787077
1761467671749023500,3.3980234375,0.0012493960093706846,-0.00011086324229836464,0.00036011054180562496
1761467671758976500,3.4079765625,0.0007110754959285259,-0.00011921791883651167,-0.000006543705239892006
1761467671768929500,3.417929443359375,-0.000038604310248047113,-0.0012060538865625858,0.00027894717641174793
1761467671778882300,3.42788232421875,0.0003072192776016891,-0.0004061038780491799,-0.00012715277262032032
1761467671788835300,3.43783544921875,0.001228672917932272,0.0007859269971959293,0.0006006890907883644
1761467671798789400,3.447789306640625,-0.0003686053096316755,-0.0007697554538026452,-0.0016673710197210312
1761467671808742400,3.457742431640625,0.0009464635513722897,0.0011184257455170155,-0.00011767726391553879
1761467671818695400,3.4676953125,0.00004303286550566554,-0.001205514301545918,-0.00039447424933314323
1761467671828648400,3.4776484375,-0.00015910103684291244,0.000799313304014504,0.0005884985439479351
1761467671838601500,3.4876015625,0.00016463553765788674,-0.0006401858408935368,-0.0007941899821162224
1761467671848554500,3.497554443359375,0.001991031225770712,0.00029271948733367026,-0.0005891264881938696
1761467671858507500,3.507507568359375,0.0004262614529579878,-0.00007259051199071109,0.0003350251354277134
1761467671868461300,3.51746142578125,-0.00042914593359455466,-0.0001269189961021766,0.0008194540860131383
1761467671878414300,3.527414306640625,-0.0004868527757935226,-0.000504463620018214,-0.00118060945533216
1761467671888367400,3.537367431640625,-0.0010298712877556682,-0.0007726439507678151,0.0009097057627514005
1761467671898320600,3.547320556640625,-0.0006868215859867632,-0.0007176058134064078,-0.0004699283745139837
1761467671908273700,3.557273681640625,-0.0007526016561314464,0.00019079839694313705,-0.00031972629949450493
1761467671918226700,3.567226806640625,0.0013810853706672788,0.00030983955366536975,0.00030384818091988564
1761467671928180700,3.5771806640625,-0.0006090948591008782,-0.0007761975284665823,0.00026203645393252373
1761467671938133800,3.5871337890625,-0.0006670252769254148,-0.0013908464461565018,-0.00043753604404628277
1761467671948086800,3.597086669921875,-0.00003692135214805603,0.0015207875985652208,-0.0008695009164512157
1761467671958039600,3.60703955078125,0.00011689047096297145,0.001078144647181034,-0.0008417600765824318
1761467671967992600,3.61699267578125,0.0016101249493658543,-0.0001498390338383615,0.00040300143882632256
1761467671977945600,3.626945556640625,-0.0008936430094763637,0.0007149768644012511,0.0020037200301885605
1761467671987898600,3.636898681640625,-0.0027232347056269646,-0.00011699467722792178,-0.0009870098438113928
1761467671997852700,3.646852783203125,0.0015126109356060624,0.0009445002651773393,0.00043243938125669956
1761467672007805700,3.6568056640625,-0.00006557832239195704,-0.0005364835960790515,-0.000005916925147175789
1761467672017758700,3.6667587890625,0.0012730336748063564,0.00025208937586285174,-0.0013275269884616137
1761467672027711700,3.676711669921875,-0.0013371305540204048,-0.0004573767364490777,0.000021097715944051743
1761467672037664800,3.686664794921875,-0.0005744246300309896,-0.0006545193609781563,-0.0009658706840127707
1761467672047617800,3.69661767578125,0.0008128159679472446,-0.00021136934810783714,0.0017244545742869377
1761467672057570800,3.70657080078125,0.00017555622616782784,0.00012223958037793636,-0.0003241684753447771
1761467672067524600,3.716524658203125,0.0007065905374474823,0.0003326293081045151,-0.000041340943425893784
1761467672077477600,3.7264775390625,0.0002318636397831142,0.0011925919679924846,0.0003630896098911762
1761467672087430700,3.7364306640625,-0.0007769417716190219,0.00021707609994336963,-0.0005778050981462002
1761467672097383700,3.7463837890625,-0.0004480726784095168,0.00007941402145661414,-0.000263487221673131
1761467672107336400,3.75633642578125,-0.0013255842495709658,-0.00035574648063629866,-0.0002531008794903755
1761467672117289500,3.76628955078125,0.0007752684177830815,0.0003977881860919297,0.0001654946245253086
1761467672127242500,3.776242431640625,0.001148377195931971,0.0002843375550583005,-0.000722669530659914
1761467672137196500,3.786196533203125,-0.00029061653185635805,0.0009295718627981842,-0.0010665042791515589
1761467672147149600,3.796149658203125,0.00011072185589000583,0.0004645839799195528,-0.0005344045348465443
1761467672157102600,3.8061025390625,-0.0003004950121976435,-0.00035322573967278004,0.00016824831254780293
1761467672167055600,3.8160556640625,0.0006944619817659259,-0.001242721569724381,-0.000646412605419755
1761467672177008600,3.826008544921875,0.0005580740980803967,0.001195159857161343,0.00023541436530649662
1761467672186961700,3.835961669921875,0.0003077370347455144,0.00010060062049888074,-0.0017321291379630566
1761467672196914700,3.845914794921875,-0.0008207178907468915,-0.00001576970680616796,-0.00085976324044168
1761467672206868700,3.85586865234375,-0.0004923500819131732,0.001130721066147089,-0.0013244848232716322
1761467672216821800,3.86582177734375,0.000038494530599564314,0.001179348910227418,-0.00012171035632491112
1761467672226774800,3.87577490234375,-0.00007655401714146137,-0.00029923810507170856,0.00029321014881134033
1761467672236727800,3.885727783203125,0.0016853496199473739,0.0008364988025277853,-2.4936161935329437e-7
1761467672246680800,3.895680908203125,0.0005127598997205496,0.00036645089858211577,-0.002445564139634371
1761467672256633600,3.905633544921875,-0.00023572726058773696,-0.00025142505182884634,0.002828735625371337
1761467672266586600,3.915586669921875,-0.0016613174229860306,0.00046816107351332903,-0.0004490830469876528
1761467672276540400,3.92554052734375,-0.000679377350024879,0.0001546116836834699,0.0007780354935675859
1761467672286493400,3.935493408203125,0.0005653841071762145,0.00020654333638958633,-0.00007976870983839035
1761467672296446500,3.945446533203125,-0.002044473774731159,0.001769558060914278,-0.0009465182665735483
1761467672306399500,3.9553994140625,-0.0012255519395694137,-0.0001287432824028656,-0.0003140175249427557
1761467672316352500,3.9653525390625,-0.0008175752591341734,0.0013067135587334633,0.001383323920890689
1761467672326305500,3.975305419921875,0.000727324397303164,0.000236389139899984,0.0008128747576847672
1761467672336258600,3.985258544921875,0.0012478057760745287,0.0003961028705816716,0.0005765515379607677
1761467672346834700,3.995834716796875,0.0010684784501791,-0.0006754156202077866,0.0005813103634864092
1761467672356787700,4.00578759765625,-0.000017292331904172897,0.000495576299726963,0.0003892965614795685
1761467672366740700,4.01574072265625,-0.0007593185291625559,-0.0003720017266459763,0.0006033035460859537
1761467672376693800,4.02569384765625,-0.0006005940958857536,-0.0010439172619953752,-0.0011727586388587952
1761467672386646500,4.035646484375,-0.0011742457281798124,0.0010785809718072414,-0.0009240217041224241
1761467672396599600,4.045599609375,4.7456705942749977e-7,-0.0005230441456660628,-0.0011860767845064402
1761467672406552600,4.055552490234375,-0.0012841633288189769,0.0006091867107897997,-0.0003596758469939232
1761467672416506600,4.065506591796875,-0.0014170550275593996,0.000857393373735249,-0.00012798095121979713
1761467672426459600,4.075459716796875,-0.0006380139966495335,0.0001691432553343475,-0.0003828795161098242
1761467672436412700,4.08541259765625,0.0005723926587961614,-0.000861500040628016,0.0009580220794305205
1761467672446365700,4.09536572265625,-0.0009588314569555223,0.0019137095659971237,0.0006237721536308527
1761467672456318700,4.105318603515625,-0.0014142319560050964,0.00015868639457039535,-0.0002239118330180645
1761467672466271700,4.115271728515625,0.0006859992863610387,0.0005385397234931588,0.00021889456547796726
1761467672476224800,4.125224853515625,-0.001032538479194045,-0.0006327184964902699,-0.0006231970619410276
1761467672486178600,4.135178466796875,0.00233105244114995,0.0003841175348497927,-0.0005797946359962225
1761467672496131600,4.145131591796875,0.00023168267216533422,0.00012978562153875828,-0.00022080051712691784
1761467672506084600,4.155084716796875,0.0006821164861321449,0.0006128000095486641,-0.00006228568963706493
1761467672516037600,4.16503759765625,0.0006933017866685987,-0.0005821603117510676,-0.0003437816631048918
1761467672525990700,4.17499072265625,0.0005556575488299131,0.0004784079210367054,0.0008089563343673944
1761467672535943400,4.184943359375,-0.00033010978950187564,0.0004706847539637238,0.0003516916185617447
1761467672545896400,4.194896484375,-0.0010530689032748342,0.00024045808822847903,0.0002908906899392605
1761467672555850800,4.204850830078125,-0.0004988651489838958,0.002752085216343403,-0.0006039314903318882
1761467672565803500,4.214803466796875,0.000034321972634643316,0.00038822265923954546,0.0005381007213145494
1761467672575756500,4.224756591796875,-0.00034011848038062453,-0.0009140630718320608,0.0006757860537618399
1761467672585709600,4.23470947265625,0.0009817532263696194,0.0003246813139412552,0.00022245454601943493
1761467672595662600,4.24466259765625,-0.000545835995581001,0.0008170998189598322,0.00008343765512108803
1761467672605615600,4.25461572265625,0.0011273891432210803,0.0010626321891322732,-0.00004141754470765591
1761467672615569700,4.264569580078125,0.0003673230530694127,0.000281527143670246,-0.00006884802132844925
1761467672625522700,4.274522705078125,0.0007062821532599628,0.00036587761132977903,0.000832113204523921
1761467672635475700,4.284475830078125,-0.00020851369481533766,0.0007967770798131824,0.0006880359724164009
1761467672645428700,4.2944287109375,-0.0001809249515645206,-0.00020037888316437602,0.0013042378704994917
1761467672656003800,4.30500390625,-0.0008472478366456926,0.0000638066849205643,0.0005849180743098259
1761467672665957600,4.31495751953125,-0.000568947521969676,0.000626798951998353,0.00031753676012158394
1761467672675910700,4.32491064453125,0.00040679145604372025,-0.0007621078984811902,-0.000006633345037698746
1761467672685863700,4.33486376953125,-0.0002550041535869241,-0.0012009968049824238,0.0026008677668869495
1761467672695816400,4.34481640625,-0.0013227476738393307,0.0006009670905768871,0.0009699930669739842
1761467672705769500,4.35476953125,-0.0006154121365398169,0.00007232968346215785,-0.0007267068140208721
1761467672715722500,4.364722412109375,-0.00042095192475244403,0.0004884521476924419,0.000014191027730703354
1761467672725675500,4.374675537109375,0.0003606858663260937,0.0006572966231033206,-0.00022496096789836884
1761467672735629600,4.384629638671875,0.0007578331278637052,0.00018460623687133193,-0.000498530687764287
1761467672745582600,4.39458251953125,0.0008715500589460135,-0.0003253890899941325,0.0010759301949292421
1761467672755535600,4.40453564453125,-0.0002676188596524298,0.0008671535179018974,0.0006512624677270651
1761467672765488600,4.414488525390625,-0.0007674942025914788,0.00022719588014297187,-0.0004611397162079811
1761467672775441700,4.424441650390625,-0.0010958078783005476,0.00008437069482170045,-0.0007733246311545372
1761467672785394700,4.434394775390625,0.0009042260935530066,-0.0006139101460576057,-0.00034881685860455036
1761467672795347700,4.44434765625,0.00019751914078369737,-0.0006295125349424779,0.00024388707242906094
1761467672805301800,4.4543017578125,0.000006836780812591314,-0.001917949877679348,0.00027637765742838383
1761467672815254800,4.4642548828125,0.00014157575787976384,0.0000942406477406621,-0.0003096447326242924
1761467672825207800,4.474207763671875,0.00029710441594943404,-0.00029910827288404107,-0.0003304174169898033
1761467672835160800,4.484160888671875,0.0003769210889004171,-0.0003445338807068765,0.00043212156742811203
1761467672845113600,4.494113525390625,0.0009010312496684492,-0.001586632221005857,-0.0004587059374898672
1761467672855066600,4.504066650390625,0.0011471181642264128,-0.0003955434658564627,0.00006795674562454224
1761467672865020400,4.5140205078125,0.00009596842573955655,0.00014294774155132473,-0.0008657476864755154
1761467672874973400,4.523973388671875,0.00009801832493394613,0.0008562069851905107,0.00010188133455812931
1761467672884926500,4.533926513671875,-0.002002416644245386,-0.0012958934530615807,0.0005245248321443796
1761467672894879700,4.543879638671875,-0.0006384424050338566,0.000793424085713923,-0.0003878581337630749
1761467672904832800,4.553832763671875,-0.0006895750993862748,0.001926332712173462,-0.0018323564436286688
1761467672914785800,4.563785888671875,-0.0012787370942533016,-0.001592139364220202,0.00016269809566438198
1761467672924738800,4.57373876953125,-0.00013996940106153488,0.0011117680696770549,-0.00003197905607521534
1761467672934692900,4.58369287109375,-0.00013588397996500134,0.00145590933971107,0.00040862453170120716
1761467672944646000,4.59364599609375,0.0003477460704743862,-0.0001776736753527075,0.00028665177524089813
1761467672954599000,4.603598876953125,0.0009393694344907999,0.0002741346834227443,0.00032012094743549824
1761467672964552000,4.613552001953125,-0.0010750455548986793,0.0007021046476438642,-0.0003840189892798662
1761467672974505000,4.6235048828125,0.00022049312246963382,0.0008843012619763613,0.0001692271325737238
1761467672984457700,4.633457763671875,0.0003137037856504321,-0.001285376027226448,0.00027868314646184444
1761467672994410800,4.64341064453125,-0.00036953986273147166,0.0007976467022672296,-0.0009410781785845757
1761467673004364800,4.65336474609375,0.000071213289629668,-0.0005741476197727025,0.00013457238674163818
1761467673014317800,4.66331787109375,0.0006284635164774954,-0.0008768993429839611,-0.00024548592045903206
1761467673024270800,4.673270751953125,-0.000923094165045768,-0.0003535881987772882,-0.0010191341862082481
1761467673034223900,4.683223876953125,-0.00012264802353456616,-0.00142715685069561,0.0007081701187416911
1761467673044177000,4.693177001953125,0.0009274363983422518,-0.0010503195226192474,0.0011073779314756393
1761467673054130000,4.7031298828125,0.0005026973667554557,-0.0020123927388340235,-0.000025064218789339066
1761467673064083000,4.7130830078125,0.00021773908520117402,-0.00028160426882095635,0.00013685598969459534
1761467673074036700,4.72303662109375,0.0005269250250421464,0.0007498726481571794,0.0009417408145964146
1761467673083989800,4.73298974609375,-0.0005623078905045986,-0.001628063851967454,0.0010394788114354014
1761467673093942800,4.74294287109375,-0.000042230531107634306,0.0006156092276796699,0.0006477858405560255
1761467673103895800,4.752895751953125,-0.0004068172420375049,-0.000025946239475160837,-0.0009096306748688221
1761467673113848800,4.762848876953125,0.0021170733962208033,0.0008694565040059388,0.00046370248310267925
1761467673123801900,4.7728017578125,0.00041451473953202367,0.0011616053525358438,-0.00025588367134332657
1761467673133756000,4.782755859375,0.00005525682354345918,0.0009555811411701143,-0.000029245158657431602
1761467673143709000,4.792708984375,0.0013237204402685165,0.0004421236226335168,-0.0014854618348181248
1761467673153661700,4.80266162109375,0.0005566981271840632,-0.000008713745046406984,-0.001965591451153159
1761467673163614700,4.81261474609375,0.001165496651083231,-0.00015572024858556688,0.00009276578202843666
1761467673173567700,4.822567626953125,-0.0016059087356552482,-0.0001381515758112073,0.0007988921133801341
1761467673183520800,4.832520751953125,-0.0003728651499841362,0.0010112687014043331,0.0007059478666633368
1761467673193473800,4.842473876953125,-0.000637835415545851,-0.00018168374663218856,0.0007461701752617955
1761467673203427800,4.852427734375,0.0001310192164964974,0.0002942231367342174,0.0008681430481374264
1761467673213380900,4.862380859375,-0.0010028814431279898,0.0008879218366928399,-0.0011308402754366398
1761467673223334000,4.872333984375,-0.0015893095405772328,0.0010714135132730007,0.000716328271664679
1761467673233287000,4.882286865234375,0.0011549717746675014,-0.001508823479525745,0.00021457183174788952
1761467673243240000,4.892239990234375,0.00017359695630148053,-0.0015314603224396706,0.00015917816199362278
1761467673253193000,4.90219287109375,0.00039067724719643593,-0.00018719080253504217,-0.0012529860250651836
1761467673263146000,4.91214599609375,-0.00013849284732714295,0.001843469450250268,-0.0014921377878636122
1761467673273099800,4.922099853515625,0.0002263335627503693,0.0008543976582586765,-0.0008033609483391047
1761467673283052800,4.932052734375,-0.00044291879748925567,-0.0007759895524941385,0.0006525892531499267
1761467673293005800,4.942005859375,0.00040499528404325247,-0.0005471592885442078,-0.0006802771240472794
1761467673302958800,4.951958740234375,0.0006241734372451901,-0.0007090794388204813,-0.0004318042192608118
1761467673312912000,4.961911865234375,0.0005273005808703601,-0.00023697104188613594,0.0005345940589904785
1761467673322865000,4.971864990234375,0.0004213067586533725,-0.0005621429882012308,-0.0019024647772312164
1761467673332818000,4.98181787109375,0.00003741990076377988,0.00011486228322610259,-0.0014221637975424528
1761467673342771700,4.991771728515625,-0.0010800424497574568,-0.0007093860767781734,-0.0011177645064890385
1761467673352724700,5.001724853515625,-0.00008412025636062026,-0.00017618536367081106,0.0005370753351598978
1761467673362677800,5.011677734375,-0.0015725609846413136,0.00014179607387632132,-0.0003170005511492491
1761467673372630800,5.021630859375,-0.001673359191045165,0.0020230691879987717,-0.0004600691609084606
1761467673382583800,5.031583740234375,0.0016934090526774526,0.0003913504770025611,0.0008187808562070131
1761467673392536800,5.041536865234375,-0.0016885895747691393,0.00008226290810853243,-0.0001941290684044361
1761467673402491000,5.051490966796875,-0.00036499861744232476,0.0004335338599048555,-0.00002927938476204872
1761467673412444000,5.06144384765625,0.0003826998872682452,-0.00037176645128056407,-0.0006836394313722849
1761467673422397000,5.07139697265625,-0.0014551476342603564,-0.0010242408607155085,0.00035206391476094723
1761467673432350000,5.081349853515625,-0.0008985846070572734,0.000060422695241868496,-0.0010334958788007498
1761467673442303000,5.091302978515625,0.0002545641618780792,-0.0011949914041906595,-0.0003807549364864826
1761467673452255700,5.101255859375,0.0017593568190932274,0.0005101813585497439,0.0007803863845765591
1761467673462208800,5.111208740234375,-0.002433524001389742,0.0001975262421183288,-0.000802862923592329
1761467673472162800,5.121162841796875,-0.0005091387429274619,-0.0006115917349234223,0.00001721363514661789
1761467673482115800,5.13111572265625,-0.001536053605377674,-0.0013343736063688993,-0.00013165711425244808
1761467673492068900,5.14106884765625,-0.0007574207847937942,0.0010459311306476593,0.0013406708603724837
1761467673502022000,5.15102197265625,-0.0005385089898481965,-0.00033784733386710286,-0.0015366084408015013
1761467673511975000,5.160974853515625,0.00010282371658831835,-0.000046109111281111836,-0.0005432462785393
1761467673521928000,5.170927978515625,-0.0003150262637063861,-0.001597666647285223,0.00028233369812369347
1761467673531881000,5.180880859375,0.0008515138179063797,-0.0016523458762094378,0.0012584090000018477
1761467673541834800,5.190834716796875,-0.0005035025533288717,-0.000590543553698808,-0.0010263167787343264
1761467673551787800,5.200787841796875,-0.0018452310469001532,0.001150633324868977,-0.0010333440732210875
1761467673561740800,5.21074072265625,0.001448033843189478,-0.0014214477268978953,-0.0004003106150776148
1761467673571693800,5.22069384765625,0.0017657226417213678,0.00009525803034193814,-0.0005436306819319725
1761467673581646800,5.230646728515625,0.0010168417356908321,-0.0010911802528426051,0.00034693023189902306
1761467673591599900,5.240599853515625,-0.00003221706720069051,-0.0008887306321412325,-0.0005564701277762651
1761467673601552600,5.250552734375,0.00008735887240618467,0.000573877478018403,0.00019267690367996693
1761467673611507000,5.2605068359375,0.000510869431309402,0.0008584847673773766,0.0005780025385320187
1761467673621459700,5.270459716796875,0.0000810353085398674,0.0005237255245447159,0.0005060969851911068
1761467673631412700,5.280412841796875,0.00046406470937654376,0.000051026116125285625,-0.0007262714207172394
1761467673641365800,5.29036572265625,-0.00030399090610444546,-0.0001252751681022346,-0.0018253580201417208
1761467673651318800,5.30031884765625,0.000497061584610492,-0.0009317275835201144,0.00008115079253911972
1761467673661271800,5.310271728515625,-0.00006433273665606976,-0.00031147742993198335,-0.0003521454054862261
1761467673671224800,5.320224853515625,-0.001228858483955264,0.001679021050222218,0.0005673374980688095
1761467673681179000,5.330178955078125,-0.0007026178063824773,0.0015549176605418324,0.000008073868229985237
1761467673691132000,5.3401318359375,-0.00044184052967466414,0.000800697598606348,-0.0000833303201943636
1761467673701085000,5.3500849609375,-0.00042692682472988963,-0.0007287557236850262,0.0005185441114008427
1761467673711038000,5.360037841796875,-0.0005691605620086193,0.0005502963322214782,0.0014287128578871489
1761467673720991000,5.369990966796875,-0.00013533164747059345,-0.0004928638227283955,0.0006864898605272174
1761467673730944000,5.379944091796875,-0.0006118644378148019,-0.0002696377341635525,0.0007315168622881174
1761467673740897800,5.389897705078125,-0.0013144062831997871,0.00004781104507856071,0.0014676145510748029
1761467673750850800,5.399850830078125,0.0012134005082771182,-0.0007494599558413029,-0.0009301835671067238
1761467673760803800,5.409803955078125,0.00032630166970193386,0.0017139639239758253,0.0009310997556895018
1761467673770756600,5.419756591796875,0.0019355571130290627,0.0005718080792576075,-0.000019909581169486046
1761467673780709600,5.429709716796875,-0.0016565145924687386,0.0006943135522305965,0.001384108909405768
1761467673790662700,5.43966259765625,0.00033693190198391676,0.0007805092027410865,0.0005373458843678236
1761467673800615700,5.44961572265625,-0.00009157066233456135,0.00044521718518808484,0.0006302900146692991
1761467673810569700,5.45956982421875,-0.00004672515206038952,0.000003578956238925457,-0.0009121212642639875
1761467673820522800,5.469522705078125,-0.00012555473949760199,0.0008456704672425985,-0.00015791412442922592
1761467673830475800,5.479475830078125,-0.00019621901446953416,0.0002650285023264587,0.001528646214865148
1761467673840428800,5.4894287109375,-0.0007059480412863195,0.0006210931460373104,-0.0005781804211437702
1761467673850381800,5.4993818359375,0.0009237455087713897,0.00048129542847163975,-0.0003282260149717331
1761467673860334800,5.5093349609375,0.0006646199035458267,0.0004336248675826937,0.0005716562736779451
1761467673870288000,5.519287841796875,-0.0003702004614751786,-0.0009513158584013581,0.0005053428467363119
1761467673880242000,5.529241943359375,-0.0012812678469344974,0.0006034376565366983,-0.000035811448469758034
1761467673890195000,5.53919482421875,-0.0006790829356759787,-0.0015009610215201974,-0.0010860448237508535
1761467673900147700,5.549147705078125,0.0017377356998622417,0.0012684601824730635,-0.0007289149798452854
1761467673910100700,5.559100830078125,0.0017182306619361043,-0.001493853167630732,0.0008261481998488307
1761467673920053500,5.569053466796875,-0.0010916705941781402,0.00036210380494594574,0.000258362153545022
1761467673930006500,5.579006591796875,0.00041071814484894276,-0.0006519987364299595,0.00036383746191859245
1761467673939959600,5.58895947265625,0.0003238990902900696,-0.0013593342155218124,-0.001146974042057991
1761467673949913600,5.59891357421875,-0.00034380718716420233,0.0018952751997858286,-0.00048066396266222
1761467673959866600,5.60886669921875,-0.00009932898683473468,-0.0004898518673144281,0.0002940497361123562
1761467673969819600,5.618819580078125,-0.001074401312507689,0.000058432051446288824,-0.0008959388360381126
1761467673979772700,5.628772705078125,0.0014087301678955555,0.00038173983921296895,-0.0004370759706944227
1761467673989725700,5.6387255859375,-0.00017477967776358128,0.0004020426422357559,0.00022699031978845596
1761467673999678700,5.6486787109375,0.00034719990799203515,-0.0001004958467092365,-0.0007213614881038666
1761467674009631700,5.6586318359375,-0.0006407193141058087,-0.000034251133911311626,0.0010196538642048836
1761467674019585500,5.66858544921875,-0.0008250100072473288,0.0003934525593649596,0.0005200449377298355
1761467674029538600,5.67853857421875,0.0012319755041971803,-0.0007553264731541276,0.00037649995647370815
1761467674039491600,5.68849169921875,-0.0004434190923348069,-0.0020139364060014486,0.0006060644518584013
1761467674049444600,5.698444580078125,-0.0004541447851806879,-0.0006826015887781978,-0.0015831505879759789
1761467674059397600,5.708397705078125,0.0014718532329425216,0.0003025016630999744,0.000933803035877645
1761467674069350400,5.718350341796875,0.0002770647406578064,-0.000044117216020822525,0.00006871321238577366
1761467674079303400,5.728303466796875,0.0011764143127948046,-0.0006156315794214606,0.00036778603680431843
1761467674089257500,5.738257568359375,0.00067259551724419,-0.0001407615200150758,-0.0001432413700968027
1761467674099210500,5.74821044921875,-0.0004352795076556504,-0.00019642159168142825,-0.0009067696519196033
1761467674109163500,5.75816357421875,-0.0004541835514828563,0.0013830538373440504,-0.0016890116967260838
1761467674119116500,5.768116455078125,0.0011330604320392013,0.0005351033760234714,0.00011607911437749863
1761467674129069600,5.778069580078125,-0.0004547683638520539,-0.0003325307334307581,-0.00047657033428549767
1761467674139022600,5.788022705078125,-0.0011458586668595672,0.0017945360159501433,-0.00040120305493474007
1761467674148975600,5.7979755859375,0.0004701482830569148,0.0005175741389393806,-0.0005662888288497925
1761467674158929700,5.8079296875,0.0006685537518933415,0.001113323261961341,0.0012696944177150726
1761467674168882700,5.817882568359375,-0.00032737402943894267,0.0009006541222333908,0.0013539291685447097
1761467674178835700,5.827835693359375,-0.00008076534140855074,-0.0009113607229664922,0.0005121040157973766
1761467674188788700,5.837788818359375,0.0003666681586764753,0.001591831212863326,0.0006147485692054033
1761467674198741800,5.84774169921875,-0.00008899875683709979,-0.00030327419517561793,0.0015854708617553115
1761467674208694800,5.85769482421875,0.00007324805483222008,0.002400727476924658,-0.00048580742441117764
1761467674218647600,5.8676474609375,0.00005540490383282304,0.0011530364863574505,-0.00021416484378278255
1761467674228601600,5.8776015625,-0.0007502288208343089,0.0006952309049665928,-0.0008217690046876669
1761467674238554400,5.887554443359375,0.00024046713951975107,-0.00020305333600845188,-0.0015179191250354052
1761467674248507400,5.89750732421875,0.0009924911428242922,0.00017917028162628412,0.0009733355836942792
1761467674258460400,5.90746044921875,-0.0004994117189198732,0.00010992810712195933,0.0002830442972481251
1761467674268413400,5.917413330078125,-0.0005606830818578601,0.0007430758560076356,-0.0005367884878069162
1761467674278366500,5.927366455078125,-0.0006999663892202079,-0.00028117586043663323,0.0007607035804539919
1761467674288319500,5.937319580078125,0.00037520512705668807,0.0010350344236940145,0.0005361412186175585
1761467674298273500,5.9472734375,-0.0010517165064811707,0.0006712466711178422,-0.0009861215949058533
1761467674308226600,5.9572265625,0.0004836128791794181,0.0011193614918738604,0.0005428600125014782
1761467674318179600,5.9671796875,0.0002937294775620103,0.0003273373586125672,0.0008368730777874589
1761467674328132600,5.977132568359375,0.0016883531352505088,0.00031609018333256245,0.00008759810589253902
1761467674338085600,5.987085693359375,-0.00027306494303047657,-0.000789121666457504,-0.0002642055042088032
1761467674348038700,5.99703857421875,0.001246002851985395,-0.002423454076051712,0.0004895087331533432
1761467674357992700,6.00699267578125,-0.000839252199511975,0.0005177409620955586,-0.0012322249822318554
1761467674367945700,6.01694580078125,-0.001116184750571847,0.00042497392860241234,0.0009547255467623472
1761467674377898800,6.026898681640625,-0.00013880460755899549,-0.001258676522411406,0.000983754056505859
1761467674387851500,6.0368515625,-0.0006803757860325277,0.000057811790611594915,-0.0008526104502379894
1761467674397804500,6.046804443359375,0.00043362454744055867,0.0008431780152022839,0.00004087993875145912
1761467674407757600,6.056757568359375,0.0013958076015114784,0.00002378341741859913,0.001938020926900208
1761467674417710600,6.066710693359375,-0.000761885370593518,0.0006472294335253537,0.0015649120323359966
1761467674427664600,6.07666455078125,-0.00028374220710247755,0.00029654300305992365,0.0004273909144103527
1761467674437617700,6.08661767578125,-0.000502387760207057,0.00032929988810792565,-0.00003227079287171364
1761467674447570700,6.09657080078125,-0.0012469440698623657,-0.0012762027326971292,0.000010226154699921608
1761467674457523700,6.106523681640625,-0.00042242935160174966,-0.0007169388700276613,0.0010525875259190798
1761467674467476500,6.1164765625,-0.00007318222196772695,0.00010199309326708317,-0.0009564608335494995
1761467674477429500,6.126429443359375,0.00011643482139334083,0.0004948093555867672,0.00004462129436433315
1761467674487382500,6.136382568359375,-0.0011203538160771132,-0.0012147268280386925,-0.0011088189203292131
1761467674497336600,6.146336669921875,-0.00041621405398473144,-0.00040485954377800226,0.0003173036966472864
1761467674507289600,6.15628955078125,0.0009570933762006462,0.0003461320011410862,0.0004350021481513977
1761467674517242600,6.16624267578125,-0.0011153785744681954,0.000008975825039669871,-0.00000841403380036354
1761467674527195600,6.176195556640625,-0.0009666011319495738,-0.00007400504546239972,0.001348606776446104
1761467674537148400,6.1861484375,-0.000244351860601455,0.00017979418043978512,-0.0011148173362016678
1761467674547101400,6.196101318359375,-0.0005124630406498909,0.0004947492852807045,-0.0008172409143298864
1761467674557054500,6.206054443359375,0.0008582659065723419,0.00010326466872356832,0.0018837370444089174
1761467674567008500,6.216008544921875,-0.0012833229266107082,0.00030773779144510627,-0.0012938312720507383
1761467674576961500,6.22596142578125,-0.0005858410149812698,-0.00013780902372673154,-0.00021897931583225727
1761467674586914600,6.23591455078125,-0.00020980072440579534,-0.00026257027639076114,0.0004969560541212559
1761467674596867600,6.24586767578125,0.0000879407161846757,0.000716674083378166,0.00007883971557021141
1761467674606820600,6.255820556640625,-0.00019513542065396905,-0.0010547005804255605,0.0008425627602264285
1761467674616773600,6.265773681640625,0.0001838324242271483,-0.00021154378191567957,-0.0002788943238556385
1761467674626726700,6.2757265625,0.0005419795052148402,-0.00014848331920802593,-0.0001021993812173605
1761467674636680700,6.2856806640625,-0.0015302260871976614,-0.00010747063788585365,0.0006594646256417036
1761467674646633700,6.2956337890625,0.000760106835514307,-0.0004274634993635118,-0.0011039897799491882
1761467674656586800,6.305586669921875,0.000426412676461041,-0.0001480978971812874,-0.0004528467543423176
1761467674666539800,6.315539794921875,-0.0010039283661171794,-0.001426450558938086,0.00041288905777037144
1761467674676492800,6.325492919921875,-0.001547213178128004,0.0006372329080477357,0.000999849638901651
1761467674686445600,6.335445556640625,0.0016817909199744463,-0.0005097112734802067,-0.0013689410407096148
1761467674696398600,6.345398681640625,-0.0005097243119962513,0.0010042957728728652,0.0013781094457954168
1761467674706352400,6.355352294921875,-0.0006610316340811551,-0.00005032873013988137,-0.000009707175195217133
1761467674716305400,6.365305419921875,-0.0012168333632871509,-0.0006522031035274267,0.0004241217393428087
1761467674726258400,6.375258544921875,-0.00039602120523341,0.0013648094609379768,0.0008197663119062781
1761467674736211500,6.38521142578125,-0.0010719315614551306,-0.00017396500334143639,-0.001842861995100975
1761467674746164500,6.39516455078125,-0.0006696032942272723,-0.00040361215360462666,0.0009012380614876747
1761467674756117500,6.405117431640625,0.0002768841222859919,-0.0011237309081479907,-0.000026074470952153206
1761467674766070500,6.415070556640625,-0.00027142942417412996,-0.00048177590360864997,-0.000058575766161084175
1761467674776024600,6.425024658203125,-0.00014413031749427319,-0.0008141384460031986,-0.0020381035283207893
1761467674785977600,6.4349775390625,0.0005435115890577435,0.0018700410146266222,-0.0005363964010030031
1761467674795930600,6.4449306640625,0.00019144173711538315,-0.00014570559142157435,-0.0013193658087402582
1761467674805883600,6.454883544921875,0.0002472863416187465,0.0010191220790147781,0.0003097057342529297
1761467674815836700,6.464836669921875,-0.001560201053507626,-0.0012110089883208275,0.0004449943080544472
1761467674825789700,6.474789794921875,-0.00003397301770746708,-0.00016086437972262502,0.00012516463175415993
1761467674835742500,6.484742431640625,0.0019998832140117884,0.00007322750752791762,0.0005360902287065983
1761467674845696800,6.49469677734375,-0.00030686327954754233,-0.0005534309311769903,0.0013440201291814446
1761467674855649500,6.5046494140625,0.0008611991070210934,-0.0008956471574492753,0.00003853859379887581
1761467674865602600,6.5146025390625,0.0006544804782606661,0.0006559669855050743,0.0006620069034397602
1761467674875555600,6.5245556640625,0.00020334101282060146,-0.000558700761757791,0.001393843675032258
1761467674885508600,6.534508544921875,-0.0004384431231301278,0.0006635095924139023,-0.00037308107130229473
1761467674895461600,6.544461669921875,-0.0009108879021368921,0.0004424672806635499,0.0004519664216786623
1761467674905415200,6.554415283203125,0.000048937101382762194,0.0019912493880838156,0.0006298529915511608
1761467674915369000,6.564368896484375,0.0006148588727228343,-0.0012436923570930958,0.000165930250659585
1761467674925322000,6.574322021484375,0.0011514907237142324,0.0005216574645601213,0.0003009072970598936
1761467674935274800,6.584274658203125,0.000026038847863674164,0.0008116757380776107,-0.00021308287978172302
1761467674945227800,6.594227783203125,-0.00014471961185336113,0.0007797009311616421,0.00023781065829098225
1761467674955180800,6.604180908203125,0.00018205022206529975,0.0009104621130973101,0.0005411445163190365
1761467674965133800,6.6141337890625,-0.002850564895197749,-0.0004934916505590081,0.00059306132607162
1761467674975086800,6.6240869140625,-0.0018316395580768585,0.0005318252951838076,-0.0005542284343391657
1761467674985041000,6.634041015625,-0.00006850931094959378,-0.00023082364350557327,0.00020052562467753887
1761467674994994000,6.643993896484375,0.00004094658652320504,0.000001936627086251974,0.0004561890382319689
1761467675004947000,6.653947021484375,0.0005683891358785331,0.0003652233863249421,-0.00017727934755384922
1761467675014900000,6.66389990234375,-0.0004976742784492671,0.0008477881783619523,0.0006512301042675972
1761467675024853000,6.67385302734375,0.0004277621628716588,-0.0009337257361039519,-0.00020104413852095604
1761467675034806000,6.683805908203125,-0.0008489573374390602,0.0003533799899742007,0.0008471759501844645
1761467675044759000,6.693759033203125,0.000861308362800628,-0.00001715455437079072,-0.0017733112908899784
1761467675054713000,6.703713134765625,-0.0004423090140335262,-0.0007708290941081941,-0.0012731696479022503
1761467675064666000,6.713666015625,-0.00024541368475183845,-0.00007977447239682078,0.0003422365989536047
1761467675074619100,6.723619140625,0.00041132187470793724,-0.0013618201483041048,-0.0008956005331128836
1761467675084572200,6.733572265625,0.0017701961332932115,-0.0015542388428002596,-0.0006114575080573559
1761467675094525000,6.74352490234375,-0.0003121296176686883,0.00036190543323755264,-0.0004934794269502163
1761467675104478000,6.75347802734375,-0.0003878735296893865,-0.0015902931336313486,-0.0006448742933571339
1761467675114431000,6.763430908203125,0.0006230624276213348,0.0014784671366214752,0.0004981544334441423
1761467675124384800,6.773384765625,-0.0005077537498436868,-0.0006527936784550548,-0.0002390090376138687
1761467675134337800,6.783337890625,-0.0002616776619106531,0.0003866381011903286,-0.0007668475154787302
1761467675144290800,6.793290771484375,0.0002967157633975148,0.0004634874640032649,0.00013454467989504337
1761467675154243800,6.803243896484375,0.0011744936928153038,0.0005031685577705503,0.0004791577812284231
1761467675164196900,6.81319677734375,0.0001195003860630095,0.0003828485496342182,0.0006435459945350885
1761467675174150000,6.82314990234375,0.00007529190042987466,0.0007556910859420896,0.00027150241658091545
1761467675184103000,6.83310302734375,-0.000038503087125718594,-0.0009362522978335619,0.00007001915946602821
1761467675194057000,6.843056884765625,-0.0002787202538456768,-0.00008670397801324725,0.0002937247045338154
1761467675204010000,6.853010009765625,0.0008223796612583101,-0.0006370930932462215,0.000001750187948346138
1761467675213963000,6.862962890625,-0.001144364825449884,0.0015922390157356858,-0.0004398017190396786
1761467675223916000,6.872916015625,-0.00015852198703214526,-0.0019013427663594484,0.0004909979179501534
1761467675233869000,6.882869140625,-0.0011111346539109945,0.00030375452479347587,0.0007645045407116413
1761467675243821800,6.89282177734375,-0.000340506958309561,0.000002591172233223915,-0.0009382567368447781
1761467675253776100,6.902776123046875,-0.0007562264217995107,-0.0010403026826679707,0.0005637661088258028
1761467675263729000,6.91272900390625,0.0020748768001794815,-0.0004881946661043912,-0.000015118392184376717
1761467675273682000,6.922681884765625,-0.0003467356145847589,-0.0001928501296788454,0.0011896956712007523
1761467675283635000,6.932635009765625,0.0011208286741748452,-0.000814349390566349,0.0015119449235498905
1761467675293588000,6.942587890625,0.0003122929483652115,0.0009625116363167763,0.0003436161205172539
1761467675303541000,6.952541015625,0.0019801128655672073,0.0006106586661189795,-0.01847064308822155
1761467675313494000,6.962493896484375,0.000023221946321427822,0.005365200340747833,0.025494150817394257
1761467675323448000,6.972447998046875,0.0002566539915278554,-0.01144122239202261,-0.006205473095178604
1761467675333401000,6.982401123046875,0.0006161808269098401,0.006538843270391226,-0.006701086647808552
1761467675343354000,6.99235400390625,-0.002227796008810401,0.001396254519931972,0.010962292551994324
1761467675353307100,7.00230712890625,-0.0012818413088098168,-0.009822310879826546,-0.011612258851528168
1761467675363260000,7.012260009765625,0.00029679620638489723,0.015226928517222404,0.006322876084595919
1761467675373213000,7.022212890625,-0.0006560827605426311,-0.015208208002150059,-0.001892709406092763
1761467675383166000,7.032166015625,0.0002578888088464737,0.009000508114695549,-0.00013068923726677895
1761467675393120000,7.0421201171875,-0.00023932335898280144,-0.003923546522855759,-0.00033442117273807526
1761467675403073000,7.052072998046875,-0.0004921719082631171,0.0006621138891205192,0.0005307851824909449
1761467675413025800,7.06202587890625,-0.0005915078218095005,-0.0007461657514795661,-0.00036989571526646614
1761467675422978800,7.071978759765625,-0.0007060364005155861,0.001400632900185883,0.0023034217301756144
1761467675432931800,7.081931884765625,0.0008806749829091132,-0.002392241032794118,0.0004653078503906727
1761467675442884900,7.091884765625,0.00018948799697682261,0.0033150184899568558,0.0004659537225961685
1761467675452838000,7.101837890625,0.00006431940710172057,-0.0032699136063456535,-0.0005124916788190603
1761467675462792000,7.1117919921875,0.0006428970373235643,0.0008854041807353497,-0.000887216767296195
1761467675472745000,7.121744873046875,-0.0006383497384376824,-0.0007756093982607126,0.0001908307895064354
1761467675482698000,7.131697998046875,-0.0022207151632755995,-0.0017299004830420017,0.0011630742810666561
1761467675492651000,7.141651123046875,-0.0005301405908539891,0.0023521925322711468,0.00013402896001935005
1761467675502604000,7.15160400390625,-0.001485053333453834,-0.0008998984703794122,0.0002779928036034107
1761467675512557000,7.16155712890625,-0.0014317900640890002,0.0007517939666286111,0.0003059559967368841
1761467675522510000,7.171510009765625,0.00019170361338183284,-0.00009569688700139523,-0.0004717954434454441
1761467675532464000,7.181464111328125,-0.0011388116981834173,-0.0003457677084952593,0.00016576540656387806
1761467675542417200,7.191417236328125,-0.000038400350604206324,0.0014879846712574363,0.00020511704497039318
1761467675552370200,7.2013701171875,-0.0009137814049609005,-0.000430556625360623,-0.000557346036657691
1761467675562323000,7.211322998046875,-0.0014683902263641357,-0.0008625089540146291,-0.0009674546308815479
1761467675572276000,7.22127587890625,-0.0008723748032934964,-0.00008246907964348793,0.0013337829150259495
1761467675582229000,7.23122900390625,-0.0005526054883375764,0.00035746744833886623,-0.0002995182294398546
1761467675592182000,7.24118212890625,0.00005992152728140354,0.000564927700906992,-0.000436937203630805
1761467675602135800,7.2511357421875,0.00035251572262495756,-0.0004895299207419157,0.001475313794799149
1761467675612088800,7.2610888671875,0.0012140482431277633,-0.0018810315523296595,0.00012029730714857578
1761467675622041900,7.271041748046875,-0.0003683998656924814,-0.0006046774797141552,0.00047922972589731216
1761467675631995000,7.280994873046875,0.0006321498076431453,0.0003716374048963189,0.00013115443289279938
1761467675641948000,7.290947998046875,-0.0005608338979072869,-0.00016548437997698784,0.00045078922994434834
1761467675651901000,7.30090087890625,-0.001284414785914123,-0.00029198452830314636,0.00020844140090048313
1761467675661854000,7.31085400390625,-0.0005252331611700356,-0.0015541687607765198,-0.00006230059079825878
1761467675671808000,7.32080810546875,-0.00043255515629425645,0.00034919241443276405,-0.00015125027857720852
1761467675681761000,7.330760986328125,-0.00032099237432703376,-0.0006313342018984258,0.0007106217090040445
1761467675691714000,7.340714111328125,0.00024919043062254786,-0.00019084737868979573,0.0009859924903139472
1761467675701667000,7.3506669921875,0.0019598137587308884,-0.00002765085082501173,-0.0009363170247524977
1761467675711619800,7.360619873046875,0.0010660570114850998,0.0004924645181745291,0.0005175026599317789
1761467675721572900,7.37057275390625,0.000367928936611861,-0.0009728443692438304,-0.0019702110439538956
1761467675731526000,7.38052587890625,0.0009724664851091802,-0.0004519300418905914,-0.0006636644247919321
1761467675741480000,7.39047998046875,-0.00027518245042301714,0.0003726775757968426,0.00041367928497493267
1761467675751433000,7.400432861328125,0.00015491805970668793,0.0000586908427067101,0.001199844409711659
1761467675761386000,7.410385986328125,-0.0007215011864900589,-0.0010141533566638827,0.0008210447849705815
1761467675771339000,7.420339111328125,-0.0005744946538470685,0.003090576734393835,0.0019731284119188786
1761467675781292000,7.4302919921875,0.0019453699933364987,0.003695262596011162,0.004189812112599611
1761467675791245000,7.4402451171875,-0.00006584933726117015,0.01063253078609705,0.004125895909965038
1761467675801198000,7.450197998046875,0.0029631969518959522,-0.005767041817307472,0.002164915669709444
1761467675811152000,7.46015185546875,-0.0006025093607604504,0.010957876220345497,0.0019167090067639947
1761467675821105000,7.47010498046875,-0.0007028744439594448,-0.011167716234922409,-0.0024520137812942266
1761467675831058000,7.480057861328125,0.00039381528040394187,0.0050083245150744915,0.0008721438935026526
1761467675841011000,7.490010986328125,-0.0010969674913212657,-0.009837906807661057,-0.0029709686059504747
1761467675850964000,7.4999638671875,-0.0017696819268167019,0.00252288905903697,0.0009910159278661013
1761467675860916700,7.509916748046875,-0.002241286216303706,-0.005743711721152067,-0.001905306475237012
1761467675870871000,7.51987109375,-0.0005461842520162463,-0.0005880979588255286,-0.0001904971431940794
1761467675880823800,7.52982373046875,-0.000050825823564082384,0.00032137148082256317,0.0005719657056033611
1761467675890776800,7.53977685546875,0.0006341392290778458,-0.0033287571277469397,0.000601260457187891
1761467675900730400,7.54973046875,-0.00023928098380565643,0.0004421984776854515,0.0003519121091812849
1761467675910683400,7.559683349609375,-0.0005777687183581293,-0.0011711444240063429,0.0005202239844948053
1761467675920636400,7.569636474609375,-0.0007507615955546498,-0.000593343866057694,0.00023248931393027306
1761467675930589400,7.57958935546875,0.00025831005768850446,0.0004508815472945571,0.0009941533207893372
1761467675940543500,7.58954345703125,-0.0003673384489957243,-0.00027818651869893074,-0.0019064485095441341
1761467675950496500,7.59949658203125,-0.0006837219698354602,-0.0003426350303925574,-0.00010641803964972496
1761467675960449500,7.609449462890625,-0.000466964760562405,-0.0007359033916145563,0.0015695858746767044
1761467675970402600,7.619402587890625,0.001330935163423419,-0.0010498900664970279,-0.000454949215054512
1761467675980355600,7.62935546875,0.0012587367091327906,0.0020370353013277054,0.0011683214688673615
1761467675990308600,7.63930859375,0.00004646583693102002,0.0004748252686113119,0.0008822979871183634
1761467676000261600,7.64926171875,0.0010919473133981228,0.0006713788025081158,0.0012170765548944473
1761467676010215400,7.65921533203125,0.00138729193713516,0.0016199967358261347,-0.00019573047757148743
1761467676020168400,7.66916845703125,-0.001241345889866352,-0.00018071482190862298,0.0010231242049485445
1761467676030121500,7.67912158203125,0.00010994198964908719,0.0014267691876739264,-0.0011100678239017725
1761467676040074200,7.68907421875,0.001480326522141695,-0.00040274730417877436,0.0007937891641631722
1761467676050027300,7.69902734375,0.0005902982084080577,0.0007442762143909931,0.0009831399656832218
1761467676059980300,7.708980224609375,0.000040814687963575125,0.00040021364111453295,0.0006484463810920715
1761467676069933300,7.718933349609375,0.0009630674030631781,-0.00015452282968908548,0.00046175881288945675
1761467676079887400,7.728887451171875,-0.0002852842735592276,0.00019772688392549753,0.0015552471159026027
1761467676089840400,7.73884033203125,-0.0002695716102607548,-0.0006350435432977974,-0.0002596972044557333
1761467676099793400,7.74879345703125,0.00012581644114106894,0.00011166295735165477,-0.0010190666653215885
1761467676109746400,7.758746337890625,-0.00029762618942186236,-0.0008329602424055338,0.0012467507040128112
1761467676119699500,7.768699462890625,0.00028819614090025425,0.0002676006406545639,0.0007080759387463331
1761467676129652500,7.778652587890625,0.0006466576596722007,-0.000004574365448206663,-0.00006637116894125938
1761467676139605500,7.78860546875,0.000744874938391149,0.001799493795260787,-0.000570707255974412
1761467676149559600,7.7985595703125,0.0002583153545856476,-0.0008085398003458977,0.0009358428651466966
1761467676159512600,7.8085126953125,0.0006141181220300496,-0.0006737032090313733,0.001200071768835187
1761467676169465600,7.818465576171875,-0.0007118697976693511,-0.0013725166209042072,0.00036250753328204155
1761467676179418600,7.828418701171875,-0.0005023659905418754,0.0024905353784561157,0.00291678449138999
1761467676189371400,7.838371337890625,0.0008529166225343943,-0.0008360192878171802,0.0008752052672207355
1761467676199324400,7.848324462890625,0.001164168119430542,0.0022500883787870407,0.0004906191024929285
1761467676209277400,7.85827734375,-0.0007194856880232692,-0.00013530493015423417,0.000010451069101691246
1761467676219231500,7.8682314453125,-0.0007225559675134718,-0.000014985736925154924,0.0003790450282394886
1761467676229184500,7.8781845703125,-0.001481556799262762,0.0013589391019195318,0.00318495137616992
1761467676239137500,7.888137451171875,0.0006124319625087082,-0.00011072325287386775,0.0017543246503919363
1761467676249090600,7.898090576171875,-0.0003116849111393094,-0.00009341270197182894,0.0007465844973921776
1761467676259043300,7.908043212890625,-0.00018602580530568957,0.00045811571180820465,-0.0005668227095156908
1761467676268996400,7.917996337890625,-0.0009863056475296617,0.00006503314943984151,0.0013139017391949892
1761467676278950400,7.927950439453125,0.001156400190666318,0.0002453660126775503,0.0001593723427504301
1761467676288903400,7.9379033203125,0.00045572250382974744,-0.0005674307467415929,-0.0001812460832297802
1761467676298856400,7.9478564453125,-0.001429969910532236,-0.00007421331247314811,0.00065222242847085
1761467676308809500,7.9578095703125,-0.00003793567884713411,-0.0011432061437517405,-0.0014759097248315811
1761467676318762500,7.967762451171875,-0.0008393683237954974,0.0008268951205536723,-0.0013296885881572962
1761467676328715500,7.977715576171875,-0.00042418151861056685,-0.0020101703703403473,-0.0018956104759126902
1761467676340534500,7.989534423828125,-0.0005570185603573918,0.0018313220934942365,0.0007388597587123513
1761467676350488300,7.99948828125,0.00008785852696746588,0.001177776139229536,0.0006352064665406942
1761467676360441300,8.00944140625,-0.0012194872833788395,0.0003825563471764326,0.00012627639807760715
1761467676370394400,8.019394287109375,0.00012079556472599506,-0.001316602574661374,0.00023181061260402203
1761467676380347400,8.029347412109376,0.0009887197520583868,-0.0005333669250831008,-0.0013740754220634699
1761467676390300400,8.039300537109375,-0.0006711219321005046,-0.0002777717891149223,0.0010681691346690059
1761467676400253400,8.04925341796875,-0.0012002920266240835,-0.00045780150685459375,0.0018053320236504078
1761467676410206500,8.05920654296875,-0.0008276933222077787,-0.0001920487848110497,-0.0008229783270508051
1761467676420160500,8.069160400390626,0.00039203447522595525,0.0008468503365293145,0.0006100686732679605
1761467676430113500,8.079113525390625,-0.0009048833744600415,-0.0014685556525364518,-0.00047612818889319897
1761467676440066600,8.089066650390626,-0.000564265123102814,-0.0005247313529253006,-0.0001797182485461235
1761467676450019300,8.099019287109375,0.0005605145124718547,-0.0017287342343479395,-0.0003133907448500395
1761467676459972400,8.108972412109376,0.00013787089847028255,0.0007216402445919812,-0.0009655989706516266
1761467676469925400,8.11892529296875,0.00012106948997825384,-0.00036301565705798566,0.0008049436146393418
1761467676479878400,8.12887841796875,-0.0025684568099677563,0.0000388553598895669,0.000010256189852952957
1761467676489832400,8.13883251953125,-0.0006895042024552822,-0.00034251483157277107,0.0008874506456777453
1761467676499785500,8.148785400390626,-0.0007816496072337031,0.00015203416114673018,0.0007455041632056236
1761467676509738500,8.158738525390625,0.0014036479406058788,0.0010170344030484557,-0.0011226523201912642
1761467676519691500,8.16869140625,-0.0003561690100468695,-0.00208181980997324,0.0011673998087644577
1761467676529644500,8.17864453125,-0.00044296454871073365,-0.0008994258823804557,-0.0007424261420965195
1761467676539597600,8.18859765625,0.00022628781152889132,-0.00001232692738994956,-0.00012111058458685875
1761467676549550600,8.198550537109375,0.0001484148669987917,-0.0013552289456129074,0.0015917179407551885
1761467676559504400,8.20850439453125,0.0004711899673566222,-0.000845499977003783,0.0006881073350086808
1761467676569457400,8.21845751953125,-0.001015459536574781,0.000998262083157897,0.00032808794640004635
1761467676579410400,8.228410400390626,0.0007952236337587237,-0.0012555711437016726,0.0008916127262637019
1761467676589363500,8.238363525390625,-0.00019730592612177134,-0.0009060467127710581,-0.0006097457371652126
1761467676599316500,8.24831640625,-0.00016454904107376933,-0.00046875563566572964,0.0012350259348750114
1761467676609269500,8.25826953125,0.00007305905455723405,0.0002671438851393759,0.000526949530467391
1761467676619222500,8.268222412109376,0.00045602157479152083,0.0007963139214552939,-0.00033831153996288776
1761467676629176300,8.27817626953125,0.00023156701354309916,0.00007947318954393268,0.00048366328701376915
1761467676639129300,8.28812939453125,0.0004699199344031513,-0.0006507655489258468,0.0007236141245812178
1761467676649082400,8.298082275390625,0.0005517629906535149,-0.0008629647782072425,0.0006549111567437649
1761467676659035400,8.308035400390626,-0.0017574640223756433,-0.000027797475922852755,0.0016163121908903122
1761467676668988400,8.317988525390625,0.000950438785366714,0.000169111299328506,-0.00038724998012185097
1761467676679564500,8.328564453125,0.0007488374831154943,-0.0007142592221498489,0.0016772325616329908
1761467676689517600,8.338517578125,0.000015554134733974934,-0.0002296009915880859,0.0004108445718884468
1761467676699470600,8.348470703125,-0.0003005631151609123,-0.00005250074900686741,0.0006148426327854395
1761467676709423600,8.358423583984376,-0.00024361605755984783,0.0009347144514322281,0.002655928721651435
1761467676719377400,8.36837744140625,0.0010781107703223825,-0.0008788981940597296,0.0007991729071363807
1761467676729330400,8.378330322265626,0.000533724669367075,-0.0005524531006813049,0.0003206662368029356
1761467676739283500,8.388283447265625,-0.0006977210287004709,-0.0005689647514373064,-0.0006471264641731977
1761467676749236200,8.398236328125,-0.0007451646961271763,-0.001077939523383975,-0.0005391803570091724
1761467676759189200,8.408189208984375,0.0006521959439851344,0.00007733982056379318,0.0006006525363773108
1761467676769142300,8.418142333984376,0.0007887809770181775,-0.000470333470730111,0.0002369594294577837
1761467676779095300,8.42809521484375,-0.0005561154102906585,0.001205860055051744,-0.0020994318183511496
1761467676789049300,8.43804931640625,0.0008968940819613636,0.0005094684893265367,0.001182418316602707
1761467676799002400,8.44800244140625,-0.0003444052708800882,0.0008737889584153891,0.0008180979639291763
1761467676808955400,8.457955322265626,0.002218258799985051,0.00013832934200763702,-0.0016249730251729488
1761467676818908400,8.467908447265625,0.0002776133478619158,0.0013245012378320098,-0.001280359923839569
1761467676828861400,8.477861328125,-0.0007821300532668829,-0.0012554177083075047,-0.0004830537363886833
1761467676838814500,8.487814453125,-0.00013977556955069304,-0.0007920276839286089,0.000835477258078754
1761467676848767500,8.497767578125,-0.0009397034882567823,-0.0006208667764440179,-0.001906057121232152
1761467676858721500,8.507721435546875,-0.0012310533784329891,0.0004140376695431769,-0.000016277888789772987
1761467676868674600,8.517674560546874,-0.00005944090662524104,-0.00007403414929285645,-0.0008395588956773281
1761467676878627600,8.527627685546875,-0.0006144436774775386,-0.0007083991076797247,-0.00013195700012147427
1761467676888580600,8.53758056640625,0.0008462175610475242,-0.000598048442043364,-0.0002935286611318588
1761467676898533000,8.547533203125,-0.0002358248457312584,0.00030316528864204884,-0.000031739939004182816
1761467676908486100,8.557486083984376,-0.00008416181663051248,-0.0004503405943978578,-0.00005909893661737442
1761467676918440200,8.567440185546875,-0.0007797795115038753,-0.0023579630069434643,0.0007907157996669412
1761467676928393200,8.577393310546874,-0.0008709104731678963,-0.0016016594599932432,-0.0006193567533046007
1761467676938346200,8.58734619140625,-0.000218702363781631,-0.00014677457511425018,-0.0007365357596427202
1761467676948299300,8.59729931640625,-0.0012847399339079857,-0.0006838975241407752,-0.0006755329668521881
1761467676958252300,8.607252197265625,0.0010995881166309118,-0.0014636710984632373,0.0005316778551787138
1761467676968205000,8.617205078125,-0.00015521841123700142,-0.0011095259105786681,-0.00020206277258694172
1761467676978158000,8.627157958984375,-0.0013160903472453356,-0.0007476023165509105,0.00037664221599698067
1761467676988112000,8.63711181640625,0.0012713940814137459,0.00024326692800968885,-0.0006450412329286337
1761467676998065000,8.64706494140625,-0.0006889586802572012,0.00016390468226745725,0.00010996498167514801
1761467677008018000,8.657017822265624,-0.0017047958681359887,-0.0002755177556537092,0.00020355405285954475
1761467677017971000,8.666970947265625,0.00023371906718239188,0.0007490003481507301,-0.00014745071530342102
1761467677027924000,8.676924072265624,-0.0005612534587271512,0.0000926220091059804,-0.00019987975247204304
1761467677037877000,8.686876953125,0.00009707995923236012,0.00030966964550316334,-0.00004275329411029816
1761467677047831000,8.6968310546875,-0.00019158940995112062,0.0005185338668525219,0.0006203048396855593
1761467677057784000,8.7067841796875,-0.00046003604074940085,-0.0011954766232520342,0.0005798246711492538
1761467677067737000,8.716737060546874,0.0003900097799487412,0.0012254740577191114,-0.0003379848785698414
1761467677077690000,8.726690185546875,0.0011048023588955402,0.00017112860223278403,-0.0006951149553060532
1761467677087643100,8.73664306640625,0.0012430308852344751,0.00036737677874043584,-0.0001889420673251152
1761467677097596200,8.74659619140625,-0.00057244609342888,0.00023981131380423903,-0.00013035256415605545
1761467677107549200,8.756549072265624,0.0000612828298471868,0.00018868246115744114,0.0006044411566108465
1761467677117503200,8.766503173828125,-0.00021888170158490539,-0.0006294405902735889,-0.0002195409033447504
1761467677127456300,8.776456298828125,0.0016071097925305367,-0.00004390481626614928,-0.0005570582579821348
1761467677137409000,8.786408935546875,0.000028654350899159908,0.00014038587687537074,0.000023777363821864128
1761467677147362000,8.796362060546874,-0.0002269282122142613,0.00028235651552677155,0.00043819774873554707
1761467677157315000,8.806315185546875,0.000327541958540678,-0.001400228589773178,0.0002658911980688572
1761467677167268000,8.81626806640625,0.00041992811020463705,0.001726514077745378,0.00016432278789579868
1761467677177221000,8.82622119140625,-0.00022668740712106228,-0.0021164272911846638,-0.00021810713224112988
1761467677187175000,8.8361748046875,-0.0012715223710983992,0.0006123357452452183,0.001580605749040842
1761467677197128000,8.8461279296875,-0.00039640761679038405,-0.0010840978939086199,-0.0013422134798020124
1761467677207081000,8.8560810546875,0.0009932214161381125,0.0001118571381084621,-0.0004685623571276665
1761467677217034000,8.866033935546875,-0.00007816823199391365,-0.00007376517169177532,-0.0008488616440445185
1761467677226987000,8.875987060546874,-0.0008679633028805256,-0.0005256399745121598,0.00009400397539138794
1761467677236940000,8.88593994140625,-0.0009489234071224928,-0.0010300426511093974,-0.0014591515064239502
1761467677246894000,8.89589404296875,-0.0007097438792698085,0.0007000291952863336,0.0006547953234985471
1761467677256847000,8.90584716796875,0.0008631190285086632,-0.000296525628073141,0.001562134362757206
1761467677266800000,8.915800048828125,0.0003118430613540113,0.00044040195643901825,0.0003976656589657068
1761467677276753200,8.925753173828125,-0.0018943196628242731,0.020522233098745346,0.011234866455197334
1761467677286706000,8.935705810546875,0.00043943547643721104,0.028539376333355904,-0.0002221069298684597
1761467677296659000,8.945658935546875,-0.002821871545165777,-0.040884971618652344,-0.002552905585616827
1761467677306612000,8.955612060546875,-0.0003599275660235435,0.0361161082983017,0.0030006393790245056
1761467677316566000,8.96556591796875,0.0004946807748638093,-0.020531458780169487,-0.002489999867975712
1761467677326519000,8.97551904296875,-0.0009623563964851201,0.011609822511672974,0.0005050890613347292
1761467677336472000,8.98547216796875,-0.000867015216499567,-0.0070605347864329815,-0.0017838976345956326
1761467677346425000,8.995425048828125,-0.0002740679192356765,0.005101868417114019,0.001783690880984068
1761467677356378000,9.005378173828126,0.0006058405269868672,-0.005612827837467194,-0.0039468989707529545
1761467677366331100,9.0153310546875,-0.0010762120364233851,-0.005120409186929464,-0.0015870719216763973
1761467677376284200,9.0252841796875,0.0011177000124007463,-0.00910902488976717,-0.0034419638104736805
1761467677386238200,9.03523828125,0.0002836301573552191,-0.014511928893625736,-0.006820318289101124
