time,seconds_elapsed,z,y,x
1761506822347259600,0.077259765625,0.08704758433401584,0.1903392511781305,-0.08937818270605057
1761506822357230800,0.08723095703125,0.17252338930666444,0.13992737999781965,-0.17965634645912795
1761506822367202800,0.097202880859375,0.18264497034847735,0.14807714951001108,-0.26970992594240234
1761506822377174800,0.1071748046875,0.14833295090198517,0.16102774343267082,-0.3312734701309353
1761506822387146800,0.117146728515625,0.11648761382997035,0.14578260883204638,-0.3066861413631588
1761506822397118700,0.12711865234375,0.09823124164938926,0.1561406289782375,-0.21627006697673348
1761506822407089700,0.137089599609375,0.05943243217766284,0.1392169667061418,-0.08333062790380791
1761506822417062000,0.147061767578125,0.035060791987180706,0.10123422285765409,0.04313048200048506
1761506822427033900,0.157033935546875,0.021303484791517256,0.07578406671546399,0.11005582721680401
1761506822437005800,0.167005859375,0.01903495533764362,0.0470456096176058,0.1671237587528303
1761506822446977000,0.17697705078125,0.019253566524386406,0.010958397192135453,0.20127123528737573
1761506822456948700,0.18694873046875,-0.028148820641636846,0.0013351210612803698,0.2296861960519105
1761506822466921000,0.1969208984375,-0.050204585105180735,-0.026479718385636807,0.257131361936219
1761506822476892700,0.206892578125,-0.05815408280491829,-0.033837899128720164,0.25713348082806914
1761506822486865000,0.216864990234375,-0.08974047667980194,-0.035030981370806694,0.23046762875318527
1761506822496835600,0.226835693359375,-0.11804302657842636,-0.05072670928314328,0.19536391093973068
1761506822506807800,0.236807861328125,-0.11828326507508755,-0.07293664139509201,0.2003825428193435
1761506822516779800,0.24677978515625,-0.10639935053586959,-0.07069317331723868,0.22257075628982856
1761506822526751700,0.256751708984375,-0.10416881500482558,-0.078028119315207,0.25306827721577135
1761506822536724000,0.266723876953125,-0.10375672707259655,-0.09531221239753067,0.2516130734387785
1761506822546694700,0.276694580078125,-0.136579969266057,-0.07342186762876808,0.24625264238417147
1761506822556667000,0.2866669921875,-0.23859482110738753,-0.05301211680658161,0.2370706620137207
1761506822566638600,0.296638671875,-0.33380817624032494,-0.038774990204721686,0.21924678123258054
1761506822576610800,0.30661083984375,-0.3557949671208858,-0.015849237973615527,0.19728985576732083
1761506822586581800,0.316581787109375,-0.2948053686290979,-0.006255918589606881,0.18317966174706815
1761506822596553700,0.3265537109375,-0.17151158191561697,-0.01970138335712254,0.19385637418730184
1761506822606526000,0.33652587890625,-0.04933247844576835,-0.019176336569711565,0.19268681895127518
1761506822616497700,0.34649755859375,0.014061843100190163,-0.0006595598872750997,0.1494952635464724
1761506822626470000,0.356469970703125,0.061596916735172265,-0.02572802323549986,0.06743747315665241
1761506822636440800,0.36644091796875,0.07566343601047992,-0.036568785397335886,-0.010556120551156345
1761506822646412800,0.376412841796875,-0.009374562066793442,-0.026350319852307437,-0.049927476063696664
1761506822656384800,0.386384765625,-0.07107903082966804,-0.025217516430094837,-0.05028435864339117
1761506822666356700,0.396356689453125,-0.0645148500084877,-0.03344955739825964,-0.06798453997962642
1761506822676327700,0.40632763671875,-0.03294540726840496,-0.0439962319843471,-0.0737472499585012
1761506822686300000,0.4162998046875,-0.011638999867439269,-0.05379004237651824,-0.03890975903291255
1761506822696272100,0.426272216796875,-0.01722293747961521,-0.05810805170610547,-0.03590224321342539
1761506822706244400,0.436244384765625,-0.04643909509181976,-0.023716171956434846,-0.07638912906968034
1761506822716216000,0.446216064453125,-0.09802841255366801,-0.012383461559191346,-0.11369780044835061
1761506822726187300,0.456187255859375,-0.11124328343570232,0.0018109218794852494,-0.14870994925452397
1761506822736159000,0.466158935546875,-0.1526753640204668,0.04458630683198571,-0.16620355690168215
1761506822746131200,0.476131103515625,-0.2395329787403345,0.09970102194100618,-0.18981473411368205
1761506822756103200,0.486103271484375,-0.25789456486105916,0.12821575328558682,-0.18611197060560805
1761506822766075100,0.4960751953125,-0.14769173038899897,0.1231186493422836,-0.16956855808906257
1761506822776046300,0.50604638671875,-0.005487491500377655,0.09698065706640481,-0.1445899193156045
1761506822786018000,0.51601806640625,0.12731938896775244,0.06022489772960543,-0.09823168004080653
1761506822795990300,0.525990234375,0.21058979285061358,0.03345532955192029,-0.09943721990566701
1761506822805962000,0.5359619140625,0.2837690108299255,0.00963810837380588,-0.118591006716853
1761506822815933200,0.54593310546875,0.32241409104466434,-0.006642872080579399,-0.13697619290887378
1761506822825905200,0.5559052734375,0.304960267418623,0.017375205431878565,-0.15651828491790218
1761506822835877000,0.565877197265625,0.2045849994778633,0.04553016355335712,-0.20004890868449582
1761506822845849300,0.575849365234375,0.0716641372412443,0.08457790628485382,-0.23285814061891286
1761506822855821000,0.585821044921875,-0.008749123644828796,0.11074826646037399,-0.2435613940062001
1761506822865792300,0.595792236328125,-0.03954056774973869,0.07801679420359432,-0.2629172153286636
1761506822875764200,0.60576416015625,-0.013939678025245665,0.04665829080045223,-0.23023886149860917
1761506822885736200,0.615736083984375,0.10326514416337013,-0.031629648494720455,-0.15708972813030703
1761506822895708200,0.625708251953125,0.2376379587739706,-0.0848161720201373,-0.09261264371578581
1761506822905679000,0.63567919921875,0.29846856731176374,-0.10727211478240788,-0.03877994494105223
1761506822915651000,0.645651123046875,0.30370588344335553,-0.09160444392077624,0.028530871911917347
1761506822925623300,0.655623291015625,0.2568453480690718,-0.047519729935377834,0.04462077992374543
1761506822935595300,0.66559521484375,0.1769353605300188,-0.01936572166197002,0.06116713788262568
1761506822945567200,0.675567138671875,0.09067980335652828,0.00417589744515717,0.09285424305247142
1761506822955538200,0.6855380859375,0.04725450312793254,0.008293342701345682,0.142270846984582
1761506822965510100,0.69551025390625,0.02122398981451988,0.00944455856308341,0.19128495279671623
1761506822975482000,0.705482177734375,0.025753449937701223,0.002276858890801668,0.23813374293427914
1761506822985454000,0.7154541015625,0.06299100144207477,-0.002286649632453918,0.2950442188862711
1761506822995426300,0.72542626953125,0.1202759001970291,-0.02522657651938498,0.33930198788363486
1761506823005397000,0.73539697265625,0.1785515635550022,-0.04192125234119594,0.3698822369232774
1761506823015369200,0.745369140625,0.20032617298960684,-0.05580211285129189,0.37311332779899237
1761506823025341200,0.755341064453125,0.12820903128385544,-0.03868511996418238,0.37007048950437454
1761506823035313200,0.765313232421875,0.00436053329706192,0.003927548707276582,0.3428574518755078
1761506823045284400,0.775284423828125,-0.13278291507065296,0.03572093639634549,0.31601668162513524
1761506823055256000,0.785256103515625,-0.21911212200224398,0.02918240147307515,0.2888389710379764
1761506823065228300,0.795228271484375,-0.26838731730282306,0.04920863287039101,0.23665804435852913
1761506823075200000,0.805199951171875,-0.3200169667750597,0.06347900415472686,0.19628268801877274
1761506823085172200,0.815172119140625,-0.361199456512928,0.049926206555217505,0.114522953560343
1761506823095143200,0.82514306640625,-0.4277215546905994,0.04030534157715738,-0.07457931230189278
1761506823105115100,0.835115234375,-0.4295581224679947,0.020894757860153913,-0.26220137694319706
1761506823115087400,0.84508740234375,-0.4117915796309709,-0.004711100300401449,-0.38607477190922945
1761506823125059000,0.85505908203125,-0.3429869234740734,-0.0299388458635658,-0.42881877534277735
1761506823135031300,0.86503125,-0.1904986064583063,-0.05541501322984695,-0.4091309090543538
1761506823145002200,0.875002197265625,-0.05524433283805847,-0.06838526170104742,-0.3852152690030634
1761506823154974200,0.88497412109375,0.03758592655062675,-0.07084916759654879,-0.3660561392964795
1761506823164946200,0.8949462890625,0.10385784935951232,-0.08008534410595894,-0.36030206928178665
1761506823174918100,0.904918212890625,0.1156137536048889,-0.08372647708728909,-0.32745193908140063
1761506823184889000,0.91488916015625,0.10176701456010341,-0.03709156716242432,-0.2682026449183002
1761506823194861000,0.924861083984375,0.09418518112897872,0.0028577275186777115,-0.1732021288184449
1761506823204833300,0.934833251953125,0.12368074020445347,0.038933687897771595,-0.06590204831687733
1761506823214805200,0.94480517578125,0.15461597669422625,0.07618599857985973,0.020727748996485024
1761506823224777200,0.954777099609375,0.2047556798696518,0.0721015057452023,0.07549955068565904
1761506823234748200,0.964748046875,0.29504034642875193,0.060312283752113574,0.06879753229636698
1761506823244720000,0.97472021484375,0.36280513814389703,0.04113558185622096,0.0539683032865636
1761506823254692000,0.984692138671875,0.3628822950333357,0.044585283918678754,0.03625901619526557
1761506823264664000,0.9946640625,0.3106646165400743,0.06862725376337767,0.0038244536589831114
1761506823274636300,1.00463623046875,0.24407822095453738,0.06997852224186063,-0.07192044095671735
1761506823284607200,1.014607177734375,0.18600363312661647,0.056699353951960796,-0.13123260775557719
1761506823294579200,1.0245791015625,0.13504559930562973,0.04890621585771441,-0.16828458269312976
1761506823304551200,1.03455126953125,0.10357026458978652,0.04961933256313204,-0.14719180890969
1761506823314523100,1.044523193359375,0.05591653301119804,0.06809139332100748,-0.12098758299718611
1761506823324494000,1.054494140625,0.021473580661416053,0.046661359540373086,-0.1108014305528719
1761506823334466300,1.06446630859375,-0.0048860184758901595,0.03828713362254202,-0.11511103738029486
1761506823344438000,1.07443798828125,-0.03650982175171375,0.029924963468685745,-0.14787695076279342
1761506823354410200,1.08441015625,-0.06436170527338982,0.014430530282109975,-0.18053983302908017
1761506823364382200,1.09438232421875,-0.07417232066988945,0.014554521987959741,-0.18545785407843068
1761506823374353200,1.104353271484375,-0.06542787320017815,0.0346766149751842,-0.16537439433485268
1761506823384325400,1.114325439453125,-0.050581017202138895,0.04544138929136097,-0.10286826293342746
1761506823394297000,1.124297119140625,-0.07864625121355057,0.0720522597759962,-0.04996948857451789
1761506823404269300,1.134269287109375,-0.09389701183736324,0.08560403446219861,-0.01508819960639812
1761506823414240000,1.144239990234375,-0.08166939842700958,0.08615385036468505,0.00650461438735947
1761506823424212200,1.154212158203125,-0.07103110003471375,0.08441022156774997,0.04649499913067557
1761506823434184200,1.16418408203125,-0.030887305694818495,0.0809033094253391,0.08064953559366986
1761506823444156200,1.17415625,0.0004886602997779846,0.07503770532757044,0.13105501356581226
1761506823454128400,1.18412841796875,0.05546995828747749,0.07147277938760817,0.17841431050878018
1761506823464099000,1.19409912109375,0.08761047891378403,0.05525375825352966,0.23948519407585261
1761506823474071300,1.2040712890625,0.12402034742236137,0.03975998265407979,0.281920569951646
1761506823484043000,1.21404296875,0.14653788417875765,0.018209829625114797,0.31482674118820575
1761506823494015200,1.22401513671875,0.13375789758265016,0.018670725135132668,0.29926592823453246
1761506823503986200,1.233986083984375,0.06713993781507015,0.019506664502620695,0.24544048575107008
1761506823513958100,1.243958251953125,-0.01580430285334587,0.009246040316298604,0.14714920274382456
1761506823523930000,1.25393017578125,-0.10336918905973434,0.00872208950743079,0.06356689250073395
1761506823533902000,1.263902099609375,-0.16325111857056618,-0.011546499278396367,-0.01798183868867345
1761506823543874300,1.273874267578125,-0.19893617993593216,-0.027224253142625093,-0.06715769266746938
1761506823553845200,1.28384521484375,-0.23002397663891314,-0.03279306625090539,-0.09019396520149893
1761506823563817200,1.293817138671875,-0.19680559764802455,-0.04567943583093583,-0.10711033921628259
1761506823573789200,1.3037890625,-0.16198095250427721,-0.07212254853323101,-0.11959823839748278
1761506823583761200,1.31376123046875,-0.11547113026380539,-0.07434380477927625,-0.1296447905748617
1761506823593733000,1.323733154296875,-0.06346504869461059,-0.09355798914134501,-0.13813365584830753
1761506823603704300,1.333704345703125,-0.021127543702721595,-0.10091003240458667,-0.1575999426747672
1761506823613676000,1.343676025390625,0.015647650986909865,-0.09398147525042296,-0.16891382050737738
1761506823623648300,1.353648193359375,0.03695347386598587,-0.0981754928741604,-0.1636851078073494
1761506823633620200,1.3636201171875,0.08081599646806717,-0.08211283134557307,-0.14360095394402742
1761506823643591200,1.373591064453125,0.09832418062984943,-0.05022913502454757,-0.11742796342000364
1761506823653563100,1.383563232421875,0.07757131545841693,-0.009838891642913222,-0.08504683897085487
1761506823663535000,1.39353515625,0.02704115166068077,0.028284648915752768,-0.06045804889835417
1761506823673507300,1.40350732421875,0.004952069449424743,0.014916852494329213,-0.037042786984099074
1761506823683479000,1.41347900390625,0.01880582275688648,-0.0017158640071749686,-0.007172722907271236
1761506823693449700,1.42344970703125,0.0315057298541069,0.020636618380621075,0.03669039334985427
1761506823703422000,1.433421875,0.02811784098148346,0.04494768749028444,0.10358929808381945
1761506823713393700,1.4433935546875,0.056170800033211704,0.05362754529118537,0.13096025708760134
1761506823723366000,1.453365966796875,0.08001870861053466,0.06285254281945526,0.13027741678943858
1761506823733337900,1.463337890625,0.08243921375572681,0.07053995551690459,0.11540022045206277
1761506823743308800,1.473308837890625,0.09870236629247665,0.0804915137540549,0.10252441793181932
1761506823753280800,1.48328076171875,0.12066928342878817,0.0904389803379774,0.08743782576061784
1761506823763252700,1.493252685546875,0.11914368129670619,0.10333747874721884,0.07629725866829976
1761506823773224700,1.503224609375,0.08996376404166222,0.09938896031714975,0.06817245006742886
1761506823783195600,1.513195556640625,0.04460077374875545,0.09610168227478862,0.05529493051413446
1761506823793168000,1.52316796875,0.04173953909873962,0.10160057195201516,0.0656574624386616
1761506823803139800,1.533139892578125,0.05130523982346057,0.07708243596293032,0.07638510134853423
1761506823813111800,1.54311181640625,0.05445405924320221,0.07221994449310004,0.07903170686718076
1761506823823083800,1.553083740234375,0.04325754244625568,0.0741140146113932,0.0721475277108606
1761506823833054700,1.5630546875,0.021779870131611822,0.0763221921801567,0.06344122942760587
1761506823843027000,1.57302685546875,-0.04892331312298774,0.09661503862440586,0.05563684842013754
1761506823852998700,1.58299853515625,-0.10454466257989406,0.09776946935653685,0.035277804871881376
1761506823862971000,1.592970947265625,-0.11848901678025722,0.10357450237348675,0.00796537112230435
1761506823872941800,1.60294189453125,-0.12728314861059187,0.08644698809236287,-0.011074050327902658
1761506823882913800,1.612913818359375,-0.13216916708648205,0.059597486546263095,-0.026755831913277506
1761506823892886000,1.622885986328125,-0.1500216346412897,0.05153802566602826,-0.04782873195246793
1761506823902857700,1.632857666015625,-0.14552724583148954,0.04627740172408521,-0.050822296878416086
1761506823912830000,1.642829833984375,-0.10005845707654952,0.015329524948447942,-0.05980076316655613
1761506823922801000,1.65280078125,-0.049375148543715476,-0.00827719528414309,-0.06232973365490324
1761506823932772900,1.66277294921875,-0.02217033075392246,-0.031312910695746536,-0.07579266101387329
1761506823942744800,1.672744873046875,-0.015436638584733008,-0.04086677485220134,-0.09198672123663126
1761506823952716800,1.682716796875,-0.03413374027013778,-0.03622413667812943,-0.12525154231828636
1761506823962687700,1.692687744140625,-0.03378244261443615,-0.026319559387862682,-0.13704909374830312
1761506823972659700,1.70265966796875,-0.036415129205584526,-0.021299758464470506,-0.13795905733322725
1761506823982632000,1.7126318359375,-0.023334698358178137,-0.014500380647927523,-0.13148109349077566
1761506823992604000,1.72260400390625,-0.012806290081143378,-0.01340652099661529,-0.11677398389014415
1761506824002576000,1.732575927734375,0.0019429507613182068,-0.013135522035509347,-0.10465476275770924
1761506824012546800,1.742546875,0.049505496925115584,-0.030974545586854217,-0.08430476103243417
1761506824022518800,1.752518798828125,0.130837626221776,-0.0680793375570327,-0.060509477691492064
1761506824032490800,1.76249072265625,0.20670272228419778,-0.07633278663940728,-0.08814046673779376
1761506824042462700,1.772462646484375,0.23778876542150973,-0.07517280294932424,-0.10730363329867831
1761506824052435000,1.78243505859375,0.23658114319741724,-0.06506291234530508,-0.12463198564783669
1761506824062406000,1.792406005859375,0.21161562876701354,-0.033382045120000835,-0.15068165118629112
1761506824072377900,1.8023779296875,0.15297405470609665,-0.002559256028756499,-0.17246643495503813
1761506824082349800,1.812349853515625,0.08637187702953815,0.02983662759810686,-0.16036303244624286
1761506824092321800,1.82232177734375,0.03226327022314072,0.0549096940562129,-0.1383865072313696
1761506824102292700,1.832292724609375,-0.02078442935347557,0.08133797451555728,-0.09203776643727905
1761506824112265000,1.842264892578125,-0.055226212659478184,0.09018697833828627,-0.045144625701336184
1761506824122236700,1.852236572265625,-0.05701835677325725,0.09577661503888667,-0.00278946632174775
1761506824132209000,1.862208984375,-0.03875497032999992,0.08809519369080662,0.04118426156984642
1761506824142180900,1.872180908203125,-0.021788053438067435,0.08454787647277116,0.054101428146939724
1761506824152151800,1.88215185546875,0.0060977323532104485,0.08966448883414269,0.05554169921628199
1761506824162124000,1.8921240234375,0.04530278453826904,0.06880144128650427,0.06113649614918976
1761506824172095700,1.902095703125,0.03588204524219036,0.08125190366730094,0.06992505675526335
1761506824182068000,1.91206787109375,-0.00708323625922203,0.12182765968367457,0.07976067872885614
1761506824192038700,1.92203857421875,-0.036108839735388754,0.11727204220592975,0.08566938218283467
1761506824202011000,1.932010986328125,-0.054417234364151953,0.1220581074386835,0.07294729065326973
1761506824211982800,1.94198291015625,-0.054900633966922754,0.10339541947953403,0.052404953826824203
1761506824221954800,1.951954833984375,-0.025464111602306366,0.08551102241650223,0.0672568878587801
1761506824231927000,1.961927001953125,0.003975333371758461,0.06933817851170897,0.0800007345624268
1761506824241897700,1.971897705078125,0.020904256340861318,0.04943645027689635,0.09414436506140045
1761506824251870000,1.981869873046875,0.043486090505123136,0.016812456982582807,0.10228758610179647
1761506824261841700,1.991841552734375,0.07905190940499306,-0.03186769503429532,0.0758872439621482
1761506824271814000,2.00181396484375,0.10367898566126822,-0.08117547743022441,0.05424674576860852
1761506824281784800,2.011784912109375,0.08149228829443454,-0.08821808941811322,0.010300800933083519
1761506824291756800,2.0217568359375,0.054935120758414266,-0.09254866596832871,-0.0015959274219349026
1761506824301728800,2.031728759765625,0.015557634615898132,-0.0838277455046773,-0.005344484566804021
1761506824311700700,2.04170068359375,-0.026275427985191342,-0.07683854420445858,-0.012615388885233551
1761506824321673000,2.0516728515625,-0.03174772191643715,-0.08610029354654251,-0.020879331962158902
1761506824331644000,2.061643798828125,-0.016768179449439046,-0.0890590702868998,-0.03830629498073831
1761506824341615900,2.071615966796875,-0.027545009529590606,-0.09978153983131051,-0.049965616116998714
1761506824351587800,2.081587890625,-0.022111878564953804,-0.0918478972878307,-0.060024452387215564
1761506824361559800,2.091559814453125,-0.027462591943144796,-0.06437624525539577,-0.07585150592848658
1761506824371530800,2.10153076171875,-0.017142273458838463,-0.04150865295231342,-0.07707589662428944
1761506824381503000,2.1115029296875,0.009548165068030356,-0.021863164500892162,-0.05590780171547085
1761506824391474700,2.121474609375,0.022580080598592758,-0.019393924843147396,-0.037154878189601004
1761506824401447000,2.131447021484375,-0.006110007312893867,0.008555793029814959,-0.02269739596848376
1761506824411419000,2.1414189453125,-0.07234276715517043,0.039145796278491615,-0.011883649677736684
1761506824421389800,2.151389892578125,-0.12807692933678627,0.05515117466188967,-0.0027027470195200294
1761506824431361800,2.16136181640625,-0.17085984000861643,0.087812869618088,0.01283212777529843
1761506824441333800,2.171333740234375,-0.20659750834405421,0.12218253753595053,0.03793151598474942
1761506824451306000,2.181305908203125,-0.18240999254882334,0.1329398591980338,0.07495136961783282
1761506824461276700,2.191276611328125,-0.11034078163802623,0.13967435508482157,0.08131419178117066
1761506824471249000,2.201248779296875,-0.043424715706706044,0.13734656972438097,0.07111680555678904
1761506824481220600,2.211220703125,0.05572831696271896,0.11425788201652466,0.06189610974430106
1761506824491192800,2.22119287109375,0.15132336488962173,0.09289952523261308,0.05889275407670065
1761506824501164800,2.231164794921875,0.18955168099701403,0.07111271390356123,0.05879083720534108
1761506824511135700,2.2411357421875,0.14402853170633315,0.07630772526338696,0.03683412180263549
1761506824521108000,2.25110791015625,0.07046294475793838,0.10212043110765516,0.014328869139077141
1761506824531079700,2.26107958984375,0.04924070850908756,0.10824928925149142,0.01817246588994749
1761506824541052000,2.271052001953125,0.05280921464562416,0.0866563930593431,0.0017129322645720094
1761506824551023600,2.281023681640625,0.024380992540717124,0.0661836600035429,-0.016654142882023007
1761506824560994800,2.290994873046875,0.049474517264962194,0.03362403718233108,-0.03739661452360451
1761506824570966800,2.300966796875,0.09108546154797077,0.0004419716138392687,-0.039371120333811266
1761506824580938800,2.310938720703125,0.11863631629645824,-0.0400172453507781,-0.043662652648426586
1761506824590911000,2.320910888671875,0.11908756719529628,-0.06242489199191331,-0.06271939969277009
1761506824600882000,2.3308818359375,0.10884908177554607,-0.06612403877079487,-0.07791293197032063
1761506824610854000,2.34085400390625,0.031499884635210036,-0.05458396923318505,-0.09887111045550555
1761506824620825900,2.350825927734375,-0.05974456686675548,-0.03494067273885011,-0.12078724725265055
1761506824630797800,2.3607978515625,-0.1168605387955904,-0.040340997412428255,-0.1370834983414039
1761506824640769800,2.370769775390625,-0.1484966170310974,-0.0445207673151046,-0.14490737863378597
1761506824650740700,2.38074072265625,-0.17927987782955168,-0.045533086162805554,-0.15201795955765993
1761506824660712700,2.390712646484375,-0.16360943048894405,-0.05083579568080604,-0.12741546975336968
1761506824670685000,2.400684814453125,-0.1425795019418001,-0.04169051232524216,-0.09384999435786158
1761506824680657000,2.410656982421875,-0.07451601954102516,-0.03850333365648985,-0.058950493879616254
1761506824690627800,2.4206279296875,-0.030572832918167113,-0.0435500225868076,-0.022382658330351114
1761506824700599800,2.430599853515625,-0.009976619613170623,-0.03844597744606435,-0.021043226420134304
1761506824710571800,2.44057177734375,0.030425533401966093,-0.033521453590691086,-0.025749540947563945
1761506824720543700,2.450543701171875,0.06474632067680358,-0.0261873843755573,-0.03917794498242438
1761506824730515700,2.460515625,0.10683540386557579,-0.016996800573542713,-0.03573048967598006
1761506824740487000,2.47048681640625,0.11570318545401095,0.006151581432297826,-0.0225464431904722
1761506824750458600,2.480458740234375,0.08257248474657534,0.05281725182160735,-0.02496778858588077
1761506824760430800,2.490430908203125,0.08280044828355312,0.06861300604231656,0.011198361694160849
1761506824770402800,2.50040283203125,0.08731646440327168,0.049547436370700595,0.021263317177910357
1761506824780373800,2.510373779296875,0.10843056410253048,0.028107027326524255,0.01742670729025267
1761506824790346000,2.520345947265625,0.060066053906083106,0.04954648652262986,0.009881251213606446
1761506824800317700,2.530317626953125,0.02299509114027023,0.06453450455702842,0.015842479439266026
1761506824810290000,2.5402900390625,0.01900456019937992,0.0716761199399829,0.006377005952317267
1761506824820261600,2.55026171875,0.023911621463298796,0.07649243418052792,0.005856343079078942
1761506824830232800,2.56023291015625,0.0005740004956722259,0.08259506190456449,-0.006942969272006302
1761506824840204800,2.570204833984375,-0.0014934534281492232,0.07050656470395625,0.003206924548838287
1761506824850176800,2.5801767578125,-0.0108534024477005,0.04554389981776476,-0.0014113463689573108
1761506824860149000,2.59014892578125,-0.039432431200146674,0.04714388236030936,-0.0002779036259278655
1761506824870120000,2.600119873046875,-0.06391980672478675,0.03261281431317329,0.0016633118360303342
1761506824880092000,2.610091796875,-0.05421498979032039,-0.0027251141149550674,0.0013932261903770267
1761506824890064000,2.62006396484375,-0.03255202403664589,-0.01625767264403403,-0.0011759484441950917
1761506824900035800,2.630035888671875,-0.015052023181319235,-0.02980119095854461,0.003294968158472329
1761506824910007800,2.6400078125,0.013121931901574135,-0.04473660202287137,-0.010014522204454987
1761506824919978800,2.649978759765625,0.01514730024933815,-0.06622969110235571,-0.01588445541746914
1761506824929950700,2.65995068359375,-0.005703764599561691,-0.0611569909479469,-0.03002186623821035
1761506824939922700,2.669922607421875,-0.010090601381659507,-0.06130714000836014,-0.01832401232300326
1761506824949895000,2.67989501953125,0.007907412123680114,-0.059016252592206,-0.0072317961507476864
1761506824959865900,2.689865966796875,0.02886369091272354,-0.06100589203946292,0.007834693947341292
1761506824969837800,2.699837890625,0.03947977747321128,-0.06456738391332328,0.0027935945075936615
1761506824979809800,2.709809814453125,0.03243687322437763,-0.05394077595882117,-0.011674801833182572
1761506824989781800,2.71978173828125,0.022788754913210866,-0.038321766544505954,-0.02471689169788733
1761506824999753700,2.729753662109375,0.04063303916156292,-0.02846497391872108,-0.0392263689677231
1761506825009725000,2.739724853515625,0.06271686067581177,-0.039390199493616815,-0.04523068741643801
1761506825019696600,2.749696533203125,0.07558452555537223,-0.04604315457679331,-0.05693151874002069
1761506825029668900,2.7596689453125,0.09862462488114833,-0.05224390891306102,-0.04893828236325644
1761506825039640800,2.769640869140625,0.10420447084009647,-0.026367051791399716,-0.01943864076770842
1761506825049612800,2.77961279296875,0.05516133072972297,-0.0016487901203334331,0.0037801487263757734
1761506825059584000,2.789583984375,-0.02357727494239807,0.040130642597377295,0.008320860895933584
1761506825069555700,2.7995556640625,-0.09534370351433753,0.0718666010107845,-0.004761570112314075
1761506825079528000,2.80952783203125,-0.17074702728390692,0.09285517463423311,-0.015487537654908373
1761506825089499600,2.819499755859375,-0.18296704190969465,0.10944529410302638,-0.027670243344455957
1761506825099470800,2.829470947265625,-0.13918459880650041,0.09177373607307672,-0.02276954788924195
1761506825109442800,2.83944287109375,-0.05438800826966762,0.05756166986972093,0.011477872755285352
1761506825119414800,2.849414794921875,0.056903790482878684,0.02998582681044936,0.059432806636998424
1761506825129387000,2.859386962890625,0.10921148534715175,0.020251564585790038,0.0818728120446205
1761506825139358700,2.869358642578125,0.14466098439097402,0.029918533727899193,0.06320348428213036
1761506825149330000,2.879329833984375,0.1146598138809204,0.049523544038459655,0.03334877303806134
1761506825159301600,2.889301513671875,0.034814708271622655,0.06464731728173792,-0.006039271031087264
1761506825169273900,2.89927392578125,-0.013462708163261413,0.07251965809203684,-0.019776667949883267
1761506825179245800,2.909245849609375,-0.0514957939594984,0.06360226520821452,-0.006113340914295986
1761506825189216800,2.919216796875,-0.02446691725850105,0.029432211515679953,0.0004370214440859854
1761506825199188700,2.929188720703125,0.008246434819698334,0.006618614422157406,0.017877026607329025
1761506825209160700,2.93916064453125,0.03757423611283302,-0.006826265823468566,0.01842540860455483
1761506825219133000,2.9491328125,0.04187865530848503,-0.018163214004412294,0.013517059565847738
1761506825229104600,2.959104736328125,0.026588731718063353,-0.013085472348704934,-0.008108003596542403
1761506825239075800,2.969075927734375,0.006995557975769042,-0.014188172893598675,-0.012344609119836241
1761506825249047800,2.9790478515625,0.030301614761352538,-0.020204291377961633,-0.013672697652131319
1761506825259019800,2.989019775390625,0.05419628508985042,-0.025168416591361164,-0.024873497898550704
1761506825268991700,2.99899169921875,0.052937809461355206,-0.03932217575870454,-0.020103296955209224
1761506825278963000,3.008962890625,0.05028115747272968,-0.054123000657930964,-0.0235300474003423
1761506825288934700,3.0189345703125,-0.002887538135051727,-0.03421506187804043,-0.05231403327351436
1761506825298907000,3.028906982421875,-0.07165420036911964,-0.004617430667579174,-0.05031173527408391
1761506825308878800,3.03887890625,-0.08113456089794635,-0.0019557371776551006,-0.026813297721557317
1761506825318850800,3.048850830078125,-0.08382803776562213,-0.004082300877571106,-0.007420185729162767
1761506825328822000,3.058822021484375,-0.1032879405170679,0.0004636719889938831,0.01841917979316786
1761506825338793700,3.068793701171875,-0.08545534670650959,0.0020987989101558923,0.03743067205683328
1761506825348766000,3.078765869140625,-0.04643091178536415,0.0028183453563600776,0.02922679773722775
1761506825358737700,3.088737548828125,0.0001052139401435852,0.014080109409242867,0.016041874468885362
1761506825368708900,3.098708984375,0.05152677361965179,0.01295475864112377,0.011089001301862298
1761506825378680800,3.108680908203125,0.07353694537580013,0.023947204233333467,0.017296979963360354
1761506825388652800,3.11865283203125,0.040026305440068244,0.03558013968616724,0.018127905229013412
1761506825398625000,3.128625,0.008639818051457405,0.0403325218450278,0.029657718234090132
1761506825408596700,3.1385966796875,-0.004115618625283241,0.0379008377186954,0.03000783771285787
1761506825418568000,3.14856787109375,-0.007755436432361602,0.027394202882051466,0.03343232313566841
1761506825428539600,3.15853955078125,0.04247077598273754,0.0020553250946104525,0.04942017499553039
1761506825438511900,3.168511962890625,0.09099018447995186,-0.013589330217614768,0.06388795941495336
1761506825448483600,3.178483642578125,0.09624445174634456,-0.011512158617377281,0.06381677560857497
1761506825458455800,3.188455810546875,0.0840472334742546,0.011685688553377985,0.04667278511668555
1761506825468426800,3.1984267578125,0.04174713788330555,0.03235240981131792,0.03582951133735478
1761506825478398700,3.208398681640625,0.013476736688613891,0.03145334207974374,0.028984632144961504
1761506825488371000,3.218370849609375,0.006944120049476623,0.026087650328129527,0.01964251104304567
1761506825498342700,3.2283427734375,0.028099720802903173,0.02678089328929782,0.03310608685598709
1761506825508313900,3.23831396484375,0.03779343182146549,0.01777056142501533,0.041712532360805195
1761506825518285800,3.248285888671875,0.0031710312515497207,0.03821859843097627,0.028939678758382794
1761506825528257800,3.2582578125,-0.01529459976553917,0.0450554587136954,0.02013535432759672
1761506825538229800,3.268229736328125,-0.032982232147455215,0.06218392284289002,0.01093671508328989
1761506825548201700,3.27820166015625,-0.018016718205809593,0.07734956246651709,0.010127407994400709
1761506825558172700,3.288172607421875,-0.0006008885025978088,0.08150149451419711,0.018075380457332358
1761506825568145000,3.298144775390625,0.02462123103737831,0.08334317685812712,0.0249013266203925
1761506825578116900,3.308116943359375,0.028563831183314323,0.08326667755581438,0.023890112884389234
1761506825588088800,3.3180888671875,0.015697335347533224,0.10266812811829149,0.02959291850272566
1761506825598059800,3.328059814453125,0.026550737795233724,0.10988098210655152,0.014662512407079338
1761506825608031700,3.33803173828125,0.030547113955020903,0.11921579668484628,0.01588446455062367
1761506825618004000,3.34800390625,0.015855156257748602,0.11736103566363454,0.00877125327824615
1761506825627975700,3.3579755859375,0.024468086302280423,0.11754413714557885,-0.01761581838787533
1761506825637948000,3.367947998046875,0.06002221476435661,0.11457922292537986,-0.030823063085880127
1761506825647918600,3.377918701171875,0.08779811044037342,0.07038849128223955,-0.03649996707797982
1761506825657890800,3.387890869140625,0.12368132472634315,0.018509616289287805,-0.039138708950579165
1761506825667862800,3.39786279296875,0.1343541099101305,-0.015617986501008272,-0.030063148096669462
1761506825677834800,3.407834716796875,0.09843699335455894,-0.0132459236074239,-0.03861913292272948
1761506825687806000,3.417805908203125,0.051530280750989914,-0.004963613756746053,-0.05706341062453575
1761506825697777200,3.427777099609375,-0.012189034965634345,0.0003822773158550262,-0.08611912611117586
1761506825707749000,3.4377490234375,-0.04282324268221855,-0.01191416354700923,-0.1097161104010418
1761506825717721000,3.44772119140625,-0.08070026113390923,-0.013117621052637696,-0.11850143787041306
1761506825727693000,3.457693115234375,-0.12455693851709365,-0.008790186307579278,-0.12679271647883578
1761506825737664000,3.4676640625,-0.1376426300615072,-0.0025042379058897494,-0.12439495288841426
1761506825747636000,3.477635986328125,-0.11203531059622764,-0.02101005480289459,-0.11036476530181244
1761506825757608200,3.487608154296875,-0.0805266581326723,-0.035488369749486444,-0.08399069011458195
1761506825767580200,3.497580078125,-0.05456394935846329,-0.032860213202983136,-0.06936533138011582
1761506825777551000,3.507551025390625,-0.023713468542695043,-0.04002762061432004,-0.073181665664725
1761506825787523000,3.517523193359375,0.007698737809062004,-0.04487674114592373,-0.08522128222230821
1761506825797495000,3.5274951171875,0.016210545566678045,-0.021287994961440564,-0.09875027882112189
1761506825807467000,3.537467041015625,0.0407078579634428,-0.033875381594896316,-0.07336153400996699
1761506825817439000,3.54743896484375,0.026376550272107124,-0.018366773752495645,-0.06652502992027438
1761506825827410000,3.557409912109375,-0.05897767414748668,0.03320208544321358,-0.08730442690560594
1761506825837382100,3.567382080078125,-0.1114618946224451,0.06285678060315548,-0.08044217645330354
1761506825847354000,3.57735400390625,-0.09277823694050312,0.066885159336403,-0.058808016669005155
1761506825857326000,3.587326171875,-0.0019330138891935347,0.046451662312448024,-0.04364486126340925
1761506825867298000,3.597298095703125,0.10611761098504066,0.004137245935201645,-0.005803087655035778
1761506825877269000,3.60726904296875,0.18619652535021303,-0.017428543054312465,0.021177438125899062
1761506825887241200,3.6172412109375,0.18466800060868263,-0.011572802763432264,0.01718890734585002
1761506825897213000,3.627212890625,0.13817337593734264,0.010478066329285501,-0.0143991396300029
1761506825907185200,3.63718505859375,0.04919277771413326,0.04007153282128274,-0.031497299952479074
1761506825917156000,3.647156005859375,-0.03318389219939708,0.06250007611997425,-0.04661446079188026
1761506825927128000,3.657128173828125,-0.09786942259967327,0.07162066342569887,-0.04102992952466011
1761506825937100300,3.667100341796875,-0.09970949750840663,0.06070259824395179,-0.013597659654542803
1761506825947072000,3.677072021484375,-0.08439268591105938,0.06329984819553792,0.007407709840079769
1761506825957044200,3.687044189453125,-0.040647652208805084,0.05506444622650742,0.031111533771594986
1761506825967015000,3.697014892578125,0.02428746903836727,0.03999722547605634,0.05032481395136565
1761506825976987100,3.706987060546875,0.07446691970229148,0.034279651546850795,0.043233376119378955
1761506825986959000,3.716958984375,0.07386836928725242,0.038573184022307395,0.040143228084314614
1761506825996931000,3.72693115234375,0.06976794823110104,0.051634617908298965,0.03547201226972975
1761506826006902000,3.736902099609375,0.07567337288260459,0.04077010954469442,0.03556965482477099
1761506826016874000,3.7468740234375,0.028235329881310462,0.030611338297650215,0.05318266933420673
1761506826026846200,3.75684619140625,-0.008419453299045563,0.03384805519655347,0.048520056951185685
1761506826036818000,3.76681787109375,-0.005787351229786872,0.040026597701013085,0.053202789673628285
1761506826046790100,3.7767900390625,-0.017199556604027746,0.04138049652799964,0.03987623857804574
1761506826056761000,3.786760986328125,-0.014244798451662063,0.03172521782368421,0.029376800667168572
1761506826066733000,3.796733154296875,0.013742694148421287,0.01808298837505281,0.019298483378347008
1761506826076705000,3.806705078125,0.01597322967946529,0.010695362341776489,0.0018621771426871418
1761506826086677000,3.816677001953125,0.031736616000533104,0.00351809112355113,0.004802249182574451
1761506826096648200,3.826648193359375,0.02305003619790077,-0.004620718603208661,-0.011210344392899424
1761506826106620200,3.8366201171875,0.021166706669330595,-0.02412774843201041,-0.03683298929147422
1761506826116592000,3.846592041015625,0.030003508597612378,-0.040028424331918354,-0.053278403059951955
1761506826126564000,3.856564208984375,0.00670680416226387,-0.03971351316384971,-0.04547401291932911
1761506826136536000,3.8665361328125,0.00350830038189888,-0.037919761614874,-0.02932761863004416
1761506826146507000,3.876507080078125,-0.010154314267635346,-0.015373437155410646,-0.03235856555746868
1761506826156479200,3.886479248046875,-0.037760698595643044,-0.017445274993404744,-0.018716683168709277
1761506826166451200,3.896451171875,-0.05689210004508495,-0.01682166320234537,-0.029229327621031552
1761506826176423200,3.906423095703125,-0.058812838974595064,-0.013411124106496572,-0.036219076910521834
1761506826186394000,3.91639404296875,-0.04590250399708748,-0.008901537727564572,-0.03999755426961928
1761506826196366000,3.926365966796875,0.02721884631514549,-0.011471095954626798,-0.026611199278198182
1761506826206338000,3.936338134765625,0.11414660366177558,-0.014669088278338313,0.020257482869923113
1761506826216310000,3.94631005859375,0.1947165164142847,-0.05081606806702912,0.059473531373031435
1761506826226282200,3.9562822265625,0.19894027158915994,-0.049978813525289295,0.06338517012512311
1761506826236253000,3.9662529296875,0.10613047046661377,-0.019241145434230566,0.036851200801599766
1761506826246225200,3.97622509765625,-0.004659223982691764,0.022196122782304883,0.005774071623105555
1761506826256197000,3.986197021484375,-0.11220599098801612,0.05783054993897676,-0.009575144406501203
1761506826266169000,3.996169189453125,-0.17774433882534502,0.07450564427748323,-0.011709425621991976
1761506826276140300,4.006140380859375,-0.17007891876399517,0.08335640166588128,0.021747255636798215
1761506826286112000,4.016112060546875,-0.14250935931503772,0.08047543940208852,0.06686995263411663
1761506826296084200,4.026084228515625,-0.07597089452445506,0.07880472971089184,0.07289041850003414
1761506826306056000,4.036055908203125,-0.006806757405400276,0.05809380398504436,0.07787809811895713
1761506826316028200,4.046028076171875,0.07354220607280731,0.04070077063553035,0.05835070135556161
1761506826325999000,4.0559990234375,0.10881225689649582,0.012044000471755861,0.023885482375044374
1761506826335971000,4.06597119140625,0.09248656051754951,0.00011032850667834281,-0.01627592068677768
1761506826345943300,4.075943359375,-0.001419219148159027,0.006113660574704408,-0.04950288484292104
1761506826355915000,4.0859150390625,-0.11827800437808036,0.018779300076141953,-0.11955880143623798
1761506826365886200,4.09588623046875,-0.1570452496677637,0.024039412561431526,-0.13775691322409547
1761506826375858200,4.105858154296875,-0.13454758665561675,-0.007286576811596751,-0.11203194959536195
1761506826385830100,4.115830078125,-0.08545651575028895,-0.05172638784497976,-0.12873267156546936
1761506826395802000,4.125802001953125,-0.02647650351524353,-0.06203172795586288,-0.17310381954312323
1761506826405774000,4.135774169921875,0.05178630133867263,-0.1067532054748386,-0.1754113475668244
1761506826415745000,4.1457451171875,0.08026420780420303,-0.07739712793529033,-0.04260030238023028
1761506826425717000,4.155717041015625,0.014148352339863775,-0.05073803439475596,0.017732558369031176
1761506826435689200,4.165689208984375,-0.01829436610341072,0.00809080586656928,0.009373657884495332
1761506826445661200,4.1756611328125,0.014429507368803024,0.04300554044656455,-0.021743296414311043
1761506826455632100,4.185632080078125,0.060036243289709086,0.052047363427653905,0.02077458381289616
1761506826465604000,4.19560400390625,0.08797931222617626,0.06676299426145851,0.04904124041423201
1761506826475576000,4.205576171875,0.08264204285144805,0.09872245923243463,0.05900511014368385
1761506826485548000,4.215548095703125,0.06891629983782768,0.11426285045258701,0.06610443902118131
1761506826495520000,4.22552001953125,0.04274783935844898,0.11394041356518864,0.04695468906429596
1761506826505491000,4.235490966796875,-0.0006219312906265258,0.11464505470320582,0.03554465738083236
1761506826515463200,4.245463134765625,-0.005604980400204658,0.09481631863936782,0.042961546041211114
1761506826525435100,4.25543505859375,0.005003507375717163,0.07190854045636952,0.04349206358818337
1761506826535407000,4.265406982421875,-0.007844283759593963,0.0703819884762168,0.043556347296317105
1761506826545378300,4.27537841796875,-0.03594692717194557,0.06762267983071506,0.032326005861582234
1761506826555350000,4.28535009765625,-0.05661737475693226,0.056141573938727374,-0.0013197408290579913
1761506826565322200,4.295322265625,-0.0776250914722681,0.040847997086495155,-0.04775472600134089
1761506826575294000,4.3052939453125,-0.05431786564290523,0.010625000519305467,-0.0707062428613659
1761506826585266200,4.31526611328125,-0.009361702585220337,0.0009747633162885904,-0.07243548693992197
1761506826595237000,4.325237060546875,0.0297106631308794,-0.009232596312835812,-0.06852066071690059
1761506826605209000,4.335208984375,0.05464052172601223,-0.028319208772480488,-0.0710252274163533
1761506826615181300,4.345181396484375,0.002983399724960327,-0.020109306570887563,-0.08612592117814347
1761506826625153000,4.355153076171875,-0.059817632102966305,-0.007397051448747515,-0.07994897697572596
1761506826635124200,4.365124267578125,-0.08426993631422519,-0.0008927841212600469,-0.08004255527700298
1761506826645096000,4.375095947265625,-0.0634556963443756,0.010898483698442577,-0.0594933777178172
1761506826655068200,4.385068115234375,0.0034381577551364896,0.009292948197945952,-0.027934556836448608
1761506826665040100,4.3950400390625,0.09956979677677154,0.006579524520784616,-0.005219259885093197
1761506826675012000,4.40501220703125,0.1514338395267725,-0.00008804360963404179,0.011338281621504574
1761506826684983000,4.414983154296875,0.15724164902269838,0.007982230925559997,0.02501754601174034
1761506826694955300,4.424955322265625,0.08084171543121338,0.047780645893886683,0.0344602140118368
1761506826704927500,4.434927490234375,0.022706921848654745,0.0835166337288916,0.04898542770692147
1761506826714899200,4.444899169921875,0.0020247838258743286,0.1107152409736067,0.05716559235737659
1761506826724870400,4.454870361328125,0.020691490373015403,0.09833784382902085,0.06460929595944472
1761506826734842400,4.46484228515625,0.04132978925406933,0.08767631069160997,0.06199890339849516
1761506826744814300,4.474814453125,0.0912105492323637,0.07165880347900092,0.05929349863100797
1761506826754786300,4.484786376953125,0.18574235184192656,0.035249665622785684,0.01737717819325626
1761506826764758300,4.49475830078125,0.22057284220457077,0.005357727640867233,-0.01572682630349882
1761506826774729200,4.504729248046875,0.1774836420625448,-0.0026944267157465217,-0.018764038574928418
1761506826784701400,4.514701416015625,0.0885129807114601,0.010553177392110228,-0.02619734864714555
1761506826794673400,4.52467333984375,0.008828034099936485,0.01085427923053503,-0.040526592245558275
1761506826804645400,4.534645263671875,-0.09337912544310092,0.019115034836530684,-0.06136348243863322
1761506826814616300,4.5446162109375,-0.15567980653345584,0.010773176818341015,-0.06636241410393268
1761506826824588300,4.55458837890625,-0.19369477215111255,0.011281564731895923,-0.07330699081113562
1761506826834560500,4.564560546875,-0.24461422752737996,0.01855908145420253,-0.08393082228666171
1761506826844532200,4.5745322265625,-0.28697102174162864,0.04067519780285656,-0.0696154793494381
1761506826854504400,4.58450439453125,-0.2658031460285187,0.04522022082135081,-0.03426902968813665
1761506826864475100,4.59447509765625,-0.21504501869380474,0.047580008755251764,0.012746358321141451
1761506826874447400,4.604447265625,-0.10708850184381008,0.03143989807628095,0.033584061364969234
1761506826884419300,4.61441943359375,0.0058341129809617994,0.0008892039246857165,0.05520337064000778
1761506826894391300,4.624391357421875,0.0965560019135475,-0.011545549430325626,0.06054514265991747
1761506826904362500,4.634362548828125,0.14840776970386504,-0.015466010809689758,0.07846834649653174
1761506826914334200,4.644334228515625,0.14549568164944648,0.0020714725118130446,0.07905290491883643
1761506826924306400,4.654306396484375,0.09438859474658966,0.023586408096924423,0.07156786465938203
1761506826934278100,4.664278076171875,0.03369768694043159,0.04508826500475406,0.07032007482168265
1761506826944250400,4.67425048828125,0.01447626911997795,0.05456621438078582,0.05029253738326952
1761506826954221300,4.68422119140625,0.04012333607375622,0.040481940253078934,0.0470735753367655
1761506826964193300,4.694193359375,0.10445347716510295,0.0018493541937321424,0.057779102879529816
1761506826974165500,4.70416552734375,0.12817863614559172,-0.038554917713254686,0.056509886661311605
1761506826984137200,4.71413720703125,0.11957739653885364,-0.04198335779197514,0.04818816724885255
1761506826994108400,4.7241083984375,0.08065466842651367,-0.023207053390517828,0.011197850237507372
1761506827004080400,4.734080322265625,0.013944938722252845,-0.006743921302258968,-0.02333141042254865
1761506827014052400,4.74405224609375,-0.06064648414254188,0.011108034795895219,-0.04795836794781498
1761506827024024300,4.7540244140625,-0.11809154189527034,0.03458740232177079,-0.07232425425094552
1761506827033996300,4.763996337890625,-0.13035130400955677,0.048383653288334605,-0.062158386542834336
1761506827043967200,4.77396728515625,-0.1178314296543598,0.04316489572674036,-0.05542713292590342
1761506827053939500,4.783939453125,-0.0595388151615858,0.037073739244788885,-0.03796416701218113
1761506827063911400,4.793911376953125,0.011576456025242805,0.022277809716388583,-0.005498962742462754
1761506827073883400,4.80388330078125,0.05853285298943519,0.02183532664589584,0.016464027137402443
1761506827083854300,4.813854248046875,0.08241524835824966,0.04627221409231424,0.034614153331378475
1761506827093826300,4.823826416015625,0.08070844444036483,0.05451126932315528,0.05058487139334902
1761506827103798300,4.83379833984375,0.06454641419053077,0.06927176221199333,0.0294677851525601
1761506827113770200,4.843770263671875,0.04703823002874851,0.05644830180034041,0.021830056815734133
1761506827123742500,4.853742431640625,0.013491934257745742,0.06354563965015113,0.0019566870257258415
1761506827133713200,4.863713134765625,-0.008899930292367934,0.06223083072453737,-0.006738158281752839
1761506827143685400,4.873685302734375,0.0003857844471931457,0.06656184566617011,-0.00048697066619060933
1761506827153657300,4.8836572265625,0.029727029743790625,0.06231821674704551,0.007966375769302248
1761506827163629300,4.89362939453125,0.05296469746828079,0.05897986610457301,0.007659419578826055
1761506827173600500,4.9036005859375,0.07248012979924678,0.052761210785433645,-0.008735643108747899
1761506827183572200,4.913572265625,0.055363575303554534,0.044747488743066784,-0.032472976584220305
1761506827193544400,4.92354443359375,0.05324351440966129,0.025474998322501777,-0.04788292809142731
1761506827203516200,4.93351611328125,0.01884206311404705,0.02321859769783914,-0.04915082000223919
1761506827213488400,4.94348828125,-0.003090367230772972,0.041673195864260194,-0.03467611265168525
1761506827223459300,4.953459228515625,-0.012762450939416884,0.0501091619066894,-0.033392767443414774
1761506827233431300,4.963431396484375,0.014864391654729843,0.04290975192189216,-0.03788829789753072
1761506827243403500,4.973403564453125,0.017813889110088348,0.010417276052758098,-0.05190748916608281
1761506827253375200,4.983375244140625,-0.010828268006443978,-0.0005297229625284671,-0.05945098161450587
1761506827263346400,4.993346435546875,-0.0420586880505085,0.006284194836020469,-0.06457831629929132
1761506827273318400,5.003318359375,-0.07259469608962535,0.03068900664374232,-0.06609924225625581
1761506827283290400,5.013290283203125,-0.08407645956873894,0.03639204059094191,-0.06405737029826268
1761506827293262300,5.023262451171875,-0.057929041877388954,0.023341201164200902,-0.06342320058057084
1761506827303234300,5.033234375,-0.00528816953599453,0.003350844797864556,-0.06573366948002948
1761506827313205200,5.043205322265625,0.03421381976902485,-0.004037584953010082,-0.05846910357084125
1761506827323177200,5.05317724609375,0.09458207149207591,-0.02090447553656995,-0.03599044665326364
1761506827333149400,5.0631494140625,0.14815584076941013,-0.02366597613915801,-0.022308981172787023
1761506827343121400,5.073121337890625,0.1250643035173416,-0.020969722792506217,-0.02386698773712851
1761506827353092400,5.08309228515625,0.08900631718635559,-0.015361819782853125,-0.017873245481355115
1761506827363064300,5.093064208984375,0.03469254319667816,-0.006341404915973544,-0.02344753848235123
1761506827373036300,5.103036376953125,-0.02845452558994293,0.010546309259906411,-0.03919214703771286
1761506827383008300,5.11300830078125,-0.06353752940893173,0.006415566130727529,-0.051684201804222535
1761506827392980200,5.122980224609375,-0.043908699831366534,0.00012888707667589187,-0.0538369867907837
1761506827402951200,5.132951171875,-0.038381460842490195,0.0016778700843453405,-0.04494211626602337
1761506827412923400,5.14292333984375,-0.017439210578799248,-0.005671981221809983,-0.027809058160101992
1761506827422895400,5.152895263671875,0.00469429529607296,-0.005193769250810146,-0.0019231957480777054
1761506827432867300,5.162867431640625,-0.014152443993091582,0.0169548611279577,0.004474944323813543
1761506827442838500,5.172838623046875,-0.021281857481598852,0.02680493175201118,0.025587390922103076
1761506827452810200,5.182810302734375,-0.024364041405916213,0.050473099848255515,0.048048311253590506
1761506827462782500,5.192782470703125,-0.003351648515462875,0.04646276822835207,0.06052175265117548
1761506827472754200,5.202754150390625,0.02500584644079208,0.050955914929136634,0.07936284765084274
1761506827482725400,5.212725341796875,0.031072014611959457,0.04988784730620682,0.0950621009608265
1761506827492697300,5.222697265625,-0.003447510105371475,0.05681852335222065,0.09423768763435073
1761506827502669300,5.23266943359375,-0.0494090508133173,0.08054989287778734,0.0749632153192535
1761506827512641500,5.2426416015625,-0.05254208814203739,0.08608575356453657,0.04590321638314053
1761506827522613200,5.25261328125,-0.021619126611948012,0.06423837115466595,0.05341340935016051
1761506827532584400,5.26258447265625,0.036517420536279675,0.031604440988227726,0.060969048894103615
1761506827542556200,5.27255615234375,0.08708674730062484,0.0159091514673084,0.05455809500641189
1761506827552528400,5.2825283203125,0.0831540840268135,0.004457856191694736,0.04415598912332207
1761506827562500400,5.292500244140625,0.023800562304258345,0.000994710125774145,-0.0021424919214099642
1761506827572471300,5.30247119140625,-0.07081891858875751,0.007279124157503247,-0.05449616308556869
1761506827582443300,5.312443359375,-0.1250602118641138,0.010516644774004817,-0.06857314895596354
1761506827592415200,5.322415283203125,-0.128049456807971,0.008851999497413634,-0.0781512525045313
1761506827602387500,5.332387451171875,-0.08877952269315718,-0.007204232290387153,-0.06384865945102647
1761506827612359200,5.342359130859375,-0.043295536369085307,-0.007550853770971298,-0.04635254931952804
1761506827622330400,5.352330322265625,-0.010739420679211615,-0.026801132359728214,-0.03690325978239998
1761506827632302300,5.36230224609375,-0.022207155632972715,-0.02578691381588578,-0.053782589722424744
1761506827642274300,5.3722744140625,-0.05931728136539459,-0.02357632509432733,-0.0696964356311597
1761506827652246300,5.382246337890625,-0.053390229403972624,-0.02926964136511087,-0.08229657214833423
1761506827662218200,5.39221826171875,-0.002280219891667366,-0.045462212883681054,-0.06161244309786707
1761506827672189200,5.402189208984375,0.051852352312207216,-0.0590155950050801,-0.03483881979957223
1761506827682161400,5.412161376953125,0.07705284454226494,-0.055599649081751704,-0.014084749051742255
1761506827692133400,5.42213330078125,0.060792614614963526,-0.04538169499337673,-0.015044954119715839
1761506827702105900,5.43210595703125,0.027580665364861486,-0.030142478676885364,-0.02027008662316948
1761506827712076500,5.44207666015625,-0.0031938276052474973,0.0016381956610828636,-0.03276130113946274
1761506827722048800,5.452048828125,-0.03641980538070202,0.026936010785773394,-0.03461425379607826
1761506827732020700,5.462020751953125,-0.07591594946682453,0.04377762079760432,-0.019431315977778283
1761506827741992700,5.47199267578125,-0.0876332752674818,0.0637364860471338,-0.0018825440772809088
1761506827751963600,5.481963623046875,-0.05014028769731521,0.05104169351644814,0.010576439536688848
1761506827761935600,5.491935546875,0.00610942279100418,0.03782828393913805,0.010843958765920252
1761506827771907800,5.501907958984375,0.06220423497855663,0.03980542923100292,0.010003891212586312
1761506827781879600,5.511879638671875,0.10480945099592208,0.050196620994433755,0.023663857247307896
1761506827791851800,5.521851806640625,0.14805881013572214,0.05866634317599237,0.016663878824748096
1761506827801822700,5.53182275390625,0.18461773172616958,0.047353141196817154,0.000277684430219233
1761506827811794700,5.541794677734375,0.19322481655180454,0.020459435182809828,-0.01258263739310205
1761506827821766700,5.5517666015625,0.14913082328140734,0.029651699485257265,-0.010391063899267465
1761506827831738600,5.561738525390625,0.10895546475946903,0.05066233881004154,-0.008459091189689934
1761506827841709600,5.57170947265625,0.056826049071550366,0.058038712796941394,-0.012231412802636623
1761506827851681800,5.581681884765625,-0.0036082536250352857,0.08070384133048356,-0.009855112125352025
1761506827861653800,5.59165380859375,-0.04531447497606277,0.08916282292231917,-0.01907430096734315
1761506827871625700,5.601625732421875,-0.027165070301294326,0.0718172819763422,-0.0064437510455958545
1761506827881597700,5.61159765625,0.032627427360415455,0.045384763733297584,0.011884572126343846
1761506827891568600,5.621568603515625,0.053934419283270835,0.014214184117689727,0.03675020637884736
1761506827901540900,5.631540771484375,0.07181845102012158,0.014576514624059199,0.05584962352113798
1761506827911512600,5.6415126953125,0.04414484667479992,-0.00394420758113265,0.042679285900574175
1761506827921484800,5.65148486328125,-0.013061726146936415,0.005840615786984562,0.025811445468943563
1761506827931455500,5.66145556640625,-0.08161094623804092,0.023671675227582453,0.012014226387999951
1761506827941427700,5.671427734375,-0.10262392365038395,0.025093305528536437,0.015956077615264803
1761506827951399700,5.681399658203125,-0.0984475147485733,0.0128118430390954,0.004665763321332633
1761506827961371600,5.69137158203125,-0.07480652692019939,0.003789893802255392,-0.005159666051808744
1761506827971344000,5.70134375,-0.03574877425134182,-0.01295819270722568,-0.017018774943333117
1761506827981314600,5.711314453125,0.022984569746255873,-0.0370508698258549,-0.010969484841730446
1761506827991286800,5.721286865234375,0.08473872286975383,-0.038882249971479176,-0.005634133429452777
1761506828001258500,5.731258544921875,0.12441256161034106,-0.03018631781861186,0.0014188903545960783
1761506828011230700,5.741230712890625,0.1131739592373371,-0.02225559788458049,-0.0022937186940573152
1761506828021201700,5.75120166015625,0.12177169171273708,-0.025508681396394967,-0.02328273070892319
1761506828031173600,5.761173583984375,0.1216091946274042,-0.04184226882085204,-0.025917024735268204
1761506828041145900,5.771145751953125,0.09950140771567821,-0.044657033980637785,-0.051065987707488235
1761506828051117600,5.78111767578125,0.05497077659368515,-0.03147409260682762,-0.0723985524630174
1761506828061089800,5.79108984375,0.01075228016078472,-0.022601488712802528,-0.06039493880057707
1761506828071060700,5.801060791015625,-0.05400631547570228,0.028789602763205763,-0.08899990571187809
1761506828081032700,5.81103271484375,-0.05958674595654011,0.036002529816702,-0.09841185891330241
1761506828091004700,5.821004638671875,-0.015056114834547041,0.026605536722391843,-0.06016586101874709
1761506828100976600,5.8309765625,0.04355155695676803,0.0008069324687123298,-0.036158798090647905
1761506828110947600,5.840947509765625,0.062410571205615994,0.008589476103708147,-0.012199830354284494
1761506828120919800,5.850919921875,0.03090542587339878,0.029280528085306286,0.010817454351484774
1761506828130891800,5.860891845703125,0.002923193970322609,0.03525565697215497,0.015379300640616565
1761506828140863700,5.87086376953125,-0.02319558214843273,0.028582682014256715,0.0007807568478398025
1761506828150835700,5.880835693359375,-0.08042728941142559,0.020307386426255104,-0.013037505021132528
1761506828160806700,5.890806640625,-0.11828852577209471,0.027546909225732087,0.014494316233322023
1761506828170778600,5.900778564453125,-0.1163812308460474,0.04341945500969886,0.058571815026644616
1761506828180750600,5.91075048828125,-0.10510755715966225,0.03384279449954629,0.08054028479922562
1761506828190722800,5.920722900390625,-0.07942308080494404,0.02515760293640196,0.09971916038589551
1761506828200693500,5.930693603515625,-0.05262567477226257,0.019259411743283272,0.10574561760118231
1761506828210665700,5.940665771484375,-0.0006195932030677795,0.018377295146510004,0.11620929007893427
1761506828220637700,5.9506376953125,0.043755555096268654,0.0045003801591694354,0.11235867906538768
1761506828230609700,5.960609619140625,0.048483752661943436,-0.014137611750140786,0.1310995285609737
1761506828240581600,5.97058154296875,0.03561608778238296,-0.015970964657142758,0.12975669911727308
1761506828250552600,5.980552490234375,-0.011119944429397583,-0.011545184104144573,0.12249085456645116
1761506828260524800,5.99052490234375,-0.05616261672675609,-0.01133906707279384,0.101291031078808
1761506828270496500,6.00049658203125,-0.07917758161127567,-0.011898454521223902,0.11273039845461025
1761506828280468700,6.01046875,-0.09222001853585243,-0.0035153877098113295,0.13753277647886425
1761506828290439700,6.020439697265625,-0.08592764039337634,-0.002781812738254666,0.12934141458095982
1761506828300411600,6.03041162109375,-0.051667058873176575,0.009262406929209828,0.11959429287472739
1761506828310383900,6.0403837890625,-0.036007132926583287,0.01206694295592606,0.0990243830547668
1761506828320355600,6.05035546875,-0.011547229930758476,0.007311930448561907,0.038042109352909026
1761506828330327800,6.060327880859375,0.017492986592650413,0.012628668491914867,-0.04248160790400579
1761506828340298800,6.070298828125,0.0057709846168756485,0.020004384891688824,-0.10946812698934226
1761506828350270700,6.080270751953125,-0.0516962849676609,0.06272160991616546,-0.1501140986977145
1761506828360242700,6.09024267578125,-0.0600227992862463,0.09414886770658194,-0.14201342902425676
1761506828370214700,6.100214599609375,-0.05364566546976566,0.09355082874819635,-0.14411898646876214
1761506828380185600,6.110185546875,-0.03083002254962921,0.0653904637992382,-0.13470767258815466
1761506828390157800,6.12015771484375,-0.01714110441505909,0.057058323457464574,-0.11962052329452708
1761506828400129800,6.1301298828125,-0.0011783961296081542,0.051208282255008813,-0.09387123807528987
1761506828410101800,6.140101806640625,0.0059475102275609966,0.06829904472231864,-0.06041808221414685
1761506828420072700,6.15007275390625,0.04468202229142189,0.07505151465721428,-0.016493691623304038
1761506828430044700,6.160044677734375,0.07001578551232815,0.08820997917689383,-0.016100271858926863
1761506828440016600,6.1700166015625,0.07496025617718696,0.09595445582382381,-0.023264811459742483
1761506828449988900,6.17998876953125,0.1146510460525751,0.07994381674341856,-0.04763352904077619
1761506828459960600,6.189960693359375,0.18211656256020067,0.04784793897643685,-0.04645663074851036
1761506828469931800,6.199931884765625,0.21552491116523742,0.017057225523889063,-0.03821783124599606
1761506828479903700,6.20990380859375,0.2162006184697151,0.015144012313708662,0.004443699802178889
1761506828489875700,6.219875732421875,0.18681202690005302,0.024699849231541154,0.02703501418083906
1761506828499847700,6.22984765625,0.1416600490093231,0.02198138405308127,0.021747209971025586
1761506828509819000,6.23981884765625,0.0698778383463621,0.03861884979493916,0.00425225061699748
1761506828519790600,6.24979052734375,-0.044949733316898347,0.046404096843674775,0.003576634644065052
1761506828529762800,6.2597626953125,-0.0971492916315794,0.03313420783877372,-0.013205591597035526
1761506828539734800,6.26973486328125,-0.10059680173695087,0.0013346826698631047,-0.037603005549591034
1761506828549706800,6.279706787109375,-0.10733750816881656,-0.017772095794975757,-0.0641705300828442
1761506828559678000,6.289677978515625,-0.1181669452190399,-0.017917422549799084,-0.07182966653387993
1761506828569649700,6.299649658203125,-0.11189911699593066,-0.018547829407826066,-0.08030105094956233
1761506828579622000,6.309621826171875,-0.10794307284653186,-0.00733450760655105,-0.08584202620284631
1761506828589593600,6.319593505859375,-0.10899462772607803,-0.013435893221572041,-0.09516896800193934
1761506828599564800,6.329564697265625,-0.11569441762566565,-0.01826243659518659,-0.11893487911792472
1761506828609536800,6.339536865234375,-0.1042681837260723,-0.023746347898989915,-0.11613101894464344
1761506828619508700,6.3495087890625,-0.07253916651010513,-0.02705715294741094,-0.08896118113668634
1761506828629481000,6.35948095703125,-0.03353577437698841,-0.01932407447732985,-0.045638227037712926
1761506828639452700,6.36945263671875,-0.02467442252933979,0.011937836683541536,-0.010050068441871554
1761506828649424000,6.379423828125,-0.03891629837155342,0.03548902733661234,0.0021591873278841373
1761506828659395600,6.3893955078125,-0.027801030117273327,0.06214147194065153,-0.03110721378950402
1761506828669367800,6.399367919921875,-0.0012158055305480956,0.04639686338528991,-0.04260021104868501
1761506828679339500,6.409339599609375,0.04239712622463703,0.02360292084030807,-0.047411520320549606
1761506828689310700,6.419310791015625,0.07037175934314728,0.036184389189630746,-0.03483107488453388
1761506828699283000,6.429282958984375,0.11057692848145961,0.051442017945647234,-0.012263013517297803
1761506828709255000,6.4392548828125,0.15202245306968687,0.059808791209384794,-0.005977028582990169
1761506828719227100,6.44922705078125,0.17869944759309292,0.056003261446580285,-0.012232015590835362
1761506828729198800,6.45919873046875,0.12484627685248852,0.06582556728087366,-0.041493181388545776
1761506828739170000,6.469170166015625,0.045861587464809415,0.10233319707550108,-0.05735155251668766
1761506828749142000,6.47914208984375,-0.004774374794960022,0.10182692805379628,-0.06816986538469791
1761506828759114000,6.489114013671875,-0.054015667825937266,0.10057342086136341,-0.07831482730209827
1761506828769086000,6.4990859375,-0.08721358855068684,0.11040259482786059,-0.050512482010573144
1761506828779057200,6.50905712890625,-0.05709726722836494,0.0999490053527057,-0.0007109978135675191
1761506828789028900,6.51902880859375,0.01623041931092739,0.09748407654389739,0.029202348282560704
1761506828799001000,6.5290009765625,0.0867313579916954,0.060084977802261706,0.032583186359889806
1761506828808973000,6.53897314453125,0.11600246066153048,0.018873408100381493,0.014003062117658555
1761506828818945000,6.548945068359375,0.10381985543668269,0.0073875529680401085,-0.020513539990223942
1761506828828916000,6.558916015625,0.06168810214996338,0.013690233308821916,-0.05173387703169137
1761506828838888000,6.568887939453125,0.003918050226569175,0.010650719482451677,-0.05760817589256912
1761506828848860000,6.57885986328125,-0.04859948799610138,0.009591565818339585,-0.044701713372580706
1761506828858832000,6.588831787109375,-0.10452303526997565,0.008953414045274256,-0.04517585195666179
1761506828868803000,6.598802978515625,-0.10703647939562796,0.010519128992035984,-0.03998606476122513
1761506828878774800,6.60877490234375,-0.0773462745308876,-0.011600786748901009,-0.03342254152717069
1761506828888747000,6.6187470703125,-0.040377018573880194,-0.023068156376481054,-0.017401399319060144
1761506828898719000,6.628718994140625,0.005756371569633483,-0.029145357398316262,-0.008991060908231884
1761506828908691000,6.63869091796875,0.024918168157339094,-0.03054864832498133,-0.017972111879102883
1761506828918662100,6.648662109375,0.02682838569283485,-0.010371610280126333,-0.01273278645351529
1761506828928633900,6.6586337890625,0.015802549287676812,0.002593012167885899,-0.006337203664891421
1761506828938606000,6.668606201171875,-0.011093056422471999,0.013251988022029398,-0.005741119201574474
1761506828948577800,6.678577880859375,-0.049554596763849254,0.01662533691264689,-0.012774780698027462
1761506828958549000,6.688549072265625,-0.06511047781407833,0.02754727455191314,-0.007131660244520753
1761506828968521000,6.69852099609375,-0.03559446047246456,0.027540406419709323,-0.005993340396974235
1761506828978493000,6.708492919921875,0.0070446578145027154,0.024697291948273775,-0.0043958420724608
1761506828988465200,6.718465087890625,0.04503799612224102,0.026326062193885443,-0.011332345071062445
1761506828998436900,6.728436767578125,0.09225275176167487,0.018323446067422627,-0.010606916873343288
1761506829008408000,6.738407958984375,0.08362053249478339,0.033168694630265234,-0.022202863050345332
1761506829018380000,6.748380126953125,0.042567222094535825,0.04846745911426842,-0.055593146275728936
1761506829028352000,6.75835205078125,-0.0033037177205085754,0.06434826126992702,-0.08645034909322857
1761506829038324000,6.768323974609375,0.013470891469717024,0.04791537818945944,-0.06670947397593409
1761506829048295000,6.778294921875,0.07182780337035656,-0.002354965628311038,-0.03633705900069326
1761506829058267000,6.788266845703125,0.14610709154605864,-0.03737323364801705,-0.01169894989375025
1761506829068238800,6.79823876953125,0.14475567693710326,-0.04144355182684958,0.002340553510468453
1761506829078211000,6.808211181640625,0.12286533216834068,-0.0052998599737882615,-0.014371749299578367
1761506829088182000,6.81818212890625,0.08529635675251483,0.027680983934178945,-0.026843638060893862
1761506829098154000,6.828154052734375,0.023627543824911116,0.04981938517987728,-0.06384166345465928
1761506829108126000,6.8381259765625,-0.018287351840734482,0.08358670329041779,-0.06898324586050585
1761506829118098000,6.848097900390625,-0.05262625929415226,0.10903912445493041,-0.08923214356517419
1761506829128070000,6.85806982421875,-0.046315176451206204,0.10918035955652594,-0.0982912464746274
1761506829138041000,6.868041015625,-0.015906009662151336,0.12106705057471989,-0.09495143452743068
1761506829148012800,6.8780126953125,0.021027590459585188,0.13397234405092895,-0.05204708943301811
1761506829157985000,6.887985107421875,0.05913491053581237,0.14050430310294032,0.014579930423852056
1761506829167957000,6.89795703125,0.08133914355933666,0.13900558897778392,0.057990014817006885
1761506829177928000,6.907927978515625,0.06365443378686904,0.1276018591709435,0.07831616074265911
1761506829187900200,6.917900146484375,0.04536299029290676,0.13872794108018277,0.07631758907027542
1761506829197871900,6.927871826171875,0.017593524357676506,0.1201388298138976,0.09539678540844469
1761506829207844000,6.937843994140625,0.05023147311210632,0.091829630978778,0.11404241263493894
1761506829217815800,6.94781591796875,0.0855377642929554,0.07609547075219451,0.15648814550796522
1761506829227787000,6.957787109375,0.10640461123287677,0.03799962191805243,0.19984123901687562
1761506829237759000,6.967759033203125,0.10924538761675358,0.007968567726388574,0.20279296496193855
1761506829247731000,6.97773095703125,0.09112228642702103,-0.017415099050849675,0.18246422522040082
1761506829257703200,6.987703125,0.07131050149798393,-0.0431193030193448,0.1837984146999195
1761506829267673900,6.997673828125,0.05049216987490654,-0.08175678444951773,0.16398546072710304
1761506829277646000,7.00764599609375,0.03342997591495514,-0.09756605573892593,0.14879538078196347
1761506829287618000,7.0176181640625,0.01343406659066677,-0.11335881428495048,0.12281579393818974
1761506829297590000,7.027590087890625,-0.025158406654000282,-0.11259221382662653,0.08464923622170463
1761506829307562000,7.03756201171875,-0.06988076095581054,-0.11428206660971045,0.02621829097047448
1761506829317533000,7.047532958984375,-0.11498363900780677,-0.13150485795885325,-0.04574517627721652
1761506829327505000,7.0575048828125,-0.15893676250278949,-0.13957973560392856,-0.11113432490220293
1761506829337476900,7.067476806640625,-0.1824520781248808,-0.1402072929177433,-0.13108069599634037
1761506829347449000,7.077448974609375,-0.21254677213728426,-0.1373812026463449,-0.15604668535077942
1761506829357420000,7.087419921875,-0.22698972350955007,-0.11424385349117219,-0.17227451084582135
1761506829367392000,7.09739208984375,-0.21554946108460424,-0.11365918547101318,-0.16074094411423429
1761506829377364000,7.107364013671875,-0.1880062051206827,-0.11191321858651936,-0.1402908064827323
1761506829387336000,7.1173359375,-0.14204934058785437,-0.09579765782691538,-0.13280943775139747
1761506829397308000,7.127307861328125,-0.10635434235036373,-0.07578845062963664,-0.1250900590131059
1761506829407279000,7.137279052734375,-0.07803133418560028,-0.04641337612867355,-0.10689999353438615
1761506829417250800,7.147250732421875,-0.005492752197384834,-0.025228768476471302,-0.08011564791267738
1761506829427223000,7.15722314453125,0.0614472791314125,-0.012342252765968441,-0.06058496321365237
1761506829437195000,7.167195068359375,0.11891805584728717,-0.005300371430441737,-0.030095351599529384
1761506829447166000,7.177166015625,0.1488023219794035,0.0037665129266679287,-0.015670940530952065
1761506829457138200,7.18713818359375,0.13247954820990562,0.0018793840058147907,0.024132278476655483
1761506829467110000,7.19710986328125,0.08102291721701621,0.049779929952323436,0.008117894802894442
1761506829477082000,7.20708203125,0.030275311276316642,0.05949234567135572,-0.0009450440314598381
1761506829487053800,7.2170537109375,-0.015024550652503967,0.07579721845798194,-0.002412924626935273
1761506829497025000,7.22702490234375,-0.03397299675047397,0.09725099844038486,0.004091890689823776
1761506829506997000,7.2369970703125,-0.010831775137782097,0.08255334165468811,0.00585329260546714
1761506829516969000,7.246968994140625,0.04698386949300766,0.055508317536488175,0.004644556136522442
1761506829526941200,7.256941162109375,0.08001403243541717,0.021620734047144652,-0.0037360812557861206
1761506829536912000,7.266911865234375,0.1105775130033493,0.0032242227435111998,-0.009459189876634628
1761506829546884000,7.276884033203125,0.12211948223710059,0.0014379238486289978,-0.01448956699296832
1761506829556855800,7.286855712890625,0.0825701466590166,-0.010640782610327006,-0.026001287218928335
1761506829566828000,7.296828125,0.029463410371541977,-0.005111497794836759,-0.037670609159395095
1761506829576799700,7.3067998046875,-0.017540917387604712,-0.014419789692386983,-0.033538861383218314
1761506829586771000,7.31677099609375,-0.015089432582259176,-0.03595912906639278,-0.032214316514879465
1761506829596743000,7.326742919921875,-0.008987608575820922,-0.054713294701278205,-0.010560940573457628
1761506829606715000,7.33671484375,0.02009293995797634,-0.05969276361428201,0.020578421919979155
1761506829616687000,7.34668701171875,0.05203121601045131,-0.06354052508361638,0.05570495435344055
1761506829626658000,7.356657958984375,0.07519757206439971,-0.05520706956759095,0.07604883686518296
1761506829636630000,7.366630126953125,0.05397358224987983,-0.041300636224821205,0.06375595793258398
1761506829646602000,7.37660205078125,0.028424130451679228,-0.041020796370133755,0.041220556725934145
1761506829656574000,7.386573974609375,0.006442600268125534,-0.03175948541946709,0.006101403881330043
1761506829666545000,7.396544921875,0.02083411371409893,-0.05178710505627095,-0.0017094342663884162
1761506829676517000,7.40651708984375,0.041862873217463493,-0.05573240861594676,0.007232307607401162
1761506829686488800,7.41648876953125,0.027788170635700223,-0.041601372737064955,0.021049765758775173
1761506829696461000,7.4264609375,-0.0052186114311218255,-0.0270609523396939,0.019160189152508972
1761506829706432000,7.436431884765625,-0.02500292383134365,0.005830313588678837,-0.007053608305938541
1761506829716403200,7.4464033203125,-0.06394611020982265,0.016339213447645305,-0.03358505687881261
1761506829726375400,7.45637548828125,-0.07825286798179149,0.02928432747758925,-0.045456002338603134
1761506829736347100,7.46634716796875,-0.07287935824990271,0.059163113716989756,-0.025943894475884733
1761506829746319400,7.4763193359375,-0.0689414342790842,0.07068966618590057,-0.010953154761437326
1761506829756290300,7.486290283203125,-0.040246670192480086,0.08521145494803786,0.004696578584704548
1761506829766262300,7.49626220703125,0.007121814703941345,0.08535963124707341,0.015090218033548444
1761506829776234200,7.506234130859375,0.04404489343166351,0.0813582866512239,0.012723087043408304
1761506829786206200,7.516206298828125,0.07040040091574191,0.09796703775525092,0.007978431533277035
1761506829796178400,7.526178466796875,0.08544073365926742,0.10491327669657766,0.010168379325605928
1761506829806149000,7.536149169921875,0.06358721376955509,0.10996566471531986,-0.002272694172337651
1761506829816121300,7.546121337890625,0.027117724028229713,0.11965411503687501,-0.009558759527280926
1761506829826093300,7.55609326171875,0.015900748965144155,0.1209786416389048,-0.0014451025080867111
1761506829836065300,7.566065185546875,0.013198504269123076,0.10529336205534637,-0.00871182384174317
1761506829846037200,7.576037353515625,0.02617664378583431,0.07665485820062458,0.0024129063606262205
1761506829856008200,7.58600830078125,0.004850947162508964,0.08073942410051822,0.004588679497130215
1761506829865980200,7.595980224609375,0.009154197314381598,0.08143383610546588,-0.0014414309799671173
1761506829875952000,7.6059521484375,0.055852235603332516,0.05819799501188099,-0.014250917665194719
1761506829885924400,7.61592431640625,0.1092225912630558,0.008515680215135216,-0.021459643467608838
1761506829895895300,7.625895263671875,0.1626052218824625,-0.03160911716334522,-0.041806905246526
1761506829905867300,7.6358671875,0.17258534862697122,-0.06509133472219109,-0.053369077018089586
1761506829915839200,7.645839111328125,0.13593699518740177,-0.06621566257700323,-0.08590369326220824
1761506829925811200,7.655811279296875,0.08872574667930602,-0.059315089408308264,-0.11279274136740713
1761506829935782100,7.6657822265625,0.044131402671337125,-0.049170200556144114,-0.12011491921534762
1761506829945754400,7.67575439453125,0.00232055190205574,-0.048150282923877234,-0.13820415466809644
1761506829955726000,7.68572607421875,-0.03337269276976585,-0.050380891520157456,-0.12650290321940555
1761506829965698300,7.6956982421875,-0.06548281825780868,-0.03975216467380523,-0.10274007910965009
1761506829975670300,7.705670166015625,-0.08877718460559844,-0.022994506618380546,-0.07309890101840719
1761506829985641200,7.71564111328125,-0.08199439259767533,-0.008086056626215577,-0.06046765697691589
1761506829995613400,7.725613525390625,-0.10266600922644138,0.006440700571984052,-0.05367712005395442
1761506830005585200,7.735585205078125,-0.09163023594915866,0.0024450550645589825,-0.03829913458758965
1761506830015557400,7.745557373046875,-0.05933949319720268,0.022495471055060622,-0.03723956079836935
1761506830025528300,7.7555283203125,-0.017840192595124243,0.0333723274435848,-0.020329214665573088
1761506830035500300,7.765500244140625,-0.008283844220638275,0.03114069593399763,-0.006493088346347212
1761506830045472300,7.77547216796875,-0.0016664719074964522,0.033415728193894025,0.018427783224731684
1761506830055444200,7.7854443359375,0.0020247838258743286,0.03209215143993497,0.03340937151834369
1761506830065416400,7.79541650390625,0.005585106655955315,0.028312705966457723,0.042765923004411156
1761506830075387100,7.80538720703125,-0.0019108020573854446,0.03615443244278431,0.042928310491889714
1761506830085359400,7.815359375,0.015928806015849114,0.020349398937076327,0.05491669005258008
1761506830095331000,7.8253310546875,0.03309738295972347,0.01990830410607159,0.06662438950836658
1761506830105303300,7.83530322265625,0.04670154542028904,0.009121025697141886,0.06594201500108465
1761506830115274200,7.845274169921875,0.06424713898301124,-0.005384542582556605,0.06459776078527793
1761506830125246200,7.85524609375,0.05341127219200134,-0.01989412945024669,0.03663072645133361
1761506830135218200,7.86521826171875,-0.01024608420431614,0.01329633862040937,0.021894929612334815
1761506830145190100,7.875190185546875,-0.05886719951033592,0.012169161221385002,0.01622798989182338
1761506830155162400,7.885162353515625,-0.09905424847006797,0.025973157102987168,0.011494348966050892
1761506830165133300,7.89513330078125,-0.1162462062895298,0.04437229875512421,0.02657231030622497
1761506830175105300,7.905105224609375,-0.09166238465309143,0.03976875048242509,0.03477830351768061
1761506830185077200,7.9150771484375,-0.03408113330006599,0.028202231329306958,0.03089152521220967
1761506830195049200,7.92504931640625,0.008489595925807952,0.026573607214167714,-0.0007860540774650871
1761506830205020200,7.935020263671875,0.04593757531046867,0.005035656079649925,-0.03287785845752805
1761506830214992400,7.944992431640625,0.08187398108839988,0.017970102585107086,-0.06200125975236296
1761506830224964000,7.954964111328125,0.061442018434405325,0.032184213637560605,-0.08295949303647503
1761506830234936300,7.964936279296875,0.053530514657497405,0.03425488243177533,-0.08483018227918072
1761506830244908300,7.974908203125,0.061683425974845885,0.04227291532307863,-0.10413615484423935
1761506830254879200,7.984879150390625,0.020669863063097,0.03896685951501131,-0.0944523076325655
1761506830264851500,7.9948515625,0.005506780722737312,0.038430560681223865,-0.07911416098624467
1761506830274823200,8.0048232421875,-0.015311550900340079,0.04235679421424866,-0.06946436217464506
1761506830284795400,8.01479541015625,-0.041968671679496763,0.03932436771579086,-0.08025965949324891
1761506830294766000,8.02476611328125,-0.03569207562804222,0.03524213990345597,-0.07219718467202037
1761506830304738300,8.03473828125,0.0006277765095233917,0.033707039290666575,-0.061039538580738004
1761506830314710000,8.0447099609375,0.05607493844330311,0.01195325344838202,-0.03974496774803847
1761506830324682200,8.05468212890625,0.08375672609508036,0.0025259382810443637,-0.007770871463511139
1761506830334653200,8.064653076171876,0.1023947910696268,-0.0016762626491487024,0.04598760673096403
1761506830344625200,8.074625244140625,0.08169628643393516,-0.0028423107538372277,0.07599210170926526
1761506830354597400,8.084597412109375,0.03634440205693245,0.0012944237247109413,0.08624070666423067
1761506830364569000,8.094569091796876,-0.023444588473439214,0.007725479685515165,0.0921381854712963
1761506830374541300,8.104541259765625,-0.0766360804349184,0.029479046332091093,0.08205412342827767
1761506830384512300,8.11451220703125,-0.08693535613119602,0.038843306200578805,0.0912187325388193
1761506830394484200,8.124484130859376,-0.047135260662436486,0.047722120639681814,0.1210244900746271
1761506830404456200,8.134456298828125,-0.006370119553804397,0.05390826192870736,0.16084173760758713
1761506830414428200,8.14442822265625,0.043508302336931225,0.04217471564561128,0.19049456960400565
1761506830424400400,8.154400390625,0.06530804621279239,0.03352839478813112,0.1909761425758712
1761506830434371300,8.164371337890625,0.06788987939953804,0.04310483610257506,0.1744709249115549
1761506830444343300,8.17434326171875,0.03671031275987625,0.045475729952380056,0.1420889236795716
1761506830454315300,8.184315185546875,-0.01991349173784256,0.05306443151570856,0.10599345488240942
1761506830464287200,8.194287353515625,-0.06509528024494647,0.06276596051454544,0.06215873360270634
1761506830474258200,8.204258056640626,-0.06866670899093151,0.0649631052326411,0.04158688755398616
1761506830484230400,8.21423046875,-0.0446598104596138,0.04321947545818984,0.032739655563235284
1761506830494202000,8.2242021484375,-0.02967617633938789,0.01867525517977774,0.014472122667822987
1761506830504174300,8.23417431640625,-0.013755553629994392,0.0025301760647445915,-0.02484541344838217
1761506830514145000,8.24414501953125,-0.017676526466012,0.0031273382402956483,-0.06919294308843091
1761506830524117200,8.2541171875,-0.030090017837285994,0.013150208147987723,-0.10574506961191073
1761506830534089200,8.264089111328126,-0.03762392047345638,0.0058890580385923385,-0.11889377992255612
1761506830544061200,8.274061279296875,-0.02972293809056282,-0.003932224882394075,-0.08377340323524549
1761506830554033200,8.284033203125,-0.019268764093518256,-0.019664704608544706,-0.07964954650457948
1761506830564004000,8.294004150390625,-0.023498949009180068,-0.022664470946416257,-0.07634049502182752
1761506830573976300,8.303976318359375,-0.033708208334445953,-0.013667802281305192,-0.08450705127203836
1761506830583948000,8.313947998046874,-0.05964169101417064,0.008554843181744218,-0.07806320889489725
1761506830593920300,8.323920166015625,-0.03874795606732368,0.02590747145563364,-0.06888855331437661
1761506830603891200,8.33389111328125,0.021334464451670646,0.028255715082213282,-0.0520524231952615
1761506830613863200,8.34386328125,0.08363923719525337,0.013628054792806505,-0.05662555806338787
1761506830623835400,8.35383544921875,0.12459551696181297,0.006629939533770084,-0.07336485847821458
1761506830633807000,8.36380712890625,0.11366495762467384,0.01914133832156658,-0.08637132904026656
1761506830643779300,8.373779296875,0.09544307223558425,0.040530893961340186,-0.08378461874900385
1761506830653750300,8.383750244140625,0.11951134556531906,0.045784138314425946,-0.0499774983510375
1761506830663722200,8.39372216796875,0.11988251696527004,0.05021569102108478,-0.04231752164978534
1761506830673694200,8.403694091796876,0.08519406542181968,0.06947313000299037,-0.04054050203990191
1761506830683666200,8.413666259765625,0.05740004956722259,0.11325520778000354,-0.027546817894186823
1761506830693637000,8.42363720703125,0.07426642869412899,0.10183774170875548,-0.02908438445869833
1761506830703609000,8.433609130859375,0.10026654686927795,0.08620448457337915,-0.06666621935609728
1761506830713581000,8.4435810546875,0.10397942991256713,0.06052117726244032,-0.09059369597565382
1761506830723553000,8.453552978515624,0.0903518865764141,0.050420273682475085,-0.08984598288089037
1761506830733525000,8.46352490234375,0.08580489079654216,0.05961904079094529,-0.07395285096662119
1761506830743496000,8.473495849609375,0.0751759447544813,0.0531450224712491,-0.05436429860051721
1761506830753468200,8.48346826171875,0.050526656666398044,0.03065181643851101,-0.038210816983319816
1761506830763440000,8.493440185546875,0.043642157849669454,0.011225523695722222,-0.009675426443200559
1761506830773412000,8.503412109375,0.018564999738335607,-0.02877323615029454,0.023333072656672445
1761506830783383000,8.513383056640626,-0.07805646862685679,-0.03613514322042465,0.028535043480247258
1761506830793355000,8.52335498046875,-0.2372504207611084,0.049368061215803026,0.027127880096063015
