time,seconds_elapsed,z,y,x
1761506822347259600,0.077259765625,-0.01971784606575966,-0.2845383882522583,0.17732934653759003
1761506822357230800,0.08723095703125,-0.029325390234589577,-0.2353084534406662,0.13463303446769714
1761506822367202800,0.097202880859375,-0.05180779844522476,-0.13634991645812988,0.07540273666381836
1761506822377174800,0.1071748046875,-0.07470865547657013,-0.017102183774113655,0.009745336137712002
1761506822387146800,0.117146728515625,-0.0925169512629509,0.09147649258375168,-0.04836004599928856
1761506822397118700,0.12711865234375,-0.10040340572595596,0.1691393107175827,-0.08856537193059921
1761506822407089700,0.137089599609375,-0.09421981126070023,0.1971413791179657,-0.10679417848587036
1761506822417062000,0.147061767578125,-0.0864940658211708,0.18893280625343323,-0.107272207736969
1761506822427033900,0.157033935546875,-0.07665528357028961,0.1566382497549057,-0.09135156124830246
1761506822437005800,0.167005859375,-0.06607488542795181,0.0994676798582077,-0.06490723788738251
1761506822446977000,0.17697705078125,-0.05592291057109833,0.04204725846648216,-0.043400879949331284
1761506822456948700,0.18694873046875,-0.04287521168589592,-0.010643159039318562,-0.017130866646766663
1761506822466921000,0.1969208984375,-0.030102692544460297,-0.045653343200683594,-0.006756254937499762
1761506822476892700,0.206892578125,-0.02070462517440319,-0.05939534679055214,-0.0036455353256314993
1761506822486865000,0.216864990234375,-0.013395845890045166,-0.05133582279086113,-0.0074293543584644794
1761506822496835600,0.226835693359375,-0.013913558796048164,-0.014802083373069763,-0.02321663871407509
1761506822506807800,0.236807861328125,-0.006913706660270691,0.035563088953495026,-0.042695797979831696
1761506822516779800,0.24677978515625,0.0004263082519173622,0.09064558893442154,-0.06609190255403519
1761506822526751700,0.256751708984375,0.01777467131614685,0.12319580465555191,-0.07611817121505737
1761506822536724000,0.266723876953125,0.024165648967027664,0.13219082355499268,-0.0849846601486206
1761506822546694700,0.276694580078125,0.032766327261924744,0.133565291762352,-0.07679996639490128
1761506822556667000,0.2866669921875,0.0400153286755085,0.12359052151441574,-0.050100237131118774
1761506822566638600,0.296638671875,0.042870234698057175,0.10610447078943253,-0.015023207291960716
1761506822576610800,0.30661083984375,0.04680228978395462,0.08861064165830612,0.0234445221722126
1761506822586581800,0.316581787109375,0.04970699921250343,0.06862787902355194,0.04950594902038574
1761506822596553700,0.3265537109375,0.06112579256296158,0.04632681980729103,0.06563420593738556
1761506822606526000,0.33652587890625,0.0648702010512352,0.03325975313782692,0.06481288373470306
1761506822616497700,0.34649755859375,0.06786541640758514,0.03647333383560181,0.05680617690086365
1761506822626470000,0.356469970703125,0.06943827867507935,0.04608282074332237,0.03727215528488159
1761506822636440800,0.36644091796875,0.05795693397521973,0.06810605525970459,0.02123625949025154
1761506822646412800,0.376412841796875,0.05315392464399338,0.09171098470687866,0.01942983828485012
1761506822656384800,0.386384765625,0.052895449101924896,0.10459783673286438,0.018597478047013283
1761506822666356700,0.396356689453125,0.049516960978507996,0.10694674402475357,0.012733995914459229
1761506822676327700,0.40632763671875,0.04964718967676163,0.09443680942058563,0.010663121938705444
1761506822686300000,0.4162998046875,0.05774373561143875,0.0667300820350647,0.0053913951851427555
1761506822696272100,0.426272216796875,0.06128166615962982,0.04000454396009445,0.0012512481771409512
1761506822706244400,0.436244384765625,0.06370114535093307,0.01748938299715519,0.0059376126155257225
1761506822716216000,0.446216064453125,0.06684580445289612,-0.0004774808185175061,0.01559533178806305
1761506822726187300,0.456187255859375,0.06362870335578918,-0.009373504668474197,0.021407147869467735
1761506822736159000,0.466158935546875,0.060082826763391495,0.006512453779578209,0.030661478638648987
1761506822746131200,0.476131103515625,0.06234145537018776,0.028985273092985153,0.061707813292741776
1761506822756103200,0.486103271484375,0.06525213271379471,0.04339633509516716,0.08765845745801926
1761506822766075100,0.4960751953125,0.06676267832517624,0.03995100036263466,0.11021330207586288
1761506822776046300,0.50604638671875,0.06707148998975754,0.024897586554288864,0.11529859900474548
1761506822786018000,0.51601806640625,0.06659212708473206,-0.001174227916635573,0.1042182594537735
1761506822795990300,0.525990234375,0.05942247807979584,-0.024877717718482018,0.09156682342290878
1761506822805962000,0.5359619140625,0.0534287691116333,-0.04578140377998352,0.0638105571269989
1761506822815933200,0.54593310546875,0.04003329575061798,-0.0582912415266037,0.03333132714033127
1761506822825905200,0.5559052734375,0.028272509574890137,-0.06606154143810272,0.01110671553760767
1761506822835877000,0.565877197265625,0.016341891139745712,-0.054594434797763824,0.01033496018499136
1761506822845849300,0.575849365234375,0.010235529392957687,-0.0386921651661396,0.02228216640651226
1761506822855821000,0.585821044921875,0.006551651284098625,-0.021282710134983063,0.04208739101886749
1761506822865792300,0.595792236328125,0.0006309114396572113,-0.007564500905573368,0.05439358949661255
1761506822875764200,0.60576416015625,-0.007774143945425749,-0.003936829045414925,0.06675024330615997
1761506822885736200,0.615736083984375,-0.015546312555670738,-0.010220557451248169,0.05145597830414772
1761506822895708200,0.625708251953125,-0.024350950494408607,-0.01914091408252716,0.02365352399647236
1761506822905679000,0.63567919921875,-0.0312940776348114,-0.02226240560412407,-0.010166756808757782
1761506822915651000,0.645651123046875,-0.029184089973568916,-0.020856577903032303,-0.0372755192220211
1761506822925623300,0.655623291015625,-0.024654319509863853,-0.009615641087293625,-0.059664446860551834
1761506822935595300,0.66559521484375,-0.021561965346336365,-0.0005040583200752735,-0.05983356386423111
1761506822945567200,0.675567138671875,-0.015232963487505913,0.00018996151629835367,-0.056386370211839676
1761506822955538200,0.6855380859375,-0.006434529088437557,-0.0042775836773216724,-0.04424729198217392
1761506822965510100,0.69551025390625,0.0037115816958248615,-0.00021999131422489882,-0.03463248163461685
1761506822975482000,0.705482177734375,0.016121380031108856,-0.0001230522757396102,-0.0248232614248991
1761506822985454000,0.7154541015625,0.024361200630664825,-0.002204046119004488,-0.022515898570418358
1761506822995426300,0.72542626953125,0.03892876207828522,-0.007494459860026836,-0.024460744112730026
1761506823005397000,0.73539697265625,0.04273335635662079,-0.019307710230350494,-0.042015235871076584
1761506823015369200,0.745369140625,0.04900083690881729,-0.03699292242527008,-0.050893086940050125
1761506823025341200,0.755341064453125,0.05272846296429634,-0.05987107381224632,-0.05273253098130226
1761506823035313200,0.765313232421875,0.057933274656534195,-0.08916090428829193,-0.035536590963602066
1761506823045284400,0.775284423828125,0.06511874496936798,-0.12719589471817017,-0.008371817879378796
1761506823055256000,0.785256103515625,0.07728459686040878,-0.16465991735458374,0.01917964778840542
1761506823065228300,0.795228271484375,0.0909000113606453,-0.19717338681221008,0.04868907108902931
1761506823075200000,0.805199951171875,0.10775469988584518,-0.22590337693691254,0.08202864229679108
1761506823085172200,0.815172119140625,0.11909230798482895,-0.2464539259672165,0.11707744002342224
1761506823095143200,0.82514306640625,0.11168050020933151,-0.23926466703414917,0.1528119146823883
1761506823105115100,0.835115234375,0.08434262126684189,-0.20745453238487244,0.17461149394512177
1761506823115087400,0.84508740234375,0.05868123844265938,-0.14571230113506317,0.17892226576805115
1761506823125059000,0.85505908203125,0.04796973988413811,-0.06930327415466309,0.15924017131328583
1761506823135031300,0.86503125,0.0387628898024559,0.006467978935688734,0.1173095554113388
1761506823145002200,0.875002197265625,0.035715702921152115,0.07212422043085098,0.06849274039268494
1761506823154974200,0.88497412109375,0.028740886598825455,0.11575597524642944,0.02704300917685032
1761506823164946200,0.8949462890625,0.016345202922821045,0.1288994699716568,-0.007656914182007313
1761506823174918100,0.904918212890625,0.00046922964975237846,0.12343456596136093,-0.015747159719467163
1761506823184889000,0.91488916015625,-0.005024872254580259,0.10198946297168732,-0.013218489475548267
1761506823194861000,0.924861083984375,-0.005678683053702116,0.07018894702196121,-0.0010738749988377094
1761506823204833300,0.934833251953125,0.006142555736005306,0.04352777823805809,0.009908202104270458
1761506823214805200,0.94480517578125,0.02329319901764393,0.02162516489624977,0.022348716855049133
1761506823224777200,0.954777099609375,0.038000769913196564,0.006116247270256281,0.026804717257618904
1761506823234748200,0.964748046875,0.04445010796189308,-0.007602779194712639,0.011195549741387367
1761506823244720000,0.97472021484375,0.04514306038618088,-0.013825788162648678,-0.009125701151788235
1761506823254692000,0.984692138671875,0.04630244895815849,-0.0064361910335719585,-0.02761795185506344
1761506823264664000,0.9946640625,0.044027045369148254,0.00006804754957556725,-0.04332740232348442
1761506823274636300,1.00463623046875,0.028165224939584732,0.017852701246738434,-0.05033918842673302
1761506823284607200,1.014607177734375,0.010645618662238121,0.035846348851919174,-0.060801416635513306
1761506823294579200,1.0245791015625,-0.0058994595892727375,0.04748230427503586,-0.06415244191884995
1761506823304551200,1.03455126953125,-0.01227293536067009,0.05551253631711006,-0.0641910582780838
1761506823314523100,1.044523193359375,-0.014577103778719902,0.047514528036117554,-0.061753734946250916
1761506823324494000,1.054494140625,-0.009202200919389725,0.02627156302332878,-0.05076102912425995
1761506823334466300,1.06446630859375,-0.008751709014177322,0.00032772356644272804,-0.03924199938774109
1761506823344438000,1.07443798828125,-0.015470331534743309,-0.021423911675810814,-0.02993638440966606
1761506823354410200,1.08441015625,-0.02423810586333275,-0.029369274154305458,-0.021474067121744156
1761506823364382200,1.09438232421875,-0.032399363815784454,-0.024221915751695633,-0.018295850604772568
1761506823374353200,1.104353271484375,-0.03897291421890259,-0.011869749054312706,-0.02364969626069069
1761506823384325400,1.114325439453125,-0.036784328520298004,-0.00102908571716398,-0.03285384550690651
1761506823394297000,1.124297119140625,-0.026789328083395958,0.0184820294380188,-0.02654372900724411
1761506823404269300,1.134269287109375,-0.018461093306541443,0.02443951927125454,-0.022113295271992683
1761506823414240000,1.144239990234375,-0.011112640611827374,0.023887626826763153,-0.018805017694830894
1761506823424212200,1.154212158203125,-0.007507519796490669,0.01857062615454197,-0.00785303395241499
1761506823434184200,1.16418408203125,-0.0008087931200861931,0.008563069626688957,0.0007045301608741283
1761506823444156200,1.17415625,0.00018509849905967712,-0.001865070080384612,0.007787739858031273
1761506823454128400,1.18412841796875,0.008922092616558075,-0.013302183710038662,0.004406176507472992
1761506823464099000,1.19409912109375,0.013603130355477333,-0.022919658571481705,-0.003783310065045953
1761506823474071300,1.2040712890625,0.03187805041670799,-0.034746620804071426,-0.014946399256587029
1761506823484043000,1.21404296875,0.047173384577035904,-0.04602137953042984,-0.032912615686655045
1761506823494015200,1.22401513671875,0.05850405991077423,-0.050032179802656174,-0.03944338858127594
1761506823503986200,1.233986083984375,0.0730273425579071,-0.05495423451066017,-0.04225568845868111
1761506823513958100,1.243958251953125,0.07949851453304291,-0.04311447590589523,-0.03280714526772499
1761506823523930000,1.25393017578125,0.07572535425424576,-0.02997976541519165,-0.021045561879873276
1761506823533902000,1.263902099609375,0.07530461996793747,-0.020876077935099602,-0.005346236750483513
1761506823543874300,1.273874267578125,0.06726214289665222,-0.0061120460741221905,0.01362212747335434
1761506823553845200,1.28384521484375,0.06640589982271194,0.006357091013342142,0.03170614317059517
1761506823563817200,1.293817138671875,0.06319652497768402,0.009243691340088844,0.04921003431081772
1761506823573789200,1.3037890625,0.056014008820056915,0.005380858667194843,0.06250211596488953
1761506823583761200,1.31376123046875,0.05371090769767761,-0.0008051320910453796,0.06738502532243729
1761506823593733000,1.323733154296875,0.043791815638542175,-0.008770438842475414,0.06572411954402924
1761506823603704300,1.333704345703125,0.02919290028512478,-0.011212823912501335,0.05822599306702614
1761506823613676000,1.343676025390625,0.01613001711666584,-0.0059197149239480495,0.041596684604883194
1761506823623648300,1.353648193359375,0.004888281226158142,0.006140409968793392,0.023264549672603607
1761506823633620200,1.3636201171875,-0.0018390966579318047,0.029002787545323372,0.0022388380020856857
1761506823643591200,1.373591064453125,-0.004893209785223007,0.051336053758859634,-0.017160426825284958
1761506823653563100,1.383563232421875,-0.004454202950000763,0.06887385994195938,-0.02288208343088627
1761506823663535000,1.39353515625,-0.00025413092225790024,0.07637438923120499,-0.01620420627295971
1761506823673507300,1.40350732421875,-0.006369361188262701,0.061390191316604614,-0.004652476403862238
1761506823683479000,1.41347900390625,-0.01552744023501873,0.04381599277257919,0.001181177794933319
1761506823693449700,1.42344970703125,-0.014299144968390465,0.02799961157143116,0.0071723079308867455
1761506823703422000,1.433421875,-0.00878906436264515,0.014908043667674065,0.01252233237028122
1761506823713393700,1.4433935546875,0.003547904547303915,0.009380603209137917,0.0009665293619036674
1761506823723366000,1.453365966796875,0.010361602529883385,0.014403058215975761,-0.007089000195264816
1761506823733337900,1.463337890625,0.016821332275867462,0.019904140383005142,-0.017125332728028297
1761506823743308800,1.473308837890625,0.020143626257777214,0.023106325417757034,-0.01895732246339321
1761506823753280800,1.48328076171875,0.026081446558237076,0.018432531505823135,-0.021436013281345367
1761506823763252700,1.493252685546875,0.026797037571668625,0.017694570124149323,-0.021663447842001915
1761506823773224700,1.503224609375,0.031867317855358124,0.020095400512218475,-0.02336225099861622
1761506823783195600,1.513195556640625,0.037908703088760376,0.024714920669794083,-0.020448753610253334
1761506823793168000,1.52316796875,0.04009971767663956,0.023848112672567368,-0.01823442056775093
1761506823803139800,1.533139892578125,0.042607083916664124,0.015698574483394623,-0.023792704567313194
1761506823813111800,1.54311181640625,0.04279575124382973,0.003148553427308798,-0.024609021842479706
1761506823823083800,1.553083740234375,0.047164399176836014,-0.009586417116224766,-0.03023122251033783
1761506823833054700,1.5630546875,0.04960842430591583,-0.013470503501594067,-0.032576583325862885
1761506823843027000,1.57302685546875,0.05885199457406998,-0.002312391297891736,-0.031789883971214294
1761506823852998700,1.58299853515625,0.06446616351604462,0.0018262584926560521,-0.026279686018824577
1761506823862971000,1.592970947265625,0.06905558705329895,0.00468063447624445,-0.02003803662955761
1761506823872941800,1.60294189453125,0.06996557861566544,0.0002566712209954858,-0.009497118182480335
1761506823882913800,1.612913818359375,0.0660986676812172,-0.0036981229204684496,-0.00009482842870056629
1761506823892886000,1.622885986328125,0.068939208984375,0.00826445035636425,0.007801584433764219
1761506823902857700,1.632857666015625,0.06736501306295395,0.005216728895902634,0.01625152863562107
1761506823912830000,1.642829833984375,0.06517691910266876,0.0016909510595723987,0.01463567279279232
1761506823922801000,1.65280078125,0.05964420363306999,-0.0035687920171767473,0.017071932554244995
1761506823932772900,1.66277294921875,0.05561742186546326,-0.012715181335806847,0.01315711997449398
1761506823942744800,1.672744873046875,0.0436081625521183,-0.009508202783763409,0.009021496400237083
1761506823952716800,1.682716796875,0.03580833971500397,-0.004683227278292179,0.012600870802998543
1761506823962687700,1.692687744140625,0.02727477252483368,0.005975542590022087,0.0070146238431334496
1761506823972659700,1.70265966796875,0.02146151475608349,0.021840251982212067,0.009592056274414062
1761506823982632000,1.7126318359375,0.019984258338809013,0.03514061123132706,0.009209892712533474
1761506823992604000,1.72260400390625,0.019734978675842285,0.04124077036976814,0.015288121998310089
1761506824002576000,1.732575927734375,0.01850592903792858,0.03329203277826309,0.02672400139272213
1761506824012546800,1.742546875,0.018919751048088074,0.01233248133212328,0.029904138296842575
1761506824022518800,1.752518798828125,0.011150246486067772,-0.013972892425954342,0.028949927538633347
1761506824032490800,1.76249072265625,0.006954927463084459,-0.03778689727187157,0.016418039798736572
1761506824042462700,1.772462646484375,-0.0034937188029289246,-0.04741395637392998,0.004575229249894619
1761506824052435000,1.78243505859375,-0.011576976627111435,-0.0521230474114418,-0.011358708143234253
1761506824062406000,1.792406005859375,-0.023064520210027695,-0.04050793498754501,-0.025508349761366844
1761506824072377900,1.8023779296875,-0.02969443053007126,-0.022371718659996986,-0.03437883034348488
1761506824082349800,1.812349853515625,-0.03401247784495354,-0.005713381338864565,-0.04188548028469086
1761506824092321800,1.82232177734375,-0.034814316779375076,0.012306381948292255,-0.04392215237021446
1761506824102292700,1.832292724609375,-0.029885604977607727,0.023046646267175674,-0.03959131985902786
1761506824112265000,1.842264892578125,-0.022441379725933075,0.02064872719347477,-0.02910429798066616
1761506824122236700,1.852236572265625,-0.02132498286664486,0.011564685963094234,-0.018841540440917015
1761506824132209000,1.862208984375,-0.02041509933769703,-0.004186672158539295,-0.009159494191408157
1761506824142180900,1.872180908203125,-0.019895516335964203,-0.013347147032618523,-0.004456085618585348
1761506824152151800,1.88215185546875,-0.01796066015958786,-0.01694374904036522,-0.00947548821568489
1761506824162124000,1.8921240234375,-0.017383553087711334,-0.020037010312080383,-0.01994330994784832
1761506824172095700,1.902095703125,-0.009797949343919754,-0.006664431653916836,-0.033430539071559906
1761506824182068000,1.91206787109375,0.0013292711228132248,0.011789943091571331,-0.039030902087688446
1761506824192038700,1.92203857421875,0.011997433379292488,0.01889057084918022,-0.03665873035788536
1761506824202011000,1.932010986328125,0.014537024311721325,0.023956432938575745,-0.028210118412971497
1761506824211982800,1.94198291015625,0.01827245205640793,0.018892087042331696,-0.013988575898110867
1761506824221954800,1.951954833984375,0.016764039173722267,0.004347232636064291,-0.000665845989715308
1761506824231927000,1.961927001953125,0.024757057428359985,-0.010815253481268883,0.007766048889607191
1761506824241897700,1.971897705078125,0.03092973306775093,-0.024628005921840668,0.012199413031339645
1761506824251870000,1.981869873046875,0.0328008309006691,-0.03687445446848869,0.0067922500893473625
1761506824261841700,1.991841552734375,0.031997889280319214,-0.04824455454945564,-0.00147420191206038
1761506824271814000,2.00181396484375,0.029581069946289062,-0.05027574673295021,-0.02118159458041191
1761506824281784800,2.011784912109375,0.02534770965576172,-0.039589013904333115,-0.03363187238574028
1761506824291756800,2.0217568359375,0.02803754433989525,-0.026598509401082993,-0.03891070559620857
1761506824301728800,2.031728759765625,0.030015740543603897,-0.007863437756896019,-0.037538912147283554
1761506824311700700,2.04170068359375,0.030368713662028313,-0.0012092191027477384,-0.028315015137195587
1761506824321673000,2.0516728515625,0.02469058893620968,-0.011780637316405773,-0.01066997554153204
1761506824331644000,2.061643798828125,0.019411331042647362,-0.0305729229003191,0.002319531748071313
1761506824341615900,2.071615966796875,0.011991763487458229,-0.04798227548599243,0.01068744994699955
1761506824351587800,2.081587890625,0.0014305757358670235,-0.056386929005384445,0.01832004263997078
1761506824361559800,2.091559814453125,-0.007318707183003426,-0.045432016253471375,0.011753486469388008
1761506824371530800,2.10153076171875,-0.009890824556350708,-0.021075069904327393,0.001230359310284257
1761506824381503000,2.1115029296875,-0.011270342394709587,0.005249478854238987,-0.017238397151231766
1761506824391474700,2.121474609375,-0.013234956189990044,0.023469228297472,-0.03441259264945984
1761506824401447000,2.131447021484375,-0.013950014486908913,0.03688197582960129,-0.039449162781238556
1761506824411419000,2.1414189453125,-0.010882393456995487,0.03777710348367691,-0.03900660201907158
1761506824421389800,2.151389892578125,-0.01222089771181345,0.025095131248235703,-0.020671270787715912
1761506824431361800,2.16136181640625,-0.009346503764390945,0.013155514374375343,-0.002641055267304182
1761506824441333800,2.171333740234375,0.0023088203743100166,0.000570480537135154,0.02142593078315258
1761506824451306000,2.181305908203125,0.011273385025560856,-0.009110113605856895,0.03866070508956909
1761506824461276700,2.191276611328125,0.020790191367268562,-0.009575368836522102,0.04947846382856369
1761506824471249000,2.201248779296875,0.027287030592560768,-0.00952982623130083,0.048171550035476685
1761506824481220600,2.211220703125,0.03091398999094963,-0.008413429372012615,0.03805100545287132
1761506824491192800,2.22119287109375,0.031182846054434776,-0.00940258800983429,0.016810884699225426
1761506824501164800,2.231164794921875,0.033171430230140686,-0.006423575803637505,-0.0030147507786750793
1761506824511135700,2.2411357421875,0.030799468979239464,0.0010959480423480272,-0.015868086367845535
1761506824521108000,2.25110791015625,0.03656574338674545,0.012425035238265991,-0.015096835792064667
1761506824531079700,2.26107958984375,0.042548198252916336,0.018044738098978996,-0.009803631342947483
1761506824541052000,2.271052001953125,0.047179967164993286,0.01369872409850359,-0.006020344793796539
1761506824551023600,2.281023681640625,0.04247216880321503,0.004541164729744196,0.009332762099802494
1761506824560994800,2.290994873046875,0.04114378243684769,-0.01193235069513321,0.021469853818416595
1761506824570966800,2.300966796875,0.03340141475200653,-0.02915830910205841,0.02461187355220318
1761506824580938800,2.310938720703125,0.02658398635685444,-0.04231352359056473,0.01372913271188736
1761506824590911000,2.320910888671875,0.02250257506966591,-0.04309125244617462,-0.0007327753119170666
1761506824600882000,2.3308818359375,0.019765643402934074,-0.0336490161716938,-0.022233540192246437
1761506824610854000,2.34085400390625,0.020928382873535156,-0.00895261112600565,-0.03856753557920456
1761506824620825900,2.350825927734375,0.0143935177475214,0.00676429970189929,-0.04502783343195915
1761506824630797800,2.3607978515625,0.00993896834552288,0.021638261154294014,-0.03674395754933357
1761506824640769800,2.370769775390625,0.0025678714737296104,0.024670004844665527,-0.02230190485715866
1761506824650740700,2.38074072265625,-0.006007397081702948,0.024951772764325142,-0.004117597825825214
1761506824660712700,2.390712646484375,-0.011162744835019112,0.02012665756046772,0.014134109951555729
1761506824670685000,2.400684814453125,-0.018363365903496742,0.01312221772968769,0.02714998833835125
1761506824680657000,2.410656982421875,-0.01606186293065548,0.005358037538826466,0.030194247141480446
1761506824690627800,2.4206279296875,-0.01601647585630417,-0.0008376798359677196,0.03255028650164604
1761506824700599800,2.430599853515625,-0.01752355694770813,-0.0017226483905687928,0.027699340134859085
1761506824710571800,2.44057177734375,-0.02344360388815403,-0.0018385431030765176,0.02347606234252453
1761506824720543700,2.450543701171875,-0.025836721062660217,-0.0014284163480624557,0.01578458584845066
1761506824730515700,2.460515625,-0.02959097921848297,0.0037435912527143955,0.0029420568607747555
1761506824740487000,2.47048681640625,-0.03234202787280083,0.01404656283557415,-0.005847439635545015
1761506824750458600,2.480458740234375,-0.022585609927773476,0.021179351955652237,-0.004828575532883406
1761506824760430800,2.490430908203125,-0.012232838198542595,0.02022727206349373,-0.002018408151343465
1761506824770402800,2.50040283203125,-0.011330636218190193,0.0026210430078208447,-0.0030837012454867363
1761506824780373800,2.510373779296875,-0.017533669248223305,-0.015996316447854042,-0.0011124293087050319
1761506824790346000,2.520345947265625,-0.01616903394460678,-0.022950690239667892,0.004889748524874449
1761506824800317700,2.530317626953125,-0.0107750678434968,-0.024476150050759315,0.00524394866079092
1761506824810290000,2.5402900390625,-0.007693597115576267,-0.022865692153573036,0.0009705799166113138
1761506824820261600,2.55026171875,-0.007817966863512993,-0.012192542664706707,-0.001860892865806818
1761506824830232800,2.56023291015625,-0.0006143087521195412,-0.005494469776749611,0.0002563807647675276
1761506824840204800,2.570204833984375,0.0023852093145251274,-0.001781224156729877,-0.005488323979079723
1761506824850176800,2.5801767578125,0.005784242879599333,-0.0018568409141153097,-0.0028793755918741226
1761506824860149000,2.59014892578125,0.00993717648088932,-0.002758320886641741,0.004195577930659056
1761506824870120000,2.600119873046875,0.007814290933310986,-0.008727183565497398,0.009445469826459885
1761506824880092000,2.610091796875,0.00983057077974081,-0.008567659184336662,0.015087643638253212
1761506824890064000,2.62006396484375,0.007001540623605251,-0.006219032220542431,0.015894100069999695
1761506824900035800,2.630035888671875,0.008310484699904919,-0.001452240627259016,0.012124660424888134
1761506824910007800,2.6400078125,0.0021433918736875057,0.004935954697430134,0.00842059962451458
1761506824919978800,2.649978759765625,-0.001941631082445383,0.008216969668865204,0.006885552313178778
1761506824929950700,2.65995068359375,-0.00510142557322979,0.014256465248763561,0.005906626582145691
1761506824939922700,2.669922607421875,-0.004988773725926876,0.014907874166965485,0.009371398948132992
1761506824949895000,2.67989501953125,-0.003951246850192547,0.011289685033261776,0.014005983248353004
1761506824959865900,2.689865966796875,-0.002171456813812256,0.004040560685098171,0.013395320624113083
1761506824969837800,2.699837890625,0.0007211486808955669,0.002750327344983816,0.015577133744955063
1761506824979809800,2.709809814453125,0.0001658792607486248,0.0005361753865145147,0.017085015773773193
1761506824989781800,2.71978173828125,-0.0021124109625816345,0.002743796445429325,0.01884917914867401
1761506824999753700,2.729753662109375,-0.004173963330686092,0.001702234148979187,0.021393030881881714
1761506825009725000,2.739724853515625,-0.013169130310416222,0.00034486514050513506,0.015783021226525307
1761506825019696600,2.749696533203125,-0.01906616799533367,-0.00045887683518230915,0.005573792848736048
1761506825029668900,2.7596689453125,-0.027947090566158295,0.0019392287358641624,-0.008619818836450577
1761506825039640800,2.769640869140625,-0.02671457827091217,0.006620000582188368,-0.022992100566625595
1761506825049612800,2.77961279296875,-0.023185057565569878,0.012602200731635094,-0.03397050499916077
1761506825059584000,2.789583984375,-0.011544380336999893,0.02328866720199585,-0.034445080906152725
1761506825069555700,2.7995556640625,-0.005690707825124264,0.02650722861289978,-0.018125411123037338
1761506825079528000,2.80952783203125,0.002813031431287527,0.031777624040842056,-0.001700099091976881
1761506825089499600,2.819499755859375,0.005302444100379944,0.026808692142367363,0.02477174624800682
1761506825099470800,2.829470947265625,0.004305888898670673,0.01721492037177086,0.043635714799165726
1761506825109442800,2.83944287109375,0.003431115299463272,-0.0005910212639719248,0.04406347870826721
1761506825119414800,2.849414794921875,0.005150452256202698,-0.011721435934305191,0.03821704164147377
1761506825129387000,2.859386962890625,0.010208583436906338,-0.01747165620326996,0.01951112598180771
1761506825139358700,2.869358642578125,0.015385768376290798,-0.016846612095832825,0.0012932403478771448
1761506825149330000,2.879329833984375,0.014964532107114792,0.0004751890664920211,-0.01281402725726366
1761506825159301600,2.889301513671875,0.0198983047157526,0.022793011739850044,-0.015509945340454578
1761506825169273900,2.89927392578125,0.025721879675984383,0.03333727642893791,-0.013552404940128326
1761506825179245800,2.909245849609375,0.029581865295767784,0.03168664872646332,0.001741863088682294
1761506825189216800,2.919216796875,0.030326491221785545,0.015218159183859825,0.01563950628042221
1761506825199188700,2.929188720703125,0.028761617839336395,-0.007201396860182285,0.022843623533844948
1761506825209160700,2.93916064453125,0.030534859746694565,-0.02240590564906597,0.024861473590135574
1761506825219133000,2.9491328125,0.030526338145136833,-0.02786804921925068,0.025840984657406807
1761506825229104600,2.959104736328125,0.029447108507156372,-0.01894654519855976,0.02452976256608963
1761506825239075800,2.969075927734375,0.02774082124233246,-0.009046776220202446,0.02224237471818924
1761506825249047800,2.9790478515625,0.024786582216620445,0.002947794506326318,0.010138778015971184
1761506825259019800,2.989019775390625,0.019593950361013412,0.005420805886387825,-0.002958381548523903
1761506825268991700,2.99899169921875,0.02069360762834549,0.0048433346673846245,-0.009513072669506073
1761506825278963000,3.008962890625,0.010544832795858383,0.008654052391648293,-0.019397394731640816
1761506825288934700,3.0189345703125,0.008407874964177608,0.01880745217204094,-0.02154325135052204
1761506825298907000,3.028906982421875,0.004073579795658588,0.02772611193358898,-0.01013160590082407
1761506825308878800,3.03887890625,0.006260336842387915,0.029543772339820862,-0.0020466020796447992
1761506825318850800,3.048850830078125,0.006206540856510401,0.01797606609761715,0.010301144793629646
1761506825328822000,3.058822021484375,0.008929169736802578,0.003693186677992344,0.020342856645584106
1761506825338793700,3.068793701171875,0.010097498074173927,-0.001965498086065054,0.024828152731060982
1761506825348766000,3.078765869140625,0.012562861666083336,-0.0037141740322113037,0.027413075789809227
1761506825358737700,3.088737548828125,0.010343648493289948,-0.00011624314356595278,0.02382952719926834
1761506825368708900,3.098708984375,0.013353284448385239,0.01101592369377613,0.0080798901617527
1761506825378680800,3.108680908203125,0.011579353362321854,0.02737865038216114,-0.006342723965644836
1761506825388652800,3.11865283203125,0.018279485404491425,0.0418873131275177,-0.01221969909965992
1761506825398625000,3.128625,0.02541063167154789,0.04917239025235176,-0.009198607876896858
1761506825408596700,3.1385966796875,0.025072790682315826,0.04430890083312988,0.0009348960593342781
1761506825418568000,3.14856787109375,0.028062188997864723,0.0249615665525198,0.014116743579506874
1761506825428539600,3.15853955078125,0.025139672681689262,0.001366815296933055,0.02103794552385807
1761506825438511900,3.168511962890625,0.025453392416238785,-0.02072783373296261,0.023527203127741814
1761506825448483600,3.178483642578125,0.026475749909877777,-0.020175056532025337,0.018484264612197876
1761506825458455800,3.188455810546875,0.027839820832014084,-0.01047875452786684,0.015456782653927803
1761506825468426800,3.1984267578125,0.02861463837325573,0.00464432779699564,0.0036739297211170197
1761506825478398700,3.208398681640625,0.031042376533150673,0.01792098581790924,-0.0023690492380410433
1761506825488371000,3.218370849609375,0.028982087969779968,0.01693785935640335,-0.001177705591544509
1761506825498342700,3.2283427734375,0.02646034024655819,0.010536685585975647,-0.005284566432237625
1761506825508313900,3.23831396484375,0.0257940161973238,0.0007704917807132006,-0.011451084166765213
1761506825518285800,3.248285888671875,0.026904821395874023,-0.004012012854218483,-0.008707761764526367
1761506825528257800,3.2582578125,0.02697916328907013,-0.0016154161421582103,-0.00658377492800355
1761506825538229800,3.268229736328125,0.028925934806466103,0.006141306832432747,-0.011716218665242195
1761506825548201700,3.27820166015625,0.03107045590877533,0.02012099325656891,-0.012950144708156586
1761506825558172700,3.288172607421875,0.03607693314552307,0.019851747900247574,-0.01947888359427452
1761506825568145000,3.298144775390625,0.03635440021753311,0.018770447000861168,-0.017379693686962128
1761506825578116900,3.308116943359375,0.03882075101137161,0.006000322289764881,-0.01482891570776701
1761506825588088800,3.3180888671875,0.03870616480708122,0.0015410151099786162,-0.007606781553477049
1761506825598059800,3.328059814453125,0.04328254237771034,-0.004492908716201782,-0.006261618807911873
1761506825608031700,3.33803173828125,0.04726806655526161,-0.005726958625018597,-0.0101881492882967
1761506825618004000,3.34800390625,0.05388122797012329,-0.0003263341495767236,-0.008107954636216164
1761506825627975700,3.3579755859375,0.05540939420461655,0.007032213732600212,-0.005062574055045843
1761506825637948000,3.367947998046875,0.05813806876540184,0.007742478512227535,-0.007432521320879459
1761506825647918600,3.377918701171875,0.052649565041065216,-0.0021225535310804844,-0.007271165493875742
1761506825657890800,3.387890869140625,0.04580683633685112,-0.01640641689300537,-0.01110105775296688
1761506825667862800,3.39786279296875,0.03876037150621414,-0.0330808088183403,-0.02494087815284729
1761506825677834800,3.407834716796875,0.03641838580369949,-0.036762628704309464,-0.03155377507209778
1761506825687806000,3.417805908203125,0.03804250434041023,-0.02674628421664238,-0.040563665330410004
1761506825697777200,3.427777099609375,0.03459157794713974,-0.012793182395398617,-0.04342709854245186
1761506825707749000,3.4377490234375,0.032877564430236816,-0.0005141057772561908,-0.04175803065299988
1761506825717721000,3.44772119140625,0.025592487305402756,0.008814148604869843,-0.03136930614709854
1761506825727693000,3.457693115234375,0.023985736072063446,0.0005768468254245818,-0.017701053991913795
1761506825737664000,3.4676640625,0.019502835348248482,-0.005756949074566364,0.002318725921213627
1761506825747636000,3.477635986328125,0.011246806010603905,-0.018649792298674583,0.014966525137424469
1761506825757608200,3.487608154296875,0.007853140123188496,-0.024508215487003326,0.016973216086626053
1761506825767580200,3.497580078125,0.004435881972312927,-0.024974791333079338,0.014052234590053558
1761506825777551000,3.507551025390625,0.00016417168080806732,-0.020081233233213425,0.005507749505341053
1761506825787523000,3.517523193359375,-0.005943980999290943,-0.0052328212186694145,-0.006401579827070236
1761506825797495000,3.5274951171875,-0.008668394759297371,0.003649353515356779,-0.018247587606310844
1761506825807467000,3.537467041015625,-0.013686703518033028,0.0010501367505639791,-0.028540348634123802
1761506825817439000,3.54743896484375,-0.01989400014281273,0.0069383857771754265,-0.02347208745777607
1761506825827410000,3.557409912109375,-0.01748163253068924,0.016454197466373444,-0.012488914653658867
1761506825837382100,3.567382080078125,-0.019500840455293655,0.014288780279457569,0.007996386848390102
1761506825847354000,3.57735400390625,-0.0201376024633646,0.01200298871845007,0.02358919382095337
1761506825857326000,3.587326171875,-0.01868484914302826,-0.004422323312610388,0.024343667551875114
1761506825867298000,3.597298095703125,-0.02397068962454796,-0.025274608284235,0.0173984095454216
1761506825877269000,3.60726904296875,-0.026044605299830437,-0.03574575111269951,-0.004730535671114922
1761506825887241200,3.6172412109375,-0.029172562062740326,-0.027750631794333458,-0.024511225521564484
1761506825897213000,3.627212890625,-0.03034169226884842,-0.012396442703902721,-0.04031122848391533
1761506825907185200,3.63718505859375,-0.025639265775680542,0.009202098473906517,-0.04606448858976364
1761506825917156000,3.647156005859375,-0.029666230082511902,0.023374909535050392,-0.03994214907288551
1761506825927128000,3.657128173828125,-0.026189064607024193,0.021798795089125633,-0.026863979175686836
1761506825937100300,3.667100341796875,-0.0250894445925951,0.007892301306128502,-0.012941770255565643
1761506825947072000,3.677072021484375,-0.01849842071533203,-0.002648430410772562,0.0019232502672821283
1761506825957044200,3.687044189453125,-0.014559606090188026,-0.017215654253959656,0.010383048094809055
1761506825967015000,3.697014892578125,-0.01370389387011528,-0.027573850005865097,0.011022353544831276
1761506825976987100,3.706987060546875,-0.009596234187483788,-0.020778262987732887,0.0029985159635543823
1761506825986959000,3.716958984375,-0.00864420086145401,-0.011372750625014305,-0.005844297353178263
1761506825996931000,3.72693115234375,-0.005913927685469389,-0.0034240144304931164,-0.013956818729639053
1761506826006902000,3.736902099609375,-0.0017574038356542587,-0.0018740377854555845,-0.024139398708939552
1761506826016874000,3.7468740234375,-0.0030141491442918777,-0.00006734929047524929,-0.026272857561707497
1761506826026846200,3.75684619140625,0.00001712935045361519,0.0010346506023779511,-0.024158712476491928
1761506826036818000,3.76681787109375,0.0047037601470947266,-0.0027742022648453712,-0.01671251468360424
1761506826046790100,3.7767900390625,0.008077142760157585,-0.01280166395008564,-0.006014681421220303
1761506826056761000,3.786760986328125,0.008735742419958115,-0.02410838194191456,0.006181797944009304
1761506826066733000,3.796733154296875,0.006245505064725876,-0.028849992901086807,0.011262509971857071
1761506826076705000,3.806705078125,0.008517181500792503,-0.029447073116898537,0.008268051780760288
1761506826086677000,3.816677001953125,0.012027796357870102,-0.02422482892870903,0.0010353524703532457
1761506826096648200,3.826648193359375,0.009342530742287636,-0.013833707198500633,-0.0016144928522408009
1761506826106620200,3.8366201171875,0.009811966679990292,-0.005233213771134615,-0.008894506841897964
1761506826116592000,3.846592041015625,0.0014456459321081638,0.002767721191048622,-0.01539634820073843
1761506826126564000,3.856564208984375,-0.0053367032669484615,0.006170372013002634,-0.019764494150877
1761506826136536000,3.8665361328125,-0.0031640962697565556,0.01477025169879198,-0.02007475309073925
1761506826146507000,3.876507080078125,-0.00275161350145936,0.014444001019001007,-0.01934915781021118
1761506826156479200,3.886479248046875,-0.0045172893442213535,0.011250871233642101,-0.019861284643411636
1761506826166451200,3.896451171875,-0.001983816269785166,0.015321852639317513,-0.007389528676867485
1761506826176423200,3.906423095703125,-0.003399553243070841,0.011691965162754059,0.003506262321025133
1761506826186394000,3.91639404296875,-0.008503880351781845,0.006209191400557756,0.015188009478151798
1761506826196366000,3.926365966796875,-0.011777171865105629,-0.0028173266910016537,0.01901550404727459
1761506826206338000,3.936338134765625,-0.010472144931554794,-0.015484579838812351,0.0030336373019963503
1761506826216310000,3.94631005859375,-0.011511577293276787,-0.02512282505631447,-0.01869402825832367
1761506826226282200,3.9562822265625,-0.01013442873954773,-0.019811173900961876,-0.04659968614578247
1761506826236253000,3.9662529296875,-0.006915731821209192,0.00007438322063535452,-0.05686537176370621
1761506826246225200,3.97622509765625,-0.007574551738798618,0.02276582270860672,-0.059075478464365005
1761506826256197000,3.986197021484375,-0.004050923511385918,0.03383738175034523,-0.047615896910429
1761506826266169000,3.996169189453125,-0.0021440694108605385,0.028940986841917038,-0.026415826752781868
1761506826276140300,4.006140380859375,0.004916236735880375,0.010926567949354649,-0.0006436178227886558
1761506826286112000,4.016112060546875,0.009927627630531788,-0.009166517294943333,0.022633854299783707
1761506826296084200,4.026084228515625,0.019910752773284912,-0.027261098846793175,0.03457227349281311
1761506826306056000,4.036055908203125,0.025325682014226913,-0.03360322117805481,0.028824344277381897
1761506826316028200,4.046028076171875,0.02860882692039013,-0.02669444866478443,0.014311447739601135
1761506826325999000,4.0559990234375,0.028814075514674187,-0.009981432929635048,-0.011265547946095467
1761506826335971000,4.06597119140625,0.018474353477358818,0.014550008811056614,-0.036650799214839935
1761506826345943300,4.075943359375,0.011723930016160011,0.04213928431272507,-0.04431907832622528
1761506826355915000,4.0859150390625,0.0030452203936874866,0.08003632724285126,-0.0441848561167717
1761506826365886200,4.09588623046875,-0.0006309682503342628,0.09905865788459778,-0.03655075654387474
1761506826375858200,4.105858154296875,-0.0021694768220186234,0.10620392113924026,-0.03187158331274986
1761506826385830100,4.115830078125,-0.0058327727019786835,0.11204893887042999,-0.027800552546977997
1761506826395802000,4.125802001953125,-0.02006736770272255,0.12772563099861145,-0.03449680656194687
1761506826405774000,4.135774169921875,-0.029254963621497154,0.12416592240333557,-0.049247439950704575
1761506826415745000,4.1457451171875,-0.021065743640065193,0.09085723012685776,-0.04821226745843887
1761506826425717000,4.155717041015625,-0.011025023646652699,0.05650682374835014,-0.024363035336136818
1761506826435689200,4.165689208984375,-0.010994396172463894,0.02404288947582245,-0.005099059082567692
1761506826445661200,4.1756611328125,-0.015800142660737038,-0.005345199257135391,0.011376493610441685
1761506826455632100,4.185632080078125,-0.015545543283224106,-0.02604381926357746,0.018625883385539055
1761506826465604000,4.19560400390625,-0.012429570779204369,-0.02194259688258171,0.012462059035897255
1761506826475576000,4.205576171875,-0.002666688524186611,-0.0008871130412444472,0.0026610936038196087
1761506826485548000,4.215548095703125,0.0036753956228494644,0.013756483793258667,-0.01147368922829628
1761506826495520000,4.22552001953125,0.007253618445247412,0.027405185624957085,-0.016149401664733887
1761506826505491000,4.235490966796875,0.008440060541033745,0.02788732945919037,-0.012318741530179977
1761506826515463200,4.245463134765625,0.008607572875916958,0.01282635610550642,-0.004211546387523413
1761506826525435100,4.25543505859375,0.009013211354613304,-0.012697744183242321,0.005860942881554365
1761506826535407000,4.265406982421875,0.013411154970526695,-0.032369982451200485,0.015612639486789703
1761506826545378300,4.27537841796875,0.019771357998251915,-0.041640959680080414,0.02532423846423626
1761506826555350000,4.28535009765625,0.02113010175526142,-0.036349523812532425,0.028618035838007927
1761506826565322200,4.295322265625,0.02065529301762581,-0.0276865903288126,0.032560259103775024
1761506826575294000,4.3052939453125,0.01777401939034462,-0.015182782895863056,0.02699531614780426
1761506826585266200,4.31526611328125,0.014630085788667202,-0.003265510778874159,0.016813959926366806
1761506826595237000,4.325237060546875,0.01555580087006092,0.0005814253818243742,0.010005321353673935
1761506826605209000,4.335208984375,0.009643427096307278,-0.0021938453428447247,0.0035218303091824055
1761506826615181300,4.345181396484375,0.0008230376988649368,-0.001558681600727141,0.0037782927975058556
1761506826625153000,4.355153076171875,0.001636024098843336,-0.0029680971056222916,0.014821060001850128
1761506826635124200,4.365124267578125,-0.002578428015112877,-0.003838151693344116,0.023751970380544662
1761506826645096000,4.375095947265625,-0.004550732206553221,-0.003307437291368842,0.027914170175790787
1761506826655068200,4.385068115234375,-0.0039304825477302074,-0.003648588201031089,0.025500014424324036
1761506826665040100,4.3950400390625,-0.008170723915100098,-0.0023728101514279842,0.015172360464930534
1761506826675012000,4.40501220703125,-0.011683966964483261,-0.003306248225271702,-0.0029725544154644012
1761506826684983000,4.414983154296875,-0.013285474851727486,0.007869946770370007,-0.015720929950475693
1761506826694955300,4.424955322265625,-0.00761187681928277,0.017952406778931618,-0.018337218090891838
1761506826704927500,4.434927490234375,-0.0017426544800400734,0.019120385870337486,-0.015527197159826756
1761506826714899200,4.444899169921875,-0.00035967491567134857,0.010247797705233097,-0.003561880672350526
1761506826724870400,4.454870361328125,0.008022591471672058,-0.007748721167445183,0.008011474274098873
1761506826734842400,4.46484228515625,0.012351293116807938,-0.023871231824159622,0.018281955271959305
1761506826744814300,4.474814453125,0.016018155962228775,-0.04083169996738434,0.01882329024374485
1761506826754786300,4.484786376953125,0.008160233497619629,-0.04926300421357155,0.007776232436299324
1761506826764758300,4.49475830078125,0.004604465328156948,-0.04799279570579529,-0.012280632741749287
1761506826774729200,4.504729248046875,-0.0015080217272043228,-0.03787917643785477,-0.02779780700802803
1761506826784701400,4.514701416015625,0.001925355289131403,-0.02171342819929123,-0.04450810328125954
1761506826794673400,4.52467333984375,0.0036857048980891705,-0.007229827344417572,-0.055387914180755615
1761506826804645400,4.534645263671875,0.004528403282165527,0.0020286107901483774,-0.05539983510971069
1761506826814616300,4.5446162109375,0.005747598595917225,0.004425722174346447,-0.046682510524988174
1761506826824588300,4.55458837890625,0.0032855505123734474,0.003017569426447153,-0.0326656773686409
1761506826834560500,4.564560546875,0.001290842890739441,0.00400959700345993,-0.010135333985090256
1761506826844532200,4.5745322265625,0.0007741511799395084,0.00345229497179389,0.011188715696334839
1761506826854504400,4.58450439453125,0.0038892505690455437,0.0075490353628993034,0.02907450497150421
1761506826864475100,4.59447509765625,0.010760732926428318,0.007624711375683546,0.04655475914478302
1761506826874447400,4.604447265625,0.015024453401565552,0.000516468018759042,0.05066481605172157
1761506826884419300,4.61441943359375,0.01085486076772213,-0.004983941558748484,0.043027013540267944
1761506826894391300,4.624391357421875,0.00950596947222948,-0.005602593999356031,0.029621992260217667
1761506826904362500,4.634362548828125,0.008163088001310825,-0.004829983226954937,0.012738173827528954
1761506826914334200,4.644334228515625,0.009519968181848526,0.008733229711651802,-0.0008924173889681697
1761506826924306400,4.654306396484375,0.015452008694410324,0.023021595552563667,-0.006874233018606901
1761506826934278100,4.664278076171875,0.019904015585780144,0.026926854625344276,0.0024851802736520767
1761506826944250400,4.67425048828125,0.020080773159861565,0.01942918635904789,0.01826198399066925
1761506826954221300,4.68422119140625,0.01836889237165451,0.0008379247738048434,0.026840558275580406
1761506826964193300,4.694193359375,0.016010966151952744,-0.022228989750146866,0.023062510415911674
1761506826974165500,4.70416552734375,0.013006653636693954,-0.034316010773181915,0.010499847121536732
1761506826984137200,4.71413720703125,0.016554247587919235,-0.032059356570243835,-0.004611697047948837
1761506826994108400,4.7241083984375,0.014597889967262745,-0.016232457011938095,-0.02605121023952961
1761506827004080400,4.734080322265625,0.014009946025907993,0.004219845402985811,-0.036343563348054886
1761506827014052400,4.74405224609375,0.017235299572348595,0.022033197805285454,-0.029475001618266106
1761506827024024300,4.7540244140625,0.019183289259672165,0.032079048454761505,-0.018544532358646393
1761506827033996300,4.763996337890625,0.01844293251633644,0.02519264630973339,-0.0019727456383407116
1761506827043967200,4.77396728515625,0.014251986518502235,0.012982429936528206,0.016991183161735535
1761506827053939500,4.783939453125,0.014381948858499527,-0.00009502260945737362,0.02413031831383705
1761506827063911400,4.793911376953125,0.011834368109703064,-0.00980091281235218,0.0207584910094738
1761506827073883400,4.80388330078125,0.012734251096844673,-0.008337239734828472,0.011416921392083168
1761506827083854300,4.813854248046875,0.02090410701930523,0.004848140757530928,-0.0018144329078495502
1761506827093826300,4.823826416015625,0.02625865675508976,0.011054105125367641,-0.011415661312639713
1761506827103798300,4.83379833984375,0.027084313333034515,0.01010049693286419,-0.014672944322228432
1761506827113770200,4.843770263671875,0.025147665292024612,0.0017767869867384434,-0.01081375777721405
1761506827123742500,4.853742431640625,0.018712330609560013,-0.005798683501780033,-0.008729660883545876
1761506827133713200,4.863713134765625,0.02073606662452221,-0.006212005857378244,-0.0011380532523617148
1761506827143685400,4.873685302734375,0.023730939254164696,-0.006745790597051382,-0.0034231902100145817
1761506827153657300,4.8836572265625,0.031549714505672455,-0.005728463176637888,-0.002112115966156125
1761506827163629300,4.89362939453125,0.03427443280816078,-0.011585918255150318,-0.003904275828972459
1761506827173600500,4.9036005859375,0.03486086055636406,-0.01111480500549078,-0.008195693604648113
1761506827183572200,4.913572265625,0.031510114669799805,-0.015351494774222374,-0.01073786336928606
1761506827193544400,4.92354443359375,0.027309244498610497,-0.014611668884754181,-0.012403137981891632
1761506827203516200,4.93351611328125,0.025879882276058197,-0.013438945636153221,-0.019237693399190903
1761506827213488400,4.94348828125,0.02794729545712471,-0.004352772608399391,-0.017781473696231842
1761506827223459300,4.953459228515625,0.03163135424256325,-0.0016195550560951233,-0.021545348688960075
1761506827233431300,4.963431396484375,0.03379810228943825,-0.003968995995819569,-0.022867873311042786
1761506827243403500,4.973403564453125,0.02774394303560257,-0.009359275922179222,-0.024208305403590202
1761506827253375200,4.983375244140625,0.023218702524900436,-0.008476704359054565,-0.022466331720352173
1761506827263346400,4.993346435546875,0.024841781705617905,-0.004577543120831251,-0.015053599141538143
1761506827273318400,5.003318359375,0.02402552217245102,-0.0016392775578424335,-0.007176768034696579
1761506827283290400,5.013290283203125,0.025962218642234802,-0.005203252658247948,-0.00021677964832633734
1761506827293262300,5.023262451171875,0.02185242809355259,-0.004542522598057985,0.005382782779633999
1761506827303234300,5.033234375,0.019752025604248047,-0.00307198753580451,0.0035584631841629744
1761506827313205200,5.043205322265625,0.015618533827364445,-0.005028878338634968,-0.0038903981912881136
1761506827323177200,5.05317724609375,0.009995297528803349,-0.012247114442288876,-0.012352323159575462
1761506827333149400,5.0631494140625,0.007099376060068607,-0.01621282659471035,-0.022188441827893257
1761506827343121400,5.073121337890625,0.0038155196234583855,-0.023746401071548462,-0.029381200671195984
1761506827353092400,5.08309228515625,0.008253145031630993,-0.025917142629623413,-0.030529554933309555
1761506827363064300,5.093064208984375,0.008798288181424141,-0.02225685305893421,-0.03190421685576439
1761506827373036300,5.103036376953125,0.006967364810407162,-0.0160458292812109,-0.02596190571784973
1761506827383008300,5.11300830078125,0.008523035794496536,-0.013035840354859829,-0.021224528551101685
1761506827392980200,5.122980224609375,0.00705696502700448,-0.01072235219180584,-0.016697155311703682
1761506827402951200,5.132951171875,0.002798875328153372,-0.012516089715063572,-0.01572228968143463
1761506827412923400,5.14292333984375,0.0028918199241161346,-0.015594969503581524,-0.015188327059149742
1761506827422895400,5.152895263671875,0.001112369354814291,-0.01435291487723589,-0.01469371747225523
1761506827432867300,5.162867431640625,0.00214407779276371,-0.011513185687363148,-0.016962196677923203
1761506827442838500,5.172838623046875,0.004157473798841238,0.0003160260384902358,-0.0236235111951828
1761506827452810200,5.182810302734375,0.00596256460994482,0.006533707957714796,-0.019796015694737434
1761506827462782500,5.192782470703125,0.009983970783650875,0.007432193495333195,-0.021663479506969452
1761506827472754200,5.202754150390625,0.011782404035329819,-0.0020878082141280174,-0.026692325249314308
1761506827482725400,5.212725341796875,0.016006246209144592,-0.006585621275007725,-0.02266284078359604
1761506827492697300,5.222697265625,0.025477513670921326,-0.014412918128073215,-0.016983382403850555
1761506827502669300,5.23266943359375,0.026333417743444443,-0.01361711136996746,-0.008580787107348442
1761506827512641500,5.2426416015625,0.028865817934274673,-0.010949955321848392,0.001188753405585885
1761506827522613200,5.25261328125,0.03307049721479416,-0.012082678265869617,0.005880974233150482
1761506827532584400,5.26258447265625,0.03211548924446106,-0.01627902127802372,0.002941376995295286
1761506827542556200,5.27255615234375,0.03451045975089073,-0.02404726669192314,-0.006370272021740675
1761506827552528400,5.2825283203125,0.038512393832206726,-0.025712009519338608,-0.01947089470922947
1761506827562500400,5.292500244140625,0.03680325299501419,-0.014798572286963463,-0.02338011935353279
1761506827572471300,5.30247119140625,0.03203938901424408,-0.0031158174388110638,-0.021882889792323112
1761506827582443300,5.312443359375,0.0324389822781086,0.0069062733091413975,-0.014201920479536057
1761506827592415200,5.322415283203125,0.03257959708571434,0.010560663416981697,-0.007548012770712376
1761506827602387500,5.332387451171875,0.0287432000041008,0.009542412124574184,-0.0006466389750130475
1761506827612359200,5.342359130859375,0.034079376608133316,0.0012631765566766262,0.0037750075571238995
1761506827622330400,5.352330322265625,0.031986817717552185,-0.010834356769919395,0.007722136098891497
1761506827632302300,5.36230224609375,0.029270660132169724,-0.007437229156494141,0.011387178674340248
1761506827642274300,5.3722744140625,0.024990078061819077,-0.0007159734377637506,0.01936311274766922
1761506827652246300,5.382246337890625,0.01838544011116028,0.0013916522730141878,0.019450198858976364
1761506827662218200,5.39221826171875,0.011927083134651184,0.005057452712208033,0.02191421575844288
1761506827672189200,5.402189208984375,0.008724631741642952,-0.005435135681182146,0.013308743014931679
1761506827682161400,5.412161376953125,0.002395788673311472,-0.007732014171779156,0.0023181394208222628
1761506827692133400,5.42213330078125,0.001272466965019703,0.0007671982748433948,-0.012285304255783558
1761506827702105900,5.43210595703125,-0.0016106385737657547,0.01409919187426567,-0.01758691482245922
1761506827712076500,5.44207666015625,-0.0024948082864284515,0.026595542207360268,-0.01746547408401966
1761506827722048800,5.452048828125,-0.00444255955517292,0.03276490420103073,-0.0032511854078620672
1761506827732020700,5.462020751953125,-0.003857995383441448,0.029466576874256134,0.012970928102731705
1761506827741992700,5.47199267578125,0.0005154428072273731,0.010963767766952515,0.029868217185139656
1761506827751963600,5.481963623046875,-0.0041642640717327595,-0.008267451077699661,0.04091394320130348
1761506827761935600,5.491935546875,-0.005861238110810518,-0.02117692120373249,0.04331221431493759
1761506827771907800,5.501907958984375,-0.003483035136014223,-0.021333782002329826,0.038333967328071594
1761506827781879600,5.511879638671875,0.002966884523630142,-0.013498317450284958,0.022807613015174866
1761506827791851800,5.521851806640625,0.011878354474902153,0.004930225200951099,0.004807306453585625
1761506827801822700,5.53182275390625,0.012090449221432209,0.00536368740722537,-0.01173171866685152
1761506827811794700,5.541794677734375,0.010837165638804436,0.004693902563303709,-0.028628943488001823
1761506827821766700,5.5517666015625,0.006808607839047909,0.0036317920312285423,-0.034381430596113205
1761506827831738600,5.561738525390625,0.00904326606541872,-0.001768832327798009,-0.03819321468472481
1761506827841709600,5.57170947265625,0.009337084367871284,0.0049040955491364,-0.03418852761387825
1761506827851681800,5.581681884765625,0.014264198020100594,0.009797121398150921,-0.026408102363348007
1761506827861653800,5.59165380859375,0.016085723415017128,0.006166364066302776,-0.011259273625910282
1761506827871625700,5.601625732421875,0.012977281585335732,-0.008253321051597595,0.0005675585707649589
1761506827881597700,5.61159765625,0.01407325454056263,-0.020504899322986603,0.002627480076625943
1761506827891568600,5.621568603515625,0.014049286022782326,-0.03535042330622673,0.004852018319070339
1761506827901540900,5.631540771484375,0.015199813060462475,-0.043167583644390106,-0.001212682924233377
1761506827911512600,5.6415126953125,0.016539117321372032,-0.03301294893026352,-0.012016594409942627
1761506827921484800,5.65148486328125,0.01581903174519539,-0.019837554544210434,-0.015397531911730766
1761506827931455500,5.66145556640625,0.02285750024020672,-0.002671350259333849,-0.01175432838499546
1761506827941427700,5.671427734375,0.024752944707870483,0.005063491873443127,-0.002219618298113346
1761506827951399700,5.681399658203125,0.026934340596199036,-0.0004820082103833556,0.006910496857017279
1761506827961371600,5.69137158203125,0.024153538048267365,-0.009646736085414886,0.022476261481642723
1761506827971344000,5.70134375,0.017425328493118286,-0.017562715336680412,0.03158240765333176
1761506827981314600,5.711314453125,0.015971627086400986,-0.02459540404379368,0.03187200799584389
1761506827991286800,5.721286865234375,0.014323930256068707,-0.025157064199447632,0.029402460902929306
1761506828001258500,5.731258544921875,0.0177402775734663,-0.01579059660434723,0.01753123849630356
1761506828011230700,5.741230712890625,0.015194294974207878,-0.006791776046156883,0.009642156772315502
1761506828021201700,5.75120166015625,0.014744747430086136,-0.005056688096374273,0.001729968236759305
1761506828031173600,5.761173583984375,0.009135597385466099,-0.007257257588207722,-0.0041596125811338425
1761506828041145900,5.771145751953125,0.005306472070515156,-0.015280238352715969,-0.006192614324390888
1761506828051117600,5.78111767578125,-0.0005721896886825562,-0.019661936908960342,-0.010158592835068703
1761506828061089800,5.79108984375,-0.005051478277891874,-0.01493065245449543,-0.008765905164182186
1761506828071060700,5.801060791015625,-0.0076461960561573505,-0.008346518501639366,0.0007170785684138536
1761506828081032700,5.81103271484375,-0.006174302194267511,-0.0034013499971479177,0.004177677445113659
1761506828091004700,5.821004638671875,-0.011238303035497665,-0.009728221222758293,0.004084200132638216
1761506828100976600,5.8309765625,-0.014269404113292694,-0.016334977000951767,0.00010541093070060015
1761506828110947600,5.840947509765625,-0.01298602670431137,-0.016206081956624985,-0.005473112687468529
1761506828120919800,5.850919921875,-0.009006956592202187,-0.008421115577220917,-0.012828648090362549
1761506828130891800,5.860891845703125,-0.006398123223334551,-0.00294778635725379,-0.01843060553073883
1761506828140863700,5.87086376953125,-0.011399845592677593,0.0034950305707752705,-0.024953100830316544
1761506828150835700,5.880835693359375,-0.015706177800893784,0.012128998525440693,-0.016460280865430832
1761506828160806700,5.890806640625,-0.012063311412930489,0.014857451431453228,-0.009805101901292801
1761506828170778600,5.900778564453125,-0.008691750466823578,0.016742436215281487,-0.0051546902395784855
1761506828180750600,5.91075048828125,-0.0026806555688381195,0.015607086941599846,0.0004859452601522207
1761506828190722800,5.920722900390625,0.006159441079944372,0.011982524767518044,0.011796390637755394
1761506828200693500,5.930693603515625,0.009121518582105637,0.005740622989833355,0.019668135792016983
1761506828210665700,5.940665771484375,0.014008685946464539,0.0006396044627763331,0.023065263405442238
1761506828220637700,5.9506376953125,0.019574809819459915,-0.002024805173277855,0.017211247235536575
1761506828230609700,5.960609619140625,0.020345529541373253,-0.0037976717576384544,0.0179675854742527
1761506828240581600,5.97058154296875,0.02677873894572258,-0.0005180700682103634,0.008900851011276245
1761506828250552600,5.980552490234375,0.029481317847967148,0.015962636098265648,0.0024789045564830303
1761506828260524800,5.99052490234375,0.03378821909427643,0.02789684757590294,0.002299320651218295
1761506828270496500,6.00049658203125,0.037670306861400604,0.03300878405570984,0.005827742628753185
1761506828280468700,6.01046875,0.04507321119308472,0.035211723297834396,0.011402182281017303
1761506828290439700,6.020439697265625,0.05548137426376343,0.02681264653801918,0.02624504454433918
1761506828300411600,6.03041162109375,0.06069839745759964,0.006830444093793631,0.03869221732020378
1761506828310383900,6.0403837890625,0.06448248028755188,-0.023327190428972244,0.05420513078570366
1761506828320355600,6.05035546875,0.05906333029270172,-0.051984697580337524,0.06319720298051834
1761506828330327800,6.060327880859375,0.047048479318618774,-0.059873778373003006,0.056186165660619736
1761506828340298800,6.070298828125,0.03336694836616516,-0.04010455682873726,0.044302280992269516
1761506828350270700,6.080270751953125,0.026878686621785164,-0.0068672411143779755,0.03375856205821037
1761506828360242700,6.09024267578125,0.027723737061023712,0.03172365576028824,0.017379028722643852
1761506828370214700,6.100214599609375,0.02596791461110115,0.051797766238451004,0.008889936842024326
1761506828380185600,6.110185546875,0.019174309447407722,0.05728955194354057,-0.001640322501771152
1761506828390157800,6.12015771484375,0.014963053166866302,0.04829472675919533,0.004651129245758057
1761506828400129800,6.1301298828125,0.011509621515870094,0.027060268446803093,0.017991196364164352
1761506828410101800,6.140101806640625,0.012522421777248383,0.0055749500170350075,0.028407085686922073
1761506828420072700,6.15007275390625,0.018708448857069016,-0.00854347925633192,0.033977799117565155
1761506828430044700,6.160044677734375,0.027851613238453865,-0.013510008342564106,0.03844445198774338
1761506828440016600,6.1700166015625,0.03487258404493332,-0.01326865516602993,0.039338238537311554
1761506828449988900,6.17998876953125,0.030939625576138496,-0.014054553583264351,0.034777574241161346
1761506828459960600,6.189960693359375,0.018377041444182396,-0.011341137811541557,0.018642809242010117
1761506828469931800,6.199931884765625,0.014799084514379501,-0.009147757664322853,0.0015240099746733904
1761506828479903700,6.20990380859375,0.011246987618505955,-0.00719807855784893,-0.015505831688642502
1761506828489875700,6.219875732421875,0.017044689506292343,-0.004593773745000362,-0.02841896563768387
1761506828499847700,6.22984765625,0.018226105719804764,-0.008470901288092136,-0.03204125165939331
1761506828509819000,6.23981884765625,0.022704478353261948,-0.007758772000670433,-0.02835889905691147
1761506828519790600,6.24979052734375,0.025098813697695732,-0.010921670123934746,-0.015451829880475998
1761506828529762800,6.2597626953125,0.025229841470718384,-0.022807622328400612,0.00211438094265759
1761506828539734800,6.26973486328125,0.0203685499727726,-0.03879284858703613,0.012718640267848969
1761506828549706800,6.279706787109375,0.01657887175679207,-0.04529202729463577,0.02669357694685459
1761506828559678000,6.289677978515625,0.014542732387781143,-0.039165839552879333,0.024221574887633324
1761506828569649700,6.299649658203125,0.009899244643747807,-0.025441501289606094,0.020297672599554062
1761506828579622000,6.309621826171875,0.004184325225651264,-0.005442776717245579,0.014810911379754543
1761506828589593600,6.319593505859375,0.0017485981807112694,0.00747089134529233,0.01693904399871826
1761506828599564800,6.329564697265625,-0.008397053927183151,0.018485236912965775,0.01278019044548273
1761506828609536800,6.339536865234375,-0.01638893410563469,0.019498836249113083,0.01568463444709778
1761506828619508700,6.3495087890625,-0.024108635261654854,0.011980313807725906,0.019032994285225868
1761506828629481000,6.35948095703125,-0.025809599086642265,0.009745122864842415,0.021532904356718063
1761506828639452700,6.36945263671875,-0.01892285980284214,0.006348524242639542,0.02915872260928154
1761506828649424000,6.379423828125,-0.014068450778722763,0.008234042674303055,0.03516734763979912
1761506828659395600,6.3893955078125,-0.01389302872121334,0.008358660154044628,0.040403418242931366
1761506828669367800,6.399367919921875,-0.017656074836850166,-0.0020676148124039173,0.04927840083837509
1761506828679339500,6.409339599609375,-0.027362151071429253,-0.007459699176251888,0.04404472932219505
1761506828689310700,6.419310791015625,-0.02856243960559368,-0.006787517108023167,0.037379637360572815
1761506828699283000,6.429282958984375,-0.023714981973171234,-0.0016860613832250237,0.022564493119716644
1761506828709255000,6.4392548828125,-0.02033170312643051,-0.0012623524526134133,0.0033615049906075
1761506828719227100,6.44922705078125,-0.021996067836880684,-0.0028927293606102467,-0.011232910677790642
1761506828729198800,6.45919873046875,-0.021506845951080322,0.003707915311679244,-0.014516588300466537
1761506828739170000,6.469170166015625,-0.021765094250440598,0.006235173903405666,-0.009806256741285324
1761506828749142000,6.47914208984375,-0.026685815304517746,0.005479368846863508,-0.0044485097751021385
1761506828759114000,6.489114013671875,-0.027259239926934242,0.007857176475226879,0.006784619297832251
1761506828769086000,6.4990859375,-0.024087944999337196,0.009410864673554897,0.0211651548743248
1761506828779057200,6.50905712890625,-0.016227081418037415,0.006082640960812569,0.029957186430692673
1761506828789028900,6.51902880859375,-0.009914591908454895,-0.00016620010137557983,0.026242878288030624
1761506828799001000,6.5290009765625,-0.008939850144088268,-0.01741509884595871,0.02060660347342491
1761506828808973000,6.53897314453125,-0.012149491347372532,-0.024551304057240486,0.009778190404176712
1761506828818945000,6.548945068359375,-0.01796199381351471,-0.018554270267486572,-0.005025848746299744
1761506828828916000,6.558916015625,-0.021115176379680634,-0.004504764918237925,-0.011615840718150139
1761506828838888000,6.568887939453125,-0.02549964003264904,0.010840695351362228,-0.011958390474319458
1761506828848860000,6.57885986328125,-0.025610430166125298,0.014894559048116207,-0.0038312217220664024
1761506828858832000,6.588831787109375,-0.03002816252410412,0.015497196465730667,0.006150074768811464
1761506828868803000,6.598802978515625,-0.02966277487576008,0.005920735653489828,0.017014440149068832
1761506828878774800,6.60877490234375,-0.030607137829065323,-0.003619351889938116,0.02665591426193714
1761506828888747000,6.6187470703125,-0.031760819256305695,-0.007046040613204241,0.02369181625545025
1761506828898719000,6.628718994140625,-0.034779664129018784,-0.004939353093504906,0.018652789294719696
1761506828908691000,6.63869091796875,-0.03782925009727478,0.008286703377962112,0.008132770657539368
1761506828918662100,6.648662109375,-0.03800249844789505,0.015769051387906075,0.0041173710487782955
1761506828928633900,6.6586337890625,-0.03649142384529114,0.021111352369189262,-0.001220935257151723
1761506828938606000,6.668606201171875,-0.034213773906230927,0.02012249454855919,0.000009887851774692535
1761506828948577800,6.678577880859375,-0.03310856223106384,0.017131496220827103,0.008111489936709404
1761506828958549000,6.688549072265625,-0.033093810081481934,0.008180670440196991,0.018993467092514038
1761506828968521000,6.69852099609375,-0.03414282947778702,0.004992067348212004,0.027170170098543167
1761506828978493000,6.708492919921875,-0.03322163596749306,-0.0015756002394482493,0.026058506220579147
1761506828988465200,6.718465087890625,-0.03198246657848358,-0.0034480690956115723,0.0234997421503067
1761506828998436900,6.728436767578125,-0.030270583927631378,-0.0032475702464580536,0.014138665981590748
1761506829008408000,6.738407958984375,-0.027240704745054245,0.0033557377755641937,0.006797929294407368
1761506829018380000,6.748380126953125,-0.028764687478542328,0.016502387821674347,0.009727856144309044
1761506829028352000,6.75835205078125,-0.031271252781152725,0.02501092106103897,0.01373271830379963
1761506829038324000,6.768323974609375,-0.03445388004183769,0.018394002690911293,0.017873844131827354
1761506829048295000,6.778294921875,-0.03811146691441536,0.0055841971188783646,0.011639118194580078
1761506829058267000,6.788266845703125,-0.04303644970059395,-0.014685921370983124,0.0023982154671102762
1761506829068238800,6.79823876953125,-0.04570174217224121,-0.026851773262023926,-0.008662158623337746
1761506829078211000,6.808211181640625,-0.046271733939647675,-0.03258924558758736,-0.017541198059916496
1761506829088182000,6.81818212890625,-0.04770638048648834,-0.03319165110588074,-0.015669262036681175
1761506829098154000,6.828154052734375,-0.04329674690961838,-0.029441745951771736,-0.01607270911335945
1761506829108126000,6.8381259765625,-0.04025594890117645,-0.03115602396428585,-0.01659841649234295
1761506829118098000,6.848097900390625,-0.03924722224473953,-0.024370891973376274,-0.007271255366504192
1761506829128070000,6.85806982421875,-0.04523453861474991,-0.01369587890803814,-0.0032112665940076113
1761506829138041000,6.868041015625,-0.04977348446846008,-0.008160168305039406,-0.0076982732862234116
1761506829148012800,6.8780126953125,-0.05084594339132309,0.00012625777162611485,-0.018740272149443626
1761506829157985000,6.887985107421875,-0.04069587588310242,-0.00103169702924788,-0.027192996814846992
1761506829167957000,6.89795703125,-0.030996643006801605,-0.003188058268278837,-0.036221910268068314
1761506829177928000,6.907927978515625,-0.02646728977560997,-0.00806528888642788,-0.038550965487957
1761506829187900200,6.917900146484375,-0.023497598245739937,-0.013327695429325104,-0.038810890167951584
1761506829197871900,6.927871826171875,-0.015683922916650772,-0.01835218258202076,-0.03006521612405777
1761506829207844000,6.937843994140625,-0.005269629880785942,-0.01859959028661251,-0.027692340314388275
1761506829217815800,6.94781591796875,0.00491293566301465,-0.02151770517230034,-0.03361252695322037
1761506829227787000,6.957787109375,0.018752850592136383,-0.015557550825178623,-0.03814256191253662
1761506829237759000,6.967759033203125,0.03286375477910042,-0.007859202101826668,-0.04260530322790146
1761506829247731000,6.97773095703125,0.040124330669641495,-0.009274406358599663,-0.03928913176059723
1761506829257703200,6.987703125,0.04628601670265198,-0.018541252240538597,-0.0316464826464653
1761506829267673900,6.997673828125,0.05132071673870087,-0.035437680780887604,-0.0253829974681139
1761506829277646000,7.00764599609375,0.05364249646663666,-0.053709037601947784,-0.01742396131157875
1761506829287618000,7.0176181640625,0.05396208167076111,-0.06858359277248383,-0.01656855270266533
1761506829297590000,7.027590087890625,0.0577898807823658,-0.07348097115755081,-0.01401097234338522
1761506829307562000,7.03756201171875,0.05320711061358452,-0.06632186472415924,-0.018045660108327866
1761506829317533000,7.047532958984375,0.04692920669913292,-0.05297575518488884,-0.022326605394482613
1761506829327505000,7.0575048828125,0.03509438410401344,-0.03362496197223663,-0.03001515194773674
1761506829337476900,7.067476806640625,0.025947794318199158,-0.010199209675192833,-0.028159283101558685
1761506829347449000,7.077448974609375,0.015274642035365105,0.008781671524047852,-0.023158930242061615
1761506829357420000,7.087419921875,0.006459041498601437,0.018320627510547638,-0.009630543179810047
1761506829367392000,7.09739208984375,0.0002323049120604992,0.00755772739648819,0.004475155845284462
1761506829377364000,7.107364013671875,-0.005475494544953108,-0.0045067863538861275,0.020506644621491432
1761506829387336000,7.1173359375,-0.013916917145252228,-0.01222942117601633,0.025502203032374382
1761506829397308000,7.127307861328125,-0.01720496453344822,-0.006807239726185799,0.037192441523075104
1761506829407279000,7.137279052734375,-0.022129150107502937,0.005599362775683403,0.035272568464279175
1761506829417250800,7.147250732421875,-0.019711116328835487,0.01277782954275608,0.02855619601905346
1761506829427223000,7.15722314453125,-0.022160958498716354,0.017193084582686424,0.02092277817428112
1761506829437195000,7.167195068359375,-0.022492939606308937,0.017111297696828842,0.011064199730753899
1761506829447166000,7.177166015625,-0.018684620037674904,0.008109811693429947,0.0017252929974347353
1761506829457138200,7.18713818359375,-0.017560534179210663,0.001551189343445003,-0.00007465016096830368
1761506829467110000,7.19710986328125,-0.016329355537891388,-0.0013718962436541915,-0.002509312005713582
1761506829477082000,7.20708203125,-0.011707860976457596,-0.0047153690829873085,0.004167440813034773
1761506829487053800,7.2170537109375,-0.00944497250020504,-0.004549986682832241,0.014613956212997437
1761506829497025000,7.22702490234375,-0.0022061984054744244,-0.011842196807265282,0.027003958821296692
1761506829506997000,7.2369970703125,-0.0012495904229581356,-0.015533072873950005,0.02886257879436016
1761506829516969000,7.246968994140625,0.0026042694225907326,-0.023245053365826607,0.029267113655805588
1761506829526941200,7.256941162109375,0.0002961079590022564,-0.024609923362731934,0.023157289251685143
1761506829536912000,7.266911865234375,-0.0033343490213155746,-0.021050667390227318,0.015698395669460297
1761506829546884000,7.276884033203125,-0.00354900024831295,-0.0139597337692976,0.0035653002560138702
1761506829556855800,7.286855712890625,-0.0055070300586521626,-0.004806140437722206,-0.001504886313341558
1761506829566828000,7.296828125,-0.000784712377935648,0.003994541708379984,-0.0007592012407258153
1761506829576799700,7.3067998046875,-0.001346450299024582,0.0034730243496596813,0.005435282364487648
1761506829586771000,7.31677099609375,-0.007643494755029678,0.004698610864579678,0.013143002986907959
1761506829596743000,7.326742919921875,-0.005756299011409283,-0.00410667946562171,0.01964244619011879
1761506829606715000,7.33671484375,-0.006739005446434021,-0.008855627849698067,0.022693894803524017
1761506829616687000,7.34668701171875,-0.0028316201642155647,-0.0113656185567379,0.016588129103183746
1761506829626658000,7.356657958984375,-0.00042252521961927414,-0.011232727207243443,0.010217580944299698
1761506829636630000,7.366630126953125,0.005728160031139851,-0.00579857500270009,0.008030770346522331
1761506829646602000,7.37660205078125,0.0060469405725598335,-0.0004355009878054261,0.010101377964019775
1761506829656574000,7.386573974609375,-0.0009657726623117924,0.0021104111801832914,0.013007656671106815
1761506829666545000,7.396544921875,-0.007705167401582003,-0.0025405334308743477,0.0073271337896585464
1761506829676517000,7.40651708984375,-0.015146274119615555,-0.00514446385204792,0.0016468497924506664
1761506829686488800,7.41648876953125,-0.011945154517889023,0.00006920658051967621,-0.0013699789997190237
1761506829696461000,7.4264609375,-0.009319119155406952,0.005428373347967863,-0.009710468351840973
1761506829706432000,7.436431884765625,-0.012032881379127502,0.01223035342991352,-0.006616141181439161
1761506829716403200,7.4464033203125,-0.01024441048502922,0.016669413074851036,-0.0036075736861675978
1761506829726375400,7.45637548828125,-0.012936066836118698,0.01880207099020481,0.0007275198586285114
1761506829736347100,7.46634716796875,-0.011183486320078373,0.02077603153884411,0.010033350437879562
1761506829746319400,7.4763193359375,-0.0016927793622016907,0.02077443338930607,0.014668315649032593
1761506829756290300,7.486290283203125,0.004246832802891731,0.014862957410514355,0.02262459695339203
1761506829766262300,7.49626220703125,0.016300033777952194,0.009474317543208599,0.018924402073025703
1761506829776234200,7.506234130859375,0.020053641870617867,0.001671973499469459,0.015018463134765625
1761506829786206200,7.516206298828125,0.02633071132004261,-0.002136346884071827,0.010205598548054695
1761506829796178400,7.526178466796875,0.02767770364880562,-0.0009931100066751242,0.0030146182980388403
1761506829806149000,7.536149169921875,0.031455930322408676,0.0024508899077773094,-0.001355362473987043
1761506829816121300,7.546121337890625,0.041218165308237076,0.006068822927772999,-0.000030350638553500175
1761506829826093300,7.55609326171875,0.04172123596072197,0.005287984386086464,0.0034053935669362545
1761506829836065300,7.566065185546875,0.041760265827178955,-0.000739626120775938,0.0006621903739869595
1761506829846037200,7.576037353515625,0.046280451118946075,0.0016209997702389956,0.003636941546574235
1761506829856008200,7.58600830078125,0.0498516820371151,0.005606791935861111,0.013440150767564774
1761506829865980200,7.595980224609375,0.05623607710003853,0.005030750297009945,0.02117450349032879
1761506829875952000,7.6059521484375,0.05411817878484726,-0.005452125333249569,0.027683477848768234
1761506829885924400,7.61592431640625,0.05176820605993271,-0.024539265781641006,0.02904408797621727
1761506829895895300,7.625895263671875,0.03956970199942589,-0.04033350199460983,0.016744013875722885
1761506829905867300,7.6358671875,0.03260207548737526,-0.04450907185673714,0.002828997327014804
1761506829915839200,7.645839111328125,0.022357424721121788,-0.031100964173674583,-0.01691511645913124
1761506829925811200,7.655811279296875,0.01762179285287857,-0.00808832235634327,-0.033439766615629196
1761506829935782100,7.6657822265625,0.015028141438961029,0.011685222387313843,-0.04458592087030411
1761506829945754400,7.67575439453125,0.006315344013273716,0.022036131471395493,-0.04259787127375603
1761506829955726000,7.68572607421875,-0.002989244181662798,0.01664610020816326,-0.03928827494382858
1761506829965698300,7.6956982421875,-0.0063387020491063595,0.00917060673236847,-0.020039744675159454
1761506829975670300,7.705670166015625,-0.012166110798716545,-0.0033567065838724375,-0.013766554184257984
1761506829985641200,7.71564111328125,-0.012342678382992744,-0.008574637584388256,-0.0007783179171383381
1761506829995613400,7.725613525390625,-0.014787580817937851,-0.008667511865496635,-0.002650102134793997
1761506830005585200,7.735585205078125,-0.016209175810217857,-0.004337478894740343,0.0005691269179806113
1761506830015557400,7.745557373046875,-0.016825810074806213,0.005842593032866716,-0.0006614609737880528
1761506830025528300,7.7555283203125,-0.019346758723258972,0.014205185696482658,-0.005770469084382057
1761506830035500300,7.765500244140625,-0.017570234835147858,0.018470125272870064,-0.01053415797650814
1761506830045472300,7.77547216796875,-0.018388891592621803,0.017626170068979263,-0.016322804614901543
1761506830055444200,7.7854443359375,-0.017024140805006027,0.016431014984846115,-0.020774126052856445
1761506830065416400,7.79541650390625,-0.017081666737794876,0.013064779341220856,-0.021373869851231575
1761506830075387100,7.80538720703125,-0.013954393565654755,0.011286783963441849,-0.021981365978717804
1761506830085359400,7.815359375,-0.015056408941745758,0.01087346114218235,-0.031313348561525345
1761506830095331000,7.8253310546875,-0.009917914867401123,0.01334677916020155,-0.03643706440925598
1761506830105303300,7.83530322265625,-0.010484367609024048,0.007054528221487999,-0.042221713811159134
1761506830115274200,7.845274169921875,-0.010935166850686073,0.0014368164120242,-0.04425870627164841
1761506830125246200,7.85524609375,-0.013542668893933296,0.005471505224704742,-0.04829233139753342
1761506830135218200,7.86521826171875,-0.014376120641827583,0.013465330936014652,-0.043949902057647705
1761506830145190100,7.875190185546875,-0.013309257104992867,0.02279837802052498,-0.0330333411693573
1761506830155162400,7.885162353515625,-0.009892580099403858,0.0311299879103899,-0.018007514998316765
1761506830165133300,7.89513330078125,-0.006634201854467392,0.022628646343946457,0.002559278393164277
1761506830175105300,7.905105224609375,-0.0019376357086002827,0.004243533127009869,0.02112467586994171
1761506830185077200,7.9150771484375,-0.0012691826559603214,-0.01805298402905464,0.036614950746297836
1761506830195049200,7.92504931640625,-0.0055479686707258224,-0.04319325089454651,0.04508504644036293
1761506830205020200,7.935020263671875,-0.011659657582640648,-0.04742181673645973,0.03744923323392868
1761506830214992400,7.944992431640625,-0.0172293558716774,-0.033654019236564636,0.022339167073369026
1761506830224964000,7.954964111328125,-0.019450699910521507,-0.007261293940246105,0.008710172958672047
1761506830234936300,7.964936279296875,-0.01885654777288437,0.017215553671121597,-0.00823365617543459
1761506830244908300,7.974908203125,-0.025582628324627876,0.030376361683011055,-0.016597580164670944
1761506830254879200,7.984879150390625,-0.027268633246421814,0.031792644411325455,-0.01729521155357361
1761506830264851500,7.9948515625,-0.02989424392580986,0.02088060788810253,-0.014186237007379532
1761506830274823200,8.0048232421875,-0.03177066892385483,0.003707116236910224,-0.0036389061715453863
1761506830284795400,8.01479541015625,-0.037958525121212006,-0.006013954058289528,0.007133580278605223
1761506830294766000,8.02476611328125,-0.04218948632478714,-0.011109646409749985,0.017022429034113884
1761506830304738300,8.03473828125,-0.04572083801031113,-0.0053140753880143166,0.012590929865837097
1761506830314710000,8.0447099609375,-0.047910869121551514,0.00739440368488431,-0.0008806122932583094
1761506830324682200,8.05468212890625,-0.04590044915676117,0.023955004289746284,-0.02064206637442112
1761506830334653200,8.064653076171876,-0.039626430720090866,0.03167573735117912,-0.036885570734739304
1761506830344625200,8.074625244140625,-0.036184296011924744,0.033978842198848724,-0.04829322174191475
1761506830354597400,8.084597412109375,-0.03143549710512161,0.029250210151076317,-0.04498782381415367
1761506830364569000,8.094569091796876,-0.028315868228673935,0.02451351284980774,-0.03883592411875725
1761506830374541300,8.104541259765625,-0.023716095834970474,0.015963157638907433,-0.021786483004689217
1761506830384512300,8.11451220703125,-0.02223830856382847,0.00987277366220951,-0.004131854511797428
1761506830394484200,8.124484130859376,-0.01498974859714508,0.004553805571049452,0.0059232027269899845
1761506830404456200,8.134456298828125,-0.0031772968359291553,-0.0015773236518725753,0.008664926514029503
1761506830414428200,8.14442822265625,0.006593839265406132,-0.004849662072956562,0.006835899315774441
1761506830424400400,8.154400390625,0.017883777618408203,-0.006400154437869787,-0.00008033018093556166
1761506830434371300,8.164371337890625,0.02633744291961193,-0.004239323548972607,-0.004550888203084469
1761506830444343300,8.17434326171875,0.030393436551094055,0.0025655855424702168,-0.010880690068006516
1761506830454315300,8.184315185546875,0.03386346623301506,0.006384013686329126,-0.006589124910533428
1761506830464287200,8.194287353515625,0.03531036153435707,0.0057597691193223,0.008271846920251846
1761506830474258200,8.204258056640626,0.03864700347185135,-0.0023734676651656628,0.016630500555038452
1761506830484230400,8.21423046875,0.043501682579517365,-0.012246071361005306,0.023138999938964844
1761506830494202000,8.2242021484375,0.044541265815496445,-0.021784840151667595,0.01898718811571598
1761506830504174300,8.23417431640625,0.04410663619637489,-0.01881195418536663,0.01561376266181469
1761506830514145000,8.24414501953125,0.03874538838863373,-0.0012855930253863335,0.017401661723852158
1761506830524117200,8.2541171875,0.03551151230931282,0.01522414106875658,0.011843111366033554
1761506830534089200,8.264089111328126,0.030676348134875298,0.025500856339931488,0.009489236399531364
1761506830544061200,8.274061279296875,0.02515641413629055,0.019242694601416588,0.005333639215677977
1761506830554033200,8.284033203125,0.02041674591600895,0.012036966159939766,0.004036029800772667
1761506830564004000,8.294004150390625,0.0209035724401474,0.0026676999405026436,0.006586805917322636
1761506830573976300,8.303976318359375,0.015240214765071869,0.004932914860546589,0.0004294256214052439
1761506830583948000,8.313947998046874,0.015858067199587822,0.01239695679396391,0.008270837366580963
1761506830593920300,8.323920166015625,0.018089115619659424,0.015675930306315422,0.008236892521381378
1761506830603891200,8.33389111328125,0.017672063782811165,0.011953895911574364,0.009893645532429218
1761506830613863200,8.34386328125,0.018329516053199768,0.0027837983798235655,0.007383651565760374
1761506830623835400,8.35383544921875,0.0076526375487446785,-0.005186510272324085,0.0010173646733164787
1761506830633807000,8.36380712890625,0.0031705754809081554,-0.0030819121748209,-0.0010477692121639848
1761506830643779300,8.373779296875,0.0026334160938858986,0.0030220532789826393,-0.0059698233380913734
1761506830653750300,8.383750244140625,0.003006220329552889,0.006403833162039518,-0.014426305890083313
1761506830663722200,8.39372216796875,0.002218990121036768,0.00525254849344492,-0.01988392323255539
1761506830673694200,8.403694091796876,0.002085560467094183,-0.005487935151904821,-0.008643989451229572
1761506830683666200,8.413666259765625,0.0069988262839615345,-0.04227257892489433,0.014885038137435913
1761506830693637000,8.42363720703125,0.0013427641242742538,-0.07245685160160065,0.025811871513724327
1761506830703609000,8.433609130859375,-0.0073790885508060455,-0.08213691413402557,0.03058132529258728
1761506830713581000,8.4435810546875,-0.011913346126675606,-0.0745740681886673,0.024692662060260773
1761506830723553000,8.453552978515624,-0.00777106499299407,-0.05225357413291931,0.0032238555140793324
1761506830733525000,8.46352490234375,-0.003920543473213911,-0.033529117703437805,-0.010180284269154072
1761506830743496000,8.473495849609375,-0.003432918805629015,-0.020145397633314133,-0.024245768785476685
1761506830753468200,8.48346826171875,-0.00647919625043869,-0.010931535623967648,-0.03790464624762535
1761506830763440000,8.493440185546875,-0.011249449104070663,0.004796028137207031,-0.06631817668676376
1761506830773412000,8.503412109375,-0.005803593434393406,0.03538801148533821,-0.09628339111804962
1761506830783383000,8.513383056640626,0.019869279116392136,0.08235178887844086,-0.10168374329805374
1761506830793355000,8.52335498046875,0.03568416088819504,0.09221368283033371,-0.08621840924024582
