time,seconds_elapsed,z,y,x
1761468718530469400,0.059469482421875,-0.13459142579734323,0.0058443421140313145,0.047474429488927126
1761468718540426200,0.06942626953125,-0.3512479713410139,0.10006620199158787,-0.014851605238392948
1761468718550382300,0.07938232421875,-0.45864685430824753,0.16210107175260782,-0.09639416241534053
1761468718560338200,0.089338134765625,-0.4794055646985769,0.18267083544209597,-0.07253412500880659
1761468718570295300,0.09929541015625,-0.4348030373841524,0.1836532706081867,0.08792721671275794
1761468718580251400,0.10925146484375,-0.3175532070100307,0.1838178135201335,0.12854666574038565
1761468718590208300,0.119208251953125,-0.19814649086296557,0.17682766237184405,0.11119922509826718
1761468718600164400,0.129164306640625,-0.07345803492069244,0.18370353949069976,0.06362221201770007
1761468718610121200,0.139121337890625,-0.00978723452091217,0.14343261163979767,0.009411533076316118
1761468718620077300,0.149077392578125,-0.04696984096765518,0.06928089536651968,-0.007736731731891632
1761468718630033200,0.159033203125,-0.04594283600747585,0.019111673835664988,-0.04675415239036083
1761468718639990300,0.168990234375,-0.017827917635440824,0.042865328258275985,-0.08003222567923367
1761468718649946400,0.1789462890625,-0.01452595348060131,0.04277078184261918,-0.061245838275179265
1761468718659903200,0.1889033203125,-0.05396949059665203,0.07252046180963516,0.02341229363903403
1761468718669859300,0.198859375,-0.05989069733917713,0.14114932300820945,0.09258709828257561
1761468718679815200,0.208815185546875,-0.007999182060360908,0.203487998021394,0.12260675429739057
1761468718689772300,0.218772216796875,0.05257774397730827,0.19823212331980467,0.12884294527322054
1761468718699728100,0.22872802734375,0.1339402684122324,0.19903189539536834,0.08451952716112136
1761468718709685200,0.238685302734375,0.1684960334867239,0.1472942555040121,0.047202699875459074
1761468718719641300,0.248641357421875,0.13921967011988162,0.09247998464629054,0.022558526353910563
1761468718729597400,0.258597412109375,0.11037059225440024,0.06268894975557923,-0.03520341532826424
1761468718739554300,0.26855419921875,0.10191197598874568,0.054274464892596005,-0.11217851845920085
1761468718749510400,0.278510498046875,0.1436830792695284,0.0009863806888461113,-0.1271522157073021
1761468718759467300,0.28846728515625,0.16283260089755058,-0.056123746021091936,-0.119434042545408
1761468718769423400,0.29842333984375,0.13500059112012386,-0.09268003726303577,-0.12590535745136439
1761468718779380200,0.308380126953125,0.11600304518342018,-0.09226341928616165,-0.15682897656857966
1761468718789336300,0.31833642578125,0.13645546610355377,-0.06817001151517033,-0.1562262614350766
1761468718799292400,0.32829248046875,0.15074410369694233,-0.07470452785044908,-0.11403766339458525
1761468718809249300,0.338249267578125,0.1274742872685194,-0.07042509696558118,-0.06329188408479094
1761468718819205400,0.348205322265625,0.043075756138563154,-0.06260185599401592,-0.05852554646581411
1761468718829162200,0.358162353515625,-0.047746086037158963,-0.07594079164713621,-0.0479981611020863
1761468718839118300,0.368118408203125,-0.06406535267531871,-0.06603986761868,-0.03101392774917185
1761468718849074400,0.378074462890625,-0.04503098185956478,-0.06074073829725384,-0.07697868332751095
1761468718859031600,0.388031494140625,0.02164016939997673,-0.06711217302531003,-0.08405220191031694
1761468718868987400,0.3979873046875,0.0506768787920475,-0.11659881911948322,-0.05435315615199506
1761468718878944500,0.407944580078125,0.07889525753855704,-0.13861922000870108,-0.06468816074877977
1761468718888900400,0.417900390625,0.07481763283610343,-0.136899848870188,-0.05538030724264681
1761468718898857500,0.427857421875,-0.005615501794219017,-0.11191548360884189,-0.051366249295696616
1761468718908813300,0.437813232421875,-0.10768062251806258,-0.07669102549254894,-0.04700045530162751
1761468718918769400,0.447769287109375,-0.2565805596530437,-0.06432648782953619,-0.062397565593570466
1761468718928726500,0.4577265625,-0.44752223370373245,-0.018474106584489343,-0.1131982899609953
1761468718938682400,0.467682373046875,-0.5439093087911605,0.04442088713720441,-0.14990867578610778
1761468718948639500,0.477639404296875,-0.5480149905443191,0.06529387155696749,-0.15301329073794184
1761468718958595300,0.48759521484375,-0.47667292486429214,0.053298021075874565,-0.10845672145709395
1761468718968551400,0.497551513671875,-0.3387999931782484,0.039836335825920104,-0.024387349216267465
1761468718978508500,0.507508544921875,-0.1896791067689657,0.04249240329265594,-0.015944880367815495
1761468718988464400,0.51746435546875,-0.07866846304535866,-0.0018196166425943374,0.020716040292382238
1761468718998421500,0.52742138671875,-0.035353637453913685,-0.04127615937069058,-0.0010308774176985024
1761468719008377300,0.53737744140625,0.04470364960134029,-0.024124533561617135,-0.06831073516011238
1761468719018334500,0.54733447265625,0.10596621981561183,-0.028358079478144643,-0.09706906600221991
1761468719028290300,0.557290283203125,0.12173486683368683,-0.050641807478666305,-0.08615699216984211
1761468719038246400,0.567246337890625,0.17801321889460087,-0.011475041477382182,-0.06559511952586472
1761468719048203500,0.57720361328125,0.22809446988105772,0.022775310909748075,-0.07510653278008103
1761468719058159400,0.587159423828125,0.2616892809689045,0.022676380579918623,-0.05043642109967768
1761468719068116500,0.597116455078125,0.22566753499507902,0.019478169060498474,-0.0019252689741551875
1761468719078072300,0.607072265625,0.18439093723297117,0.03533420210108161,-0.0001239186406135559
1761468719088029400,0.617029541015625,0.16988661106228828,0.03671352763026953,-0.0076374360758811235
1761468719097985300,0.6269853515625,0.059414896520972246,0.040215106010437006,0.012472235821187495
1761468719107941400,0.63694140625,-0.11693068142235279,0.041280251023918385,-0.01954356244690716
1761468719117898500,0.6468984375,-0.2616448573052883,0.08364362110942601,-0.030333252008631822
1761468719127854300,0.656854248046875,-0.3024737112998962,0.1483621769964695,-0.05814553417228162
1761468719137811500,0.6668115234375,-0.2777127795308828,0.15759294667840004,0.001963774353638291
1761468719147767300,0.676767333984375,-0.299973126655817,0.15697817578092216,0.09979169589914381
1761468719157723400,0.686723388671875,-0.29235797547698017,0.17897300383746623,0.13123437045440078
1761468719167680300,0.69668017578125,-0.24959260046184062,0.1607338750526309,0.13485855230093002
1761468719177636400,0.70663623046875,-0.16163608458936213,0.11059066474586725,0.12201726397164166
1761468719187593500,0.716593505859375,-0.03688274671733379,0.060103317176550625,0.08713687005266546
1761468719197549300,0.72654931640625,0.08608136965036392,-0.013953852681070565,0.07735358105450868
1761468719207506400,0.73650634765625,0.1398953774243593,-0.03300853563249111,0.08752375047840177
1761468719217462300,0.746462158203125,0.14194704925715923,-0.04012859677076339,0.07123509817421436
1761468719227418400,0.75641845703125,0.08437515025436877,-0.014606617501378058,0.06832469062022864
1761468719237375200,0.766375244140625,-0.06934358533918857,0.007859481328725814,0.05228204896636307
1761468719247331300,0.776331298828125,-0.2574415603965521,0.030827099940180777,-0.0034080548778176304
1761468719257288400,0.786288330078125,-0.32703707467019555,0.0509010429367423,-0.04501688026897609
1761468719267244300,0.796244384765625,-0.27277532312870023,0.07324673025757074,-0.024726737238466738
1761468719277201400,0.806201416015625,-0.21724282099902628,0.046008156328648325,0.01090754378773272
1761468719287157200,0.8161572265625,-0.08929156386852263,0.04542378056943416,0.01272299571186304
1761468719297113300,0.82611328125,-0.014126725029945372,0.06707710171192884,0.021949892936274407
1761468719307070200,0.8360703125,0.06908464214205741,0.07803206483796238,0.028502017993479966
1761468719317026300,0.8460263671875,0.11064473302066326,0.07275427056550979,0.028669045123457908
1761468719326983400,0.8559833984375,0.15273556977510452,0.03889949336722493,0.039215208252891896
1761468719336939300,0.865939208984375,0.18850246420502662,0.0618266338378191,-0.011331249092519282
1761468719346895400,0.875895263671875,0.19584639722704886,0.053024757092446084,-0.05972966155856847
1761468719356852200,0.885852294921875,0.1862327657073736,0.03160349114015698,-0.10070004291571676
1761468719366808300,0.895808349609375,0.1378437055915594,0.002342471472918987,-0.17364136048592627
1761468719376765200,0.90576513671875,0.09763327575623988,-0.02973112139701843,-0.2369790564738214
1761468719386721300,0.91572119140625,0.07358546069264411,-0.04917305010035634,-0.27531507073938843
1761468719396678400,0.925678466796875,0.04010112424194812,-0.051182782487571236,-0.2750044704202562
1761468719406634200,0.93563427734375,-0.028950784674286842,-0.07234393619894981,-0.24617168610244988
1761468719416590300,0.94559033203125,-0.11138239964544773,-0.06228489899933338,-0.25694384000748394
1761468719426547200,0.955547119140625,-0.12731880444586277,-0.03532835688218474,-0.243053627147153
1761468719436503300,0.96550341796875,-0.07093757653236389,-0.04583703754544258,-0.19909137049764394
1761468719446460200,0.975460205078125,0.026776947766542433,-0.06827215671539306,-0.1458508517626673
1761468719456416300,0.985416259765625,0.13354045543968676,-0.0753682524561882,-0.11880261277407407
1761468719466373400,0.995373291015625,0.1547445715099573,-0.11451149145141243,-0.1117575896333903
1761468719476329200,1.0053291015625,0.09523556696474551,-0.13577259840592742,-0.11343166032545268
1761468719486285600,1.01528564453125,0.0392307711482048,-0.0925108181759715,-0.13503347047641873
1761468719496242200,1.0252421875,-0.05231587817072868,-0.04540215325951576,-0.11190525447577238
1761468719506198500,1.035198486328125,-0.1569008727610111,-0.03884308700487017,-0.11868161674290895
1761468719516155100,1.045155029296875,-0.19494857160449028,-0.00008095628172159194,-0.12875950477346776
1761468719526111200,1.055111328125,-0.16642857956290244,0.030780776580423115,-0.114936584995687
1761468719536068000,1.065068115234375,-0.16349544872045516,0.01809314444288611,-0.11066855228766799
1761468719546024200,1.075024169921875,-0.1698807658433914,0.010458265650272369,-0.12879852160960434
1761468719555980300,1.084980224609375,-0.12224047826826571,0.015986965943872927,-0.14413995619155465
1761468719565937200,1.094937255859375,-0.02660626737475395,-0.003908113354444504,-0.09484225679822265
1761468719575893200,1.104893310546875,0.08990472733080386,0.01537540991678834,-0.06674823508374393
1761468719585850000,1.11485009765625,0.19684768322408197,0.0319742241486907,-0.05558415925167501
1761468719595806200,1.12480615234375,0.24460312161147593,0.03579933539479971,-0.061330301688238976
1761468719605763000,1.13476318359375,0.29817104566991326,0.023306641307473182,-0.0458736432287842
1761468719615719200,1.14471923828125,0.2968506107211113,0.03748451200276613,-0.03696626028232276
1761468719625675300,1.15467529296875,0.21762685188055036,0.0633441987939179,-0.03659172788150608
1761468719635632000,1.164632080078125,0.06021569150984287,0.09868570741862058,-0.03550773203708231
1761468719645588200,1.174588134765625,-0.11445581574141979,0.1492230316095054,-0.08537029877156019
1761468719655545300,1.18454541015625,-0.19027941074967383,0.16659999060705302,-0.1097559674873948
1761468719665501200,1.194501220703125,-0.1832271541506052,0.1297277652837336,-0.08800349681936204
1761468719675458300,1.204458251953125,-0.13529986632764338,0.09241802532598375,-0.09001673633791506
1761468719685414100,1.2144140625,-0.02514671621620655,0.06989011330604553,-0.10297704793699085
1761468719695370200,1.224370361328125,0.036510406273603434,0.02083425984457135,-0.1014800143122673
1761468719705327000,1.2343271484375,0.09023381315469742,-0.004246843789517879,-0.06030402738042175
1761468719715283200,1.244283203125,0.08946984304487705,-0.027931963020563125,-0.0016164952859282493
1761468719725240300,1.254240234375,0.08903262067139148,-0.02364990178719163,0.015069558838009834
1761468719735196200,1.264196044921875,0.04951426475346088,-0.04217866116836667,0.028400603445619343
1761468719745153300,1.2741533203125,-0.00040799627900123595,-0.09453896300271153,0.006597060177475213
1761468719755109000,1.284109130859375,0.005059036955237389,-0.10618906878605484,-0.01515548355579376
1761468719765065200,1.294065185546875,0.023913375028967856,-0.1425550981529057,-0.04322480922043323
1761468719775022000,1.30402197265625,0.014969605594873427,-0.1624877329826355,-0.07117759583331644
1761468719784978200,1.313978271484375,-0.030984336328506466,-0.15117226598113775,-0.055154097271338104
1761468719794935300,1.323935302734375,-0.06388882706463336,-0.11608575503081082,-0.0355070013847202
1761468719804891100,1.33389111328125,-0.10422960528135299,-0.08373495265468954,0.0071443187966942785
1761468719814848300,1.34384814453125,-0.1125508589029312,-0.0834754249356687,0.018245923851802945
1761468719824804000,1.35380419921875,-0.06888298209011555,-0.09162307555601,0.0172451493114233
1761468719834760200,1.36376025390625,0.005749357306957244,-0.11388269202858209,0.014822159948199987
1761468719844717300,1.37371728515625,0.03529109361171722,-0.16120616873949764,0.005677534179762005
1761468719854673200,1.383673095703125,0.017193126863241193,-0.16954904967099427,-0.04236563510783017
1761468719864630300,1.39363037109375,0.047292497050762175,-0.16403072464093565,-0.055301908244192594
1761468719874586000,1.403586181640625,0.0606762947589159,-0.1652056136392057,-0.05911131046451628
1761468719884543200,1.413543212890625,0.057090837487578386,-0.16932605457007885,-0.04406973561197519
1761468719894499000,1.4234990234375,0.03208791365623474,-0.19039280799627303,-0.01977415633238852
1761468719904455200,1.433455078125,0.052258010503649706,-0.18814561359137297,-0.04272599285282194
1761468719914412300,1.443412353515625,0.06895838541388512,-0.21942294151708483,-0.0738608435679227
1761468719924368100,1.4533681640625,0.0783130737364292,-0.26898805967494843,-0.12242621009871363
1761468719934325200,1.4633251953125,0.05637012199759483,-0.3118187550112605,-0.15846300751119852
1761468719944281000,1.473281005859375,-0.009086392775177955,-0.3215145118564367,-0.18185250479653475
1761468719954238200,1.48323828125,-0.13867431119680404,-0.32073359061181544,-0.19124577156379818
1761468719964194000,1.493194091796875,-0.2144879693329334,-0.32293153904750943,-0.279077638143301
1761468719974150100,1.503150146484375,-0.14785715008378028,-0.18297449456378817,-0.2469273267753422
1761468719984107300,1.513107177734375,-0.11080898367166518,-0.19143311082944273,-0.1444515794239938
1761468719994063000,1.52306298828125,-0.03261807501018047,-0.17361293810904024,-0.0958545025806874
1761468720004020200,1.533020263671875,0.016465397110581398,-0.15322744494527576,-0.06904197204411029
1761468720013976000,1.54297607421875,0.018758476483821868,-0.17839374264478683,-0.09841010534763335
1761468720023933200,1.55293310546875,0.0031231004565954205,-0.18848039850369094,-0.1736510781623423
1761468720033889000,1.562888916015625,0.007294248661398888,-0.2194809553146362,-0.2499510585106909
1761468720043845000,1.57284521484375,0.04619067328870296,-0.2687554199628532,-0.2876037666872144
1761468720053802200,1.58280224609375,0.16174422113895415,-0.32170842699334024,-0.3205824917033315
1761468720063758000,1.592758056640625,0.2951192568838596,-0.3408664241887629,-0.3358173241056502
1761468720073715200,1.602715087890625,0.3774637780934572,-0.3597933891072869,-0.34265718006305396
1761468720083671000,1.612671142578125,0.44307811377644535,-0.3972822850242257,-0.3268883138492703
1761468720093628200,1.622628173828125,0.47841480009555815,-0.40387700711414215,-0.2941179708868265
1761468720103584000,1.632583984375,0.5185375516474247,-0.4054106464222073,-0.262250568113476
1761468720113540000,1.6425400390625,0.5461170479685068,-0.43027518469616766,-0.261087807944417
1761468720123497200,1.652497314453125,0.5451783058136701,-0.455586443824321,-0.23330825900658964
1761468720133453000,1.662453125,0.5498147334426641,-0.5044657716751099,-0.2205298067804426
1761468720143410200,1.67241015625,0.47243280307650565,-0.5247871135614812,-0.21959669064879417
1761468720153366000,1.682365966796875,0.3199064921379089,-0.5345369386814535,-0.2189245635408908
1761468720163323100,1.6923232421875,0.19927052645683288,-0.5179679350659251,-0.2348140604596585
1761468720173279000,1.702279052734375,0.12399462845921516,-0.5096192089155316,-0.20778810636810957
1761468720183235000,1.712235107421875,0.0980944635272026,-0.537856584623456,-0.19561215007975696
1761468720193192200,1.722192138671875,0.11243512356877326,-0.5689831059016287,-0.17228965361602602
1761468720203148000,1.73214794921875,0.19032500345706937,-0.6207819744609296,-0.17823884434401988
1761468720213105200,1.742105224609375,0.2538286305963993,-0.6775558549538254,-0.17640234963186086
1761468720223061000,1.75206103515625,0.268141233587265,-0.7353015030883252,-0.17323124531507492
1761468720233018000,1.76201806640625,0.22700842821002004,-0.7312471131309867,-0.1867247139427811
1761468720242974000,1.771973876953125,0.22358254541456699,-0.717142453802377,-0.20646051102615892
1761468720252930000,1.781929931640625,0.24727380212545394,-0.7358030228696764,-0.20749197296574712
1761468720262887200,1.79188720703125,0.28706279167830945,-0.7618063559152185,-0.20965192747861144
1761468720272843000,1.801843017578125,0.3380512206375599,-0.7461652807995677,-0.19180581659935414
1761468720282800000,1.811800048828125,0.3644213411688804,-0.7550956062301993,-0.18328882120996712
1761468720292756000,1.821755859375,0.3419353685945272,-0.7375885911121964,-0.1613238768350333
1761468720302713000,1.831713134765625,0.28948388134539127,-0.6769388920992613,-0.13028452238366006
1761468720312669000,1.8416689453125,0.18738193574249742,-0.6441757095299661,-0.08450885963663458
1761468720322625300,1.851625244140625,0.052614568856358526,-0.5953150863796473,-0.06327084129676222
1761468720332582100,1.86158203125,-0.0182820911437273,-0.5616768745414913,-0.01465571734011173
1761468720342538200,1.871538330078125,-0.02739361836016178,-0.5926449903875589,0.06781411074958742
1761468720352495000,1.8814951171875,0.07095803479850292,-0.6254658214282244,0.06598083090782166
1761468720362451200,1.891451171875,0.22632395307719705,-0.6945230641067027,0.15167159380540252
1761468720372408000,1.901407958984375,0.45445057166218755,-0.7532370458167046,0.2662558582320809
1761468720382364200,1.9113642578125,0.6524842498004436,-0.8036830384623259,0.37150296999290583
1761468720392321000,1.921321044921875,0.7640338227063417,-0.8793553884316235,0.508849612782523
1761468720402277000,1.931277099609375,0.8765876042187213,-0.9572330664254725,0.6589224661543965
1761468720412233200,1.941233154296875,1.085308680588007,-1.0170891308426857,0.7716844105247408
1761468720422190000,1.951190185546875,1.2885358357161283,-1.1503699124328792,0.9235514538370072
1761468720432146200,1.961146240234375,1.3941256234347819,-1.3147238776788115,1.103896695875749
1761468720442103000,1.97110302734375,1.4079162483781575,-1.375387605217099,1.2171269884102045
1761468720452059100,1.98105908203125,1.219600246655941,-1.4239417927667497,1.36190210070014
1761468720462016000,1.99101611328125,0.5700830299675465,-1.5176231160268188,1.39261872600317
1761468720471972400,2.000972412109375,-0.06184124688506126,-1.4839321510881185,1.2037018357783555
1761468720481928200,2.01092822265625,-0.450189991608262,-1.3595456007018685,1.0246066668659448
1761468720491885300,2.02088525390625,-0.6618845308303832,-1.3355433783456683,1.0001455948263407
1761468720501841200,2.030841064453125,-0.8347557106614112,-1.3334979901231825,1.0521892319269477
1761468720511798000,2.040798095703125,-1.0093529836326838,-1.25097577425912,1.0566251685477792
1761468720521754400,2.05075439453125,-1.1811498122304678,-1.117283708454296,0.9860902545321732
1761468720531711500,2.06071142578125,-1.2192565477848052,-1.0154626256193966,0.9765605019036679
1761468720541667600,2.07066748046875,-1.1818851407676934,-0.9220297241624444,0.9846217163495719
1761468720551624400,2.08062451171875,-0.9798615162104367,-0.905325915186107,0.9060946345362811
1761468720561580500,2.09058056640625,-0.661250909101963,-0.8825332878153771,0.8367673427447676
1761468720571536600,2.10053662109375,-0.3115460755497217,-0.9099464876588433,0.7199244857363403
1761468720581493500,2.110493408203125,0.01820025807917118,-0.9899272754117846,0.5862014402713627
1761468720591449900,2.120449951171875,0.26774200513660906,-1.0909330232758074,0.41547899943944067
1761468720601406500,2.130406494140625,0.5163374112546444,-1.1649961114175618,0.21585312020629643
1761468720611362800,2.14036279296875,0.7278618546068668,-1.2882552652090786,0.05139774041250348
1761468720621319400,2.1503193359375,0.887416456747055,-1.4051815627172588,-0.055201845403201874
1761468720631275800,2.16027587890625,0.9530267007768154,-1.4704109907358884,-0.12262505713906138
1761468720641232600,2.170232666015625,0.9557195931226015,-1.4944475537531077,-0.2010556563079357
1761468720651188700,2.180188720703125,0.898173997604847,-1.551975759744644,-0.23930969137847422
1761468720661144800,2.190144775390625,0.83550389868021,-1.605705011844635,-0.31637861027270553
1761468720671101700,2.200101806640625,0.802349817097187,-1.687403636366129,-0.40801648153904824
1761468720681057800,2.210057861328125,0.7510650355398655,-1.838088118830323,-0.4619238301523029
1761468720691014700,2.2200146484375,0.7292232060879469,-1.9447502119556068,-0.47123212204985315
1761468720700970800,2.229970703125,0.6870704100131988,-2.0011632963120936,-0.4546373629385605
1761468720710927600,2.239927734375,0.4449404005169868,-2.020178377905488,-0.4486655950525775
1761468720720883700,2.2498837890625,0.04797521861791611,-1.9402859260231256,-0.43322848154380916
1761468720730840600,2.259840576171875,-0.4309159668177366,-1.7687126770481467,-0.44565095993913706
1761468720740796700,2.269796630859375,-0.9108990391433238,-1.6315625066787003,-0.4511192352823913
1761468720750752800,2.279752685546875,-1.3056442069053649,-1.5712454006209968,-0.500499315729551
1761468720760710000,2.2897099609375,-1.6018413221538066,-1.5936751129634676,-0.5995314619656652
1761468720770665700,2.299665771484375,-1.7492425451636313,-1.6494769335538149,-0.6956541139632463
1761468720780622800,2.309622802734375,-1.8271061215668916,-1.6900237557366489,-0.7631967873603105
1761468720790578700,2.31957861328125,-1.9383266086488962,-1.652475238586962,-0.8030570155184715
1761468720800535600,2.32953564453125,-2.106585910770297,-1.4667910466730594,-0.8377366261683404
1761468720810491600,2.33949169921875,-2.2295915281921626,-1.2397715125471354,-0.8430987377233803
1761468720820448500,2.349448486328125,-2.174457085469365,-1.0573878965485841,-0.8001632668383419
1761468720830404900,2.35940478515625,-1.9622095885396003,-0.9708697429161518,-0.7118321454998106
1761468720840360700,2.369360595703125,-1.6010364355117082,-0.9674301238562911,-0.6082831063611432
1761468720850317800,2.37931787109375,-1.2069827571451663,-0.9406086062956601,-0.5973405643252655
1761468720860273700,2.389273681640625,-0.8380781330823898,-0.9887610811766236,-0.6355978507988155
1761468720870230800,2.399230712890625,-0.6961854443609714,-1.0454210529662669,-0.6344729384221136
1761468720880186600,2.4091865234375,-0.6433984415471553,-0.86678261484541,-0.6840803613517433
1761468720890143700,2.419143798828125,-0.7351905900597572,-0.587195200549066,-0.6109643813343718
1761468720900099800,2.429099853515625,-1.042251044628024,-0.5201406029298902,-0.611292663440667
1761468720910056700,2.439056640625,-1.3555027550518512,-0.33456089430376884,-0.6028676206510514
1761468720920012800,2.4490126953125,-1.5183680891752243,0.08501710141971706,-0.4733897384751588
1761468720929969700,2.4589697265625,-1.642307772576809,0.4475333396196365,-0.2971506165809929
1761468720939925800,2.46892578125,-1.7105968804270029,0.858389391966164,-0.17426964845210313
1761468720949881600,2.478881591796875,-1.6320868228137493,1.3216881637334823,-0.09282572934404015
1761468720959838700,2.488838623046875,-1.3836562518686055,1.6976847918838263,0.04640957673639059
1761468720969794800,2.498794921875,-0.9340700713723897,1.9995066151462495,0.20854360091052948
1761468720979751700,2.508751708984375,-0.3347165232568979,2.1938165965862573,0.3236477975580841
1761468720989707800,2.518707763671875,0.3472913426697254,2.1656158996269106,0.36016909055188295
1761468720999664600,2.52866455078125,0.9685843353927135,2.1223628872252998,0.3699121206048876
1761468721009620700,2.538620849609375,1.4872130724549293,2.0447161684431134,0.2992934007633477
1761468721019577900,2.548577880859375,1.8735183286517858,1.877539985383302,0.2340289744965732
1761468721029533700,2.55853369140625,2.217612921106815,1.6550212698079645,0.13096702475510538
1761468721039490800,2.56849072265625,2.5332185011804103,1.3610282404750584,0.0059357467245310545
1761468721049446700,2.57844677734375,2.7677070560127497,1.0665976965077222,-0.04314589876532554
1761468721059402800,2.58840283203125,2.7688059571653603,0.7446950621165335,-0.13926716252341867
1761468721069359600,2.598359619140625,2.6207594219893218,0.5180126509904861,-0.29855997192226347
1761468721079315700,2.608315673828125,2.4745243201494214,0.34836496325060723,-0.41232853605188424
1761468721089272800,2.61827294921875,2.3395506170362235,0.1374764797143638,-0.3986871833860874
1761468721099228700,2.628228759765625,2.198989469179511,-0.017907851003855467,-0.3893191241253167
1761468721109185800,2.638185791015625,2.0018863498896358,-0.12783654470965267,-0.36698205850236115
1761468721119141600,2.6481416015625,1.7007815888553857,-0.24518442863076925,-0.42779739640578623
1761468721129098800,2.6580986328125,1.3109949202835558,-0.343166663955152,-0.5123410350948572
1761468721139054600,2.6680546875,0.9659270988821983,-0.33584143563359975,-0.5062591578979044
1761468721149011700,2.67801171875,0.7062830600053072,-0.2184917981468141,-0.37197891694158314
1761468721158967800,2.6879677734375,0.5537544109791517,-0.12098755559772252,-0.14250672896653413
1761468721168923600,2.697923583984375,0.44727790355384345,-0.04811068156585097,0.19143705635219813
1761468721178880800,2.707880859375,0.34808220078647134,-0.040663580430299044,0.45698681214153763
1761468721188836600,2.717836669921875,0.30851766763925553,-0.02767579630240798,0.5978001081284136
1761468721198793700,2.727793701171875,0.35950142042338845,-0.04814896774962544,0.6774408502720296
1761468721208749600,2.73774951171875,0.41868426175415513,-0.2288556635119021,0.6872873406995087
1761468721218706700,2.747706787109375,0.5046791221648455,-0.49791678842306136,0.5647214298691601
1761468721228662800,2.757662841796875,0.7038239764153957,-0.8318279866464435,0.329482275865227
1761468721238619600,2.76761962890625,0.9243623318284749,-1.1246994646035133,0.13311580028682946
1761468721248575700,2.77757568359375,1.007895770561695,-1.414739664657414,-0.07862579294741154
1761468721258532900,2.787532958984375,1.0272855306863784,-1.7299007158339021,-0.2603149969410151
1761468721268488700,2.79748876953125,0.9932955828011035,-1.9642361259311436,-0.38347646251171824
1761468721278444500,2.807444580078125,0.8894938475430011,-2.111763605669141,-0.4366569216225296
1761468721288401700,2.817401611328125,0.7771341272979975,-2.2190669193074104,-0.44982758803665635
1761468721298357800,2.827357666015625,0.5954974572092294,-2.347003271129727,-0.407838604221493
1761468721308314600,2.837314697265625,0.28435177915394305,-2.446904784078896,-0.33697511583864687
1761468721318270700,2.847270751953125,-0.14437807579636572,-2.4615751144662497,-0.27735439454726873
1761468721328227800,2.857227783203125,-0.5940297227442264,-2.4767159849748013,-0.16991437585204838
1761468721338183700,2.86718359375,-1.0923732121467589,-2.5578718809217214,-0.08727386737056075
1761468721348140800,2.877140869140625,-1.6376526402473448,-2.5782167498141524,-0.0222050367411226
1761468721358096600,2.8870966796875,-2.2092992662698028,-2.5898043117552993,0.02243314640857279
1761468721368053800,2.8970537109375,-2.88053906994462,-2.5140289398029445,0.07213577334098517
1761468721378009600,2.907009521484375,-3.5691806747972965,-2.317783460255712,0.12122121822312473
1761468721387965700,2.916965576171875,-4.210203034862876,-2.04010692108199,0.1941164316292852
1761468721397922800,2.9269228515625,-4.598901908197999,-1.8044070907637475,0.2700700827579945
1761468721407878700,2.936878662109375,-4.556685399237275,-1.6709424770392476,0.3706488373816013
1761468721417835800,2.946835693359375,-4.148040885460376,-1.617661114837229,0.4400888322999701
1761468721427791600,2.95679150390625,-3.6483524111896752,-1.590563702944666,0.46288314017113297
1761468721437748700,2.966748779296875,-3.462307277008891,-1.4634816298641264,0.6295307327795774
1761468721447704600,2.97670458984375,-3.5323803456664082,-1.0738288168050347,0.7190092705875635
1761468721457661700,2.98666162109375,-3.608495032575726,-0.4430455266810953,0.6510469835389405
1761468721467617800,2.99661767578125,-3.589067863050103,0.280882933999598,0.4501680720373988
1761468721477574700,3.00657470703125,-3.2746716587662696,1.0052044856511055,0.2708434052180499
1761468721487530800,3.01653076171875,-2.5863439421683547,1.6015477460347114,0.09889796192981302
1761468721497486600,3.026486572265625,-1.4436486560165882,1.9545200569503007,0.0688928824296221
1761468721507443700,3.036443603515625,-0.0071592241048812864,2.092185191104561,0.11469572544451802
1761468721517399600,3.046399658203125,1.4339514378666878,2.1198666864953934,0.15885010713264344
1761468721527357700,3.056357666015625,2.61542858235538,1.9831971392497418,0.38543234581984576
1761468721537313800,3.066313720703125,3.402899394750595,1.745586506874114,0.7646732896536588
1761468721547270700,3.076270751953125,3.85424030995965,1.594625545556098,1.0152562163271008
1761468721557226800,3.086226806640625,4.039664681893587,1.5427660328507422,1.1695746713794768
1761468721567183600,3.09618359375,4.063403869399428,1.5000848289877176,1.1725290642056614
1761468721577139700,3.1061396484375,3.86080449078083,1.5300127881310879,1.1973897300221026
1761468721587096600,3.1160966796875,3.3982892706066368,1.6552791900917887,1.1149790847737342
1761468721597053000,3.126052978515625,2.821347460785508,1.7400633595384656,1.0611235028803347
1761468721607008800,3.1360087890625,2.013805335742235,1.7701343804143368,1.0378102126363664
1761468721616966000,3.1459658203125,1.0529203226804733,1.8142542387783527,0.8834090477366
1761468721626921700,3.155921630859375,0.2046364374041557,1.7948558569557964,0.6663602880049496
1761468721636878800,3.16587890625,-0.38997020844519137,1.7935566109254955,0.3434218808252364
1761468721646834700,3.175834716796875,-0.6687737058222294,1.7889954404897987,0.11290617514662445
1761468721656791800,3.185791748046875,-0.6448398725271225,1.6339834502153097,0.006947992506995797
1761468721666748000,3.195747802734375,-0.3786965347588062,1.3799166269488632,-0.001764379324018955
1761468721676704800,3.205704833984375,0.12624737582206724,1.1810222403280437,0.009502645425871014
1761468721686660900,3.215660888671875,0.7511258258163929,1.0536891150958836,-0.02454232058227062
1761468721696617700,3.22561767578125,1.3240940558314322,0.8662510652519761,-0.036999651095271105
1761468721706573800,3.23557373046875,1.8530659077316523,0.6539926085367799,-0.05883782728537917
1761468721716530000,3.245530029296875,2.2850936351835727,0.43550563269555564,-0.06022540918625891
1761468721726486800,3.25548681640625,2.5944348941653965,0.2319686809659004,0.02691989990118891
1761468721736443000,3.26544287109375,2.7571137658059595,0.06880582520067692,0.040791992582939564
1761468721746399700,3.275399658203125,2.7113521315842863,-0.04771335281133651,-0.06203158182539045
1761468721756355800,3.28535595703125,2.505695118960738,-0.1472476398833096,-0.22249471364524215
1761468721766313000,3.29531298828125,2.13972128765285,-0.21292948784455656,-0.40245340405181046
1761468721776268800,3.305268798828125,1.6932786658793686,-0.2904202854126692,-0.5848560900770128
1761468721786226000,3.315225830078125,1.2581658318936824,-0.36237902168631553,-0.7161087268404662
1761468721796181800,3.325181640625,0.9810691384345293,-0.3899133636914193,-0.8135960182547569
1761468721806139000,3.335138916015625,0.8347071953445673,-0.45245369875654573,-0.8656427240952849
1761468721816094700,3.3450947265625,0.718280956313014,-0.5393908084534108,-0.8626193576861172
1761468721826050800,3.35505078125,0.502868857872486,-0.6675315968066453,-0.8521044664777815
1761468721836008000,3.365008056640625,0.1633814669519663,-0.747049516288191,-0.7850721537556499
1761468721845963800,3.3749638671875,-0.14776187301576138,-0.7705509495154023,-0.7957830059275031
1761468721855921000,3.3849208984375,-0.4569546634376049,-0.782524880425632,-0.8431051674641669
1761468721865876700,3.394876708984375,-0.8453390639960765,-0.8541397716976702,-0.9369598014645278
1761468721875833900,3.404833740234375,-1.2825357185184956,-0.8670641352005303,-1.043786729762703
1761468721885789700,3.414789794921875,-1.7122458166778087,-0.8262709370411931,-1.1036939398452639
1761468721895746800,3.424746826171875,-2.151198374956846,-0.8509893448427319,-1.0398396726373582
1761468721905703000,3.434702880859375,-2.61369430590868,-0.9744090960234403,-1.0710846326634287
1761468721915659800,3.44465966796875,-2.987899958989024,-0.9991142059519886,-1.144169011966139
1761468721925615900,3.454615966796875,-3.1244886960834264,-0.9675330727741122,-1.1710952320102601
1761468721935571700,3.46457177734375,-2.9955004971206187,-0.9803583598166704,-1.0263947193264962
1761468721945528800,3.47452880859375,-2.6159996602416036,-0.9067793288648128,-0.729254112682864
1761468721955484700,3.484484619140625,-2.1135428903013467,-1.1420479281589389,-0.6847434283703565
1761468721965441800,3.49444189453125,-1.5667816992104053,-1.4338279576174915,-0.6854875978011638
1761468721975398000,3.50439794921875,-1.2408978862285613,-1.560320101980865,-0.49859804868549107
1761468721985354800,3.514354736328125,-1.3101619765907526,-1.548254985655844,-0.3195182600053027
1761468721995310800,3.524310791015625,-1.6552192765980958,-1.2736578539274632,-0.4219068770624697
1761468722005267700,3.534267822265625,-2.182501275715232,-0.6447394808925688,-0.6672280838154256
1761468722015223800,3.544223876953125,-2.7686545659959316,0.04608429030478001,-0.8368979833871125
1761468722025181000,3.554180908203125,-3.271205443960428,0.6885647402241826,-0.9438193119704723
1761468722035136800,3.56413671875,-3.5636335620641706,1.2875976780831813,-1.0953497437395154
1761468722045092900,3.5740927734375,-3.4520506714105603,1.8774271726585923,-1.1844023842856288
1761468722055049700,3.5840498046875,-2.6998990096777677,2.3041828049264845,-1.176955721541494
1761468722065005800,3.594005859375,-1.5486118362694978,2.539360364936292,-0.9155610396049916
1761468722074962700,3.603962646484375,-0.302545022970438,2.5950343213632703,-0.5273961635487154
1761468722084918800,3.613918701171875,0.8941624238759279,2.4886741337940097,-0.2218953777789138
1761468722094876000,3.6238759765625,1.9187819502234458,2.33053509754017,-0.10309334952672942
1761468722104831700,3.633831787109375,2.8155238691985605,2.058450240893662,-0.05135017951030749
1761468722114788900,3.643788818359375,3.518344806051254,1.666040968733281,0.0008987115385476499
1761468722124744700,3.65374462890625,4.044727810502052,1.1226048304118215,-0.08508523475248365
1761468722134700800,3.66370068359375,4.468612563508748,0.9771196701563895,0.03560457087452523
1761468722144657700,3.67365771484375,4.457465731072426,0.8452215750962495,0.40232243461590256
1761468722154613800,3.68361376953125,4.008313850340247,0.5509513362571596,0.5621524926966056
1761468722164571000,3.69357080078125,3.4427047509163615,0.5171408365920186,0.6309867037415504
1761468722174526700,3.703526611328125,3.0025071610122915,0.48853433531075713,0.6213580207832157
1761468722184483800,3.71348388671875,2.5938176390498877,0.2845332732006907,0.5584620772134512
1761468722194439700,3.723439697265625,2.097411839711666,0.0450689757823944,0.4480067292850464
1761468722204396800,3.733396728515625,1.6412509570002556,-0.21395254728198052,0.2358139582172036
1761468722214353000,3.743352783203125,1.2592793460935354,-0.4355551709257066,-0.042093320972472426
1761468722224309800,3.753309814453125,1.0006208111226558,-0.6192439512386918,-0.17356723580379038
1761468722234265900,3.763265869140625,0.8088929551303387,-0.7679147557929158,-0.10948365335203707
1761468722244221700,3.7732216796875,0.6848720231860875,-0.9035539370775222,0.025863486183434724
1761468722254178800,3.7831787109375,0.4921767834663391,-1.0099531414829195,0.23897110707387326
1761468722264134700,3.793134765625,0.24110884975492952,-1.1149813497960568,0.40048992195911703
1761468722274091800,3.803091796875,-0.06085340489149093,-1.0336118110984562,0.4575002415563911
1761468722284048000,3.8130478515625,-0.41859599894881244,-0.9188385999709368,0.537920370574668
1761468722294004700,3.823004638671875,-0.6849281372874975,-0.8517487849079072,0.7403284644048661
1761468722303960800,3.8329609375,-0.8761790234178304,-0.7246732876986265,0.9630101154569536
1761468722313917700,3.842917724609375,-0.9577537292987107,-0.5971845335133373,1.0684623944010585
1761468722323873800,3.852873779296875,-0.8850602490097284,-0.4620315283104777,1.2120970314189792
1761468722333831000,3.862830810546875,-0.7135697098821401,-0.31026553421989084,1.2998390277579426
1761468722343786800,3.872786865234375,-0.4419757054924965,-0.2843595240689814,1.2809244839295744
1761468722353742800,3.882742919921875,-0.16461188552975653,-0.5026791805192828,1.1003015209279954
1761468722363699700,3.89269970703125,0.050427287945151326,-0.8544653503902256,0.8534807232670486
1761468722373655800,3.90265576171875,0.3088531832039356,-1.1595930833302437,0.5699557137934491
1761468722383612700,3.91261279296875,0.48463878917694087,-1.4646398599885404,0.31382881619203834
1761468722393568800,3.92256884765625,0.47674072940349577,-1.8718065562978385,0.23131566041726617
1761468722403526000,3.93252587890625,0.3182254071831703,-2.244217727176845,0.23680402870047837
1761468722413481700,3.942481689453125,-0.04682429501712322,-2.4109818223044277,0.4605681046944111
1761468722423438800,3.95243896484375,-0.6743857004851103,-2.567231245419383,0.6249040958922356
1761468722433394700,3.962394775390625,-1.392291978266835,-2.452046238620579,0.32736250723227855
1761468722443350800,3.972350830078125,-2.0797323906362055,-2.289269605693966,0.012037278470024466
1761468722453307600,3.9823076171875,-2.5285458331942556,-2.3478933518372473,0.006300342253223061
1761468722463263700,3.992263671875,-2.784730087006092,-2.2691375027693805,0.09051686787977814
1761468722475086600,4.004086669921875,-3.020576486188173,-2.172723539675027,0.18149696935713291
1761468722485042700,4.014042724609375,-3.2659020768553018,-2.051449276090413,0.28414449307881295
1761468722494999600,4.02399951171875,-3.5187843665122984,-1.8752759859740733,0.44982422703579067
1761468722504955600,4.03395556640625,-3.885575943943858,-1.5043923169232905,0.5671960763543844
1761468722514912800,4.043912841796875,-4.2436248274713755,-0.9394076330080627,0.522029704612121
1761468722524868600,4.05386865234375,-4.399444919258356,-0.32246713640615343,0.2735856165982783
1761468722534823700,4.06382373046875,-4.143191691863537,0.2657914555907249,0.0002059709008783102
1761468722544779800,4.07377978515625,-3.479039800623059,0.7115672840185463,-0.27179997529052197
1761468722554735600,4.083735595703125,-2.4427654923170805,0.9516397764630615,-0.39025633191019293
1761468722564692700,4.093692626953125,-1.2044009239584206,1.0915592654153703,-0.17473543933294713
1761468722574648800,4.10364892578125,0.08340835104882717,1.1698143253542481,0.14503580905273555
1761468722584605700,4.113605712890625,1.1799579720973967,1.1692185514181852,0.5041571806499734
1761468722594561800,4.123561767578125,1.9653946483165023,1.1137687591359018,0.9159512079663574
1761468722604519000,4.133518798828125,2.4591677610635756,1.017590066102147,1.3591956182204186
1761468722614474800,4.143474853515625,2.633410813769698,0.7913912007093429,1.6377740746699272
1761468722624431900,4.153431884765625,2.67632056569159,0.6456077881596982,1.836727059610188
1761468722634387700,4.1633876953125,2.710495222494006,0.869028421010822,2.0028657163158057
1761468722644343800,4.17334375,2.5397861891329288,1.0336692403741181,2.0374401860907674
1761468722654300700,4.18330078125,2.090776347219944,1.110000492643565,1.9065381163306534
1761468722664256800,4.1932568359375,1.5127385588556528,0.9998661933630705,1.5444810200750827
1761468722674214000,4.2032138671875,1.0298609341323375,0.8560847682856023,0.9786359930034726
1761468722684169700,4.213169677734375,0.7347802556931972,0.714197632522136,0.5178467563716694
1761468722694126800,4.223126953125,0.5130062210053206,0.6085246965646743,0.19529424323700367
1761468722704082700,4.233082763671875,0.4072223720192909,0.5569891551166772,-0.03604202157687396
1761468722714039800,4.243039794921875,0.482891068726778,0.6009481238305568,-0.07611552715953439
1761468722723995600,4.25299560546875,0.7489964125722647,0.64712433020249,0.08745240227524191
1761468722733952800,4.262952880859375,1.1295756923377513,0.7614036203332245,0.3184328393887728
1761468722743908900,4.272908935546875,1.4979747049659489,0.8964442512027919,0.5605489664901048
1761468722753865700,4.28286572265625,1.7667209187090396,0.912181772430241,0.8579305422827601
1761468722763821800,4.29282177734375,1.9289929631143807,0.8982339110985398,1.1517277567826212
1761468722773777700,4.302777587890625,2.0610411341696975,0.9018962329983711,1.3547960680872202
1761468722783734800,4.31273486328125,2.107994024002552,0.8878769138656556,1.5415870521992443
1761468722793690600,4.322690673828125,2.1227865194648503,0.8489119540467858,1.6048717758908866
1761468722803647700,4.332647705078125,2.0993045215904713,0.8750790993519126,1.5357617070466278
1761468722814227000,4.34322705078125,2.0205594861775635,0.8407290859825909,1.3437801685541868
1761468722824183800,4.353183837890625,1.8852590353280305,0.6763095081545412,1.0513047041773795
1761468722834140000,4.363139892578125,1.7606109113961457,0.4814275720454752,0.6923195627130567
1761468722844096800,4.3730966796875,1.5762223122507333,0.29165348046943546,0.36885051925536244
1761468722854052900,4.383052978515625,1.2904296866387128,0.19562910121455787,0.145183254699409
1761468722864010000,4.393010009765625,0.7676379846781491,0.2610730487667024,0.013187617548927664
1761468722873965800,4.4029658203125,0.13015432013273237,0.35726474741250275,-0.10358780024647712
1761468722883922000,4.412921875,-0.2660983295828104,0.48724034997746346,-0.2598191397154704
1761468722893878800,4.422878662109375,-0.5996896482020616,0.438614850757271,-0.41159919886402785
1761468722903835000,4.4328349609375,-0.9019482554465532,0.32593203603774307,-0.5219396151758731
1761468722913791700,4.442791748046875,-1.0787146891504527,0.23649945626333355,-0.7400650642283261
1761468722923747800,4.452747802734375,-1.1991045711159705,0.13163126081749796,-0.8393395313203335
1761468722933705000,4.462705078125,-1.2890507995009421,0.010210866760462522,-0.7298780898001045
1761468722943660800,4.472660888671875,-1.34217039526999,-0.04430149854123592,-0.5757050711004064
1761468722953618000,4.482617919921875,-1.4522195004850624,0.013772797025740146,-0.5115425051283091
1761468722963573800,4.49257373046875,-1.6420657805144785,0.03163812406212091,-0.4883112671446055
1761468722973531000,4.50253076171875,-1.7865069846749304,-0.13529489789158106,-0.41423605017364024
1761468722983487000,4.512487060546875,-1.7590151666373013,-0.4183661357156932,-0.34035197186060245
1761468722993442800,4.52244287109375,-1.6105425150036812,-0.7547324720062315,-0.41638077058475464
1761468723003400000,4.53239990234375,-1.4903484478712081,-1.096359797564894,-0.6485356583051383
1761468723013355800,4.542355712890625,-1.6495786403626203,-1.4430888301767408,-0.9608124592822045
1761468723023313000,4.55231298828125,-2.162951356592774,-1.6084949348241089,-1.3641020949624478
1761468723033268700,4.562268798828125,-2.8070401184916496,-1.4553729960799215,-1.6551058793514966
1761468723043225900,4.572225830078125,-3.438848660010099,-0.9202695095568895,-1.6753978490129111
1761468723053182000,4.582181884765625,-3.8918098698973655,-0.21175138397589324,-1.5972354357935488
1761468723063138800,4.592138916015625,-3.898399185159802,0.43598084899187084,-1.3435723710224032
1761468723073095000,4.602094970703125,-3.3301088838279247,1.0604211998298763,-0.9199035988539457
1761468723083051800,4.6120517578125,-2.305699200838804,1.5671407417811452,-0.3174227124981582
1761468723093008000,4.6220078125,-1.0634615904390812,1.8585367403581738,0.2101754033634439
1761468723102963700,4.631963623046875,0.159293905377388,1.8855454510539769,0.751761128045246
1761468723112920800,4.6419208984375,0.9615040217429399,1.609941188109666,1.4308384204126894
1761468723122877000,4.651876953125,1.1337789892464876,1.1905500932604074,1.846940556719154
1761468723132833800,4.661833740234375,1.1723615256190298,0.9233874954469501,1.8289058644652365
1761468723142790000,4.671789794921875,1.3792793519586324,0.8150557155437766,1.5347523838736117
1761468723152746800,4.681746826171875,1.8427315607219934,0.7289772685028613,1.090678098666668
1761468723162702800,4.691702880859375,2.4111948805332184,0.6002787001363933,0.6912415582180023
1761468723172660000,4.701659912109375,2.8471687152624128,0.2968447655022144,0.32696072149835526
1761468723182615800,4.71161572265625,3.005225772321224,0.08341492692008615,0.0058431525206542574
1761468723192573000,4.721572998046875,2.8117566256195303,0.02022270381748676,-0.15883987799957394
1761468723202528800,4.73152880859375,2.3852912084698676,-0.0026449615508317946,-0.23406064827647058
1761468723212486000,4.74148583984375,1.7820172720402478,0.03090469522103667,-0.22272976451013235
1761468723222441700,4.751441650390625,1.1006167243570089,0.07557765742316841,-0.23270726090613753
1761468723232397800,4.761397705078125,0.4615583578407764,0.1692528432033956,-0.2353244576672092
1761468723242355000,4.77135498046875,0.09047112904191017,0.276921629153192,-0.18674528180677444
1761468723252310800,4.781310791015625,0.03126023066043854,0.3624639234907925,-0.09520941874333656
1761468723262268000,4.791267822265625,0.1552379079848528,0.4344555391207337,0.032313116697256915
1761468723272223700,4.8012236328125,0.28684125788211823,0.44701574548631906,0.13631339075174181
1761468723282180900,4.811180908203125,0.4208674510121345,0.432263582034409,0.11716174109871498
1761468723292136700,4.82113671875,0.7708481788963079,0.3177851160697639,0.0674235222631134
1761468723302093800,4.83109375,1.177053482827544,0.10251666388362646,0.030177885633695403
1761468723312050000,4.8410498046875,1.439717161786556,-0.07364639709964395,-0.18597824295703322
1761468723322006800,4.8510068359375,1.5419371808111666,-0.3051259793743491,-0.48179951063040644
1761468723331963000,4.860962890625,1.5980904451876878,-0.5952335455760359,-0.5919859419569373
1761468723341918700,4.870918701171875,1.6530542075186967,-0.8287395191118121,-0.5793335272632539
1761468723351875800,4.880875732421875,1.6621914536982774,-1.0064249673567711,-0.6288439926244318
1761468723361831700,4.890831787109375,1.516563085579872,-1.1802443878233433,-0.6561531475715339
1761468723371788800,4.900788818359375,1.2489163575112818,-1.2788554225705564,-0.6898213161565363
1761468723381745000,4.910744873046875,0.7911421943843364,-1.3448368380002678,-0.821791088213399
1761468723391701800,4.92070166015625,0.21497078441381454,-1.5151041189432144,-0.9163081316452473
1761468723401657900,4.930657958984375,-0.37755554803013797,-1.7459285983100532,-0.9924270563382654
1761468723411614700,4.94061474609375,-0.9147077837765216,-2.033821849463135,-0.9962987101398408
1761468723421570800,4.95057080078125,-1.2615467065036297,-2.1523491524271665,-0.6624620384573936
1761468723431528000,4.96052783203125,-1.4378677345275879,-1.949711049233377,-0.07072871955465525
1761468723441483800,4.97048388671875,-1.5450953525811433,-1.626679556942731,0.34340240893978624
1761468723451439900,4.98043994140625,-1.5303291606038807,-1.4098057153865695,0.6674930914271623
1761468723461396700,4.990396728515625,-1.4107552711963653,-1.173532615225017,1.0110906941454858
1761468723471352800,5.000352783203125,-1.3204039691418408,-1.0646209896072745,1.3562627796389162
1761468723481310000,5.01031005859375,-1.2654577424675226,-1.1384719693683087,1.7160406789161264
1761468723491265800,5.020265869140625,-1.0122983894348143,-1.2965375019945204,2.035069511436671
1761468723501223000,5.030222900390625,-0.6473229215145111,-1.385393450924754,2.3618263078607615
1761468723511178800,5.0401787109375,-0.7523860550105571,-1.4592463303819299,2.420202947375178
1761468723521135900,5.050135986328125,-1.9211960256278513,-1.465770617584139,2.100282134450972
1761468723531092000,5.060092041015625,-3.5124954955011605,-1.2466685785844922,1.6389961638107895
1761468723541048800,5.070048828125,-4.953883220848441,-0.6474931635148823,1.3134712472692132
1761468723551005000,5.0800048828125,-6.059867609718442,0.19599092026427387,1.048488623843342
1761468723560960800,5.089960693359375,-6.24322043607533,1.0319025229625403,1.0326550218302757
1761468723570918000,5.09991796875,-5.267697241330146,1.6925428989507256,1.2604846302300692
1761468723580874000,5.1098740234375,-3.6933155885100364,2.374169218213856,1.4012828017130494
1761468723590830800,5.119830810546875,-1.9449784677535293,2.7461177400171755,1.4957196195155382
1761468723600787000,5.129786865234375,-0.24018998134434222,2.527772802995145,1.8391455189287662
1761468723610743800,5.139743896484375,1.4013649270385502,1.7870000288888812,2.4989734094902873
1761468723620700000,5.149699951171875,2.4525959814578293,1.150861349211633,2.7669951083511113
1761468723630657000,5.159656982421875,2.9587802474886176,0.8447054422676563,2.6149612571045755
1761468723640612900,5.16961279296875,3.1684359743595123,0.6762813049733638,2.403602525708079
1761468723650570000,5.179570068359375,3.230884539487958,0.5691608005560934,2.271996837723255
1761468723660525800,5.18952587890625,3.0601106241971254,0.5584576202340423,2.0256557864032683
1761468723670483000,5.19948291015625,2.694865107163787,0.6447818587295711,1.7649547858193515
1761468723680438800,5.209438720703125,2.2258476654887196,0.6806070592179894,1.4946695259407161
1761468723690395000,5.219394775390625,1.7335405336409806,0.742448744494468,1.128379176029563
1761468723700352000,5.22935205078125,1.1391899083793162,0.8426092006407677,0.7491809753589331
1761468723710307800,5.239307861328125,0.4139554796665907,0.9171319421835243,0.4173107814438641
1761468723720265000,5.249264892578125,-0.08102116365134715,0.9115358757421373,0.13698723489269612
1761468723730220800,5.259220703125,-0.2979816605776548,0.8611163327120244,-0.0261880419626832
1761468723740178000,5.269177978515625,-0.29321488456726075,0.7930180712588131,-0.09529241171851753
1761468723750133800,5.2791337890625,-0.0030780922710895537,0.6434789594374597,0.04712868479117751
1761468723760091000,5.2890908203125,0.6243371827244758,0.500486492780596,0.37895007112845774
1761468723770047000,5.299046875,1.3336165019363164,0.5161800287358462,0.6296501944407821
1761468723780002800,5.3090029296875,1.949897219455242,0.5712791078843176,0.8437718877445906
1761468723789960000,5.3189599609375,2.4143980604887005,0.5064585529275238,1.0490896584764122
1761468723799915800,5.328915771484375,2.8249960464209316,0.41299730215892194,1.201206731026992
1761468723809873000,5.338872802734375,3.1382354818850753,0.21028306498900054,1.274118749437481
1761468723819828700,5.348828857421875,3.2380233053267,-0.0855075152851641,1.2183465933330357
1761468723829785900,5.358785888671875,3.080647216269374,-0.33418460833728314,1.0285715519089251
1761468723839742000,5.368741943359375,2.699752879205346,-0.46064314269199963,0.7654234504338353
1761468723849698800,5.37869873046875,2.111100757846236,-0.5614791600123048,0.4459899095699191
1761468723859655000,5.388655029296875,1.3365607386946676,-0.6992512616723775,0.12959295992292463
1761468723869611800,5.39861181640625,0.30524726766645904,-0.6769191644854843,-0.148800422283262
1761468723879568000,5.40856787109375,-0.8314426405906676,-0.6049849781312048,-0.29201727228052915
1761468723889525000,5.41852490234375,-1.8026076401263473,-0.4481612622596323,-0.3415345327086747
1761468723899480800,5.428480712890625,-2.482299045804143,-0.29123949284106493,-0.28040793689899146
1761468723909437000,5.43843701171875,-2.9699393548846245,-0.10673808097094296,-0.16579459250830114
1761468723919393800,5.448393798828125,-3.106831458839774,0.10279738052114844,-0.11301350797861814
1761468723929350000,5.458349853515625,-3.0455647969722746,0.2735853243373334,-0.1015097518634051
1761468723939307000,5.46830712890625,-2.7616777127206324,0.1974067784115672,-0.036518297319114205
1761468723949262800,5.478262939453125,-2.2083277908891437,-0.08356661035045981,0.13888539666421712
1761468723959220000,5.488219970703125,-1.6009090097397565,-0.3154481975547969,0.15456431957222522
1761468723969175800,5.49817578125,-1.1725064870476722,-0.5700991043195128,0.17651698898747561
1761468723979133000,5.5081328125,-0.860254309055209,-0.8982349340118467,0.30654578304439783
1761468723989088800,5.5180888671875,-0.5793745899260043,-1.1606541366904974,0.5027480810370296
1761468723999046000,5.5280458984375,-0.3402116135418415,-1.2876453166171908,0.6660493954248726
1761468724009002000,5.538001953125,-0.17486732208430766,-1.3622041523866355,0.762519034229219
1761468724018957800,5.547957763671875,-0.4359118754088878,-1.3991212397649884,0.7468614463701844
1761468724028915000,5.5579150390625,-1.2709534172743557,-1.3726856527820228,0.5033133137043565
1761468724038870800,5.567870849609375,-2.3064538185983894,-1.0613711940310895,0.19136106850653886
1761468724048828000,5.577827880859375,-3.2828169712990523,-0.40263139096722006,-0.10892433896884321
1761468724058783700,5.58778369140625,-4.116981145808101,0.3008930179797113,-0.21214432881623504
1761468724068740900,5.597740966796875,-4.496587781149149,1.0403589472711086,-0.15835457870066166
1761468724078697000,5.607697021484375,-4.08749552360475,1.5586695582948624,0.184030433357507
1761468724088653800,5.61765380859375,-3.094456545913219,1.8463494589582083,0.8329014610968529
1761468724098610000,5.62760986328125,-1.6975795779436826,2.0850667374014855,1.380935156341642
1761468724108566800,5.63756689453125,-0.2282224801748991,2.1934597459726035,1.828030250674486
1761468724118523000,5.64752294921875,0.8365899403512478,2.0969053514942524,2.186952994427085
1761468724128478700,5.657478759765625,1.3590344363093376,1.7980865094400942,2.3374681116737426
1761468724138435800,5.667435791015625,1.5798825883239507,1.5744379130519925,2.1185154180169103
1761468724148392000,5.677391845703125,1.7148521997839212,1.4909462676338852,1.653093078224361
1761468724158348800,5.687348876953125,1.7682634719759225,1.3319241649352014,1.1701789939481764
1761468724168305000,5.697304931640625,1.7996154725730418,1.0569244437552987,0.8483902682602406
1761468724178261800,5.70726171875,1.9415110839039087,0.7873902945049107,0.6263206846918911
1761468724188217900,5.7172177734375,2.165895008829236,0.6430651179395616,0.5087666106741875
1761468724198175000,5.727175048828125,2.5050883852392434,0.49510509200319647,0.6046423752386123
1761468724208130800,5.737130859375,2.7170611568808556,0.3011152824282646,0.8468038027863949
1761468724218087000,5.7470869140625,2.713522461360693,0.16104016452282666,1.1125491542130708
1761468724228043800,5.757043701171875,2.4903619407504793,0.032070816390961404,1.3104611056677997
1761468724237999900,5.766999755859375,2.1225626475811,-0.01733458116054535,1.332668845822662
1761468724247956700,5.776956787109375,1.6338555860519408,0.03197700062766671,1.082935740911588
1761468724257912800,5.786912841796875,1.117196103236079,-0.051461453298479315,0.7917893331814557
1761468724267870000,5.796869873046875,0.5773778631508351,-0.20517814306542276,0.4991371239982545
1761468724277825800,5.80682568359375,0.07765899374186992,-0.3051243719391525,0.05516432640440762
1761468724287783000,5.816782958984375,-0.35669045465588567,-0.37288697169721124,-0.3889848506696522
1761468724297738800,5.82673876953125,-0.6165525201976298,-0.521865088634938,-0.6413609443701803
1761468724307695900,5.83669580078125,-0.7044944230228662,-0.5881336504429578,-0.7204808775100856
1761468724317651700,5.846651611328125,-0.6109720897167921,-0.5818263669922947,-0.6283160232275724
1761468724327608800,5.85660888671875,-0.42361061224043367,-0.590550356195867,-0.43852936443090434
1761468724337565000,5.86656494140625,-0.21076105776429174,-0.5969090775728225,-0.32740488506928084
1761468724347520800,5.876520751953125,0.06442132650613784,-0.5949762098141014,-0.2702819719430059
1761468724357478000,5.886477783203125,0.23323300181329248,-0.5949744562484324,-0.01966134360767901
1761468724367433700,5.896433837890625,0.2994306903421879,-0.5911743333131074,0.2577267340134829
1761468724377390800,5.906390869140625,0.19792904872000217,-0.5163607921302318,0.4436468535751104
1761468724387346700,5.9163466796875,0.035572833162546155,-0.48648646287024017,0.5170302888896317
1761468724397303800,5.9263037109375,-0.07579436891376971,-0.5399852672152221,0.5343930001661181
1761468724407260000,5.936260009765625,-0.0939636473327875,-0.6250520529955625,0.47413544227592647
1761468724417216800,5.946216796875,-0.11338497163951396,-0.6534732608377933,0.4674571335557848
1761468724427172900,5.9561728515625,-0.15042729283273218,-0.6510339048616588,0.5959453471072018
1761468724437130000,5.9661298828125,-0.378719331112504,-0.5730743207380176,0.8051169437229633
1761468724447085800,5.9760859375,-0.7427437819182873,-0.43550314847752447,0.9903962811630219
1761468724457041700,5.986041748046875,-1.089030915981531,-0.4259291183158755,1.1374147884655743
1761468724466998800,5.995998779296875,-1.3373346456766129,-0.5630529852002859,1.288308748961985
1761468724476955000,6.005954833984375,-1.4201251570880413,-0.7935564159192144,1.3845403412267565
1761468724486911700,6.015911865234375,-1.4091472514778374,-0.9174940534941851,1.2472611376501619
1761468724496867800,6.025867919921875,-1.5242372734695673,-0.784606070613861,0.9350964187454431
1761468724506825000,6.035824951171875,-1.8960458022803066,-0.5244830160483718,0.8907682513929903
1761468724516780800,6.04578076171875,-2.6974486939162015,-0.06332607861533761,1.0689669829223305
1761468724526738200,6.05573828125,-3.638945115897059,0.5725193172037601,1.152348445964232
1761468724536694300,6.0656943359375,-4.07714539450407,1.1568242031387983,1.1147899188771844
1761468724546651100,6.075651123046875,-3.8100978013724087,1.6802885436639188,1.070127185808122
1761468724556607200,6.085607177734375,-3.0148487561911343,1.9394968214720487,1.0702822302393615
1761468724566563000,6.09556298828125,-1.788807662832737,1.8445909248530863,1.3105221882052718
1761468724576520200,6.105520263671875,-0.24827976429760454,1.701650919035822,1.5709268361911177
1761468724586476300,6.115476318359375,1.302572544375062,1.4439683894902466,1.9405626971378922
1761468724596433200,6.12543310546875,2.6161095503568648,1.1300564615920186,2.512425888520479
1761468724606389200,6.13538916015625,3.475826683795452,0.8062982624620199,3.0544255642980334
1761468724616346000,6.14534619140625,3.842292682534456,0.6207840202875435,3.43223508708924
1761468724626302200,6.15530224609375,3.935421632608771,0.6342591495409607,3.512330075806379
1761468724636259300,6.16525927734375,3.921782983356714,0.6136321027062833,3.4228839058980345
1761468724646215200,6.175215087890625,3.6741333336561914,0.5154522989831865,3.3169401901751754
1761468724656172300,6.18517236328125,3.108133189088106,0.5067822319239378,3.137003309741616
1761468724666128100,6.195128173828125,2.251518697839975,0.5845661672197282,2.8725936638981104
1761468724676084200,6.205084228515625,1.0928852533221245,0.6062029756188392,2.514722475025058
1761468724686041000,6.215041015625,-0.07198036358356476,0.5997500000871717,2.142880920727551
1761468724695997200,6.2249970703125,-0.9583382511883973,0.7180851414799689,1.7344190700411795
1761468724705954300,6.234954345703125,-1.6269196493089197,0.8167315398015081,1.404216370946914
1761468724715910100,6.24491015625,-1.9739982260107993,0.9597387656360864,1.21464116294384
1761468724725867300,6.2548671875,-1.8737281720101833,1.1289780187055467,1.0833078621596097
1761468724735823000,6.264822998046875,-1.3911679426729677,1.134653872384876,1.0548876772306859
1761468724745780200,6.2747802734375,-0.7250158175259828,0.938555107831955,1.1387620383560657
1761468724755736000,6.284736083984375,-0.10620353570282459,0.6664011314719915,1.2056574998907743
1761468724765693200,6.294693115234375,0.35060908891558645,0.4176793224953115,1.2697908032357692
1761468724775649300,6.304649169921875,0.6529156269550324,0.1753232491582632,1.24022437088117
1761468724785605000,6.314605224609375,0.8099526933163403,-0.06000102584585547,1.2323872475147246
1761468724795562200,6.324562255859375,0.6846633488714695,-0.17065277312919497,1.3043296171754597
1761468724805518000,6.33451806640625,0.22353636818528175,-0.14600655378103256,1.2524845713868737
1761468724815475200,6.34447509765625,-0.4567442355573177,-0.16775719781816004,1.0264986180923878
1761468724825431300,6.354431396484375,-1.0305582687467336,-0.24886867010146377,0.6324377062674611
1761468724835388200,6.36438818359375,-1.4783628265231847,-0.3335775823548436,0.21916122184097767
1761468724845344300,6.37434423828125,-1.6997393863260746,-0.435312009819597,-0.13534019833803176
1761468724855301000,6.384301025390625,-1.6609060900628565,-0.4721897881008684,-0.36512159839272496
1761468724865257200,6.39425732421875,-1.5181711052984,-0.48014030871391294,-0.5177257238078862
1761468724875214300,6.40421435546875,-1.3064789041638374,-0.5600321760743856,-0.7576442677997052
1761468724885170200,6.414170166015625,-1.0106137973487377,-0.6680337011098861,-1.0149590600114315
1761468724895126300,6.424126220703125,-0.9033031771868467,-0.8664588627837598,-1.0400587222155182
1761468724905083100,6.434083251953125,-0.8958166208237409,-0.9104612322479486,-0.8908690814189613
1761468724915039200,6.444039306640625,-1.017853100952506,-0.7529029184915125,-0.7040915413103997
1761468724924996000,6.45399609375,-1.226634967598319,-0.5694764423765242,-0.6958315163567662
1761468724934952200,6.4639521484375,-1.3878624713867902,-0.38923634121268985,-0.8245794768229127
1761468724944909300,6.473909423828125,-1.4839736521422862,-0.29506065856441854,-0.8786186716549098
1761468724954865200,6.483865234375,-1.563214362117648,-0.33189167509451506,-0.943843788824603
1761468724964822300,6.493822265625,-1.452477859160304,-0.33943551460281013,-0.8947864009931683
1761468724974778000,6.503778076171875,-1.2355500954598189,-0.2675765854418278,-0.8494744833003729
1761468724984735200,6.5137353515625,-0.9375736955791711,-0.24884265887737272,-0.958647609398514
1761468724994691000,6.523691162109375,-0.5706143603652716,-0.4635124145179987,-1.085350985359773
1761468725004647200,6.533647216796875,-0.14641279649436473,-0.7250555650144815,-1.1761557302702217
1761468725014604300,6.543604248046875,0.17780512910187243,-0.8510000123672187,-1.210592545140162
1761468725024560000,6.55356005859375,0.1434036778062582,-0.7423715876050293,-1.2754165341630577
1761468725034517200,6.563517333984375,-0.14901859507858753,-0.47497532716616986,-1.2159365365166217
1761468725044473000,6.57347314453125,-0.6183358964830636,-0.10987053377777338,-1.0766969195872544
1761468725054430200,6.58343017578125,-1.1975135025322436,0.3216973210774362,-1.0054838871143759
1761468725064386000,6.593385986328125,-1.643478569921851,0.8380769640386104,-0.9294494988996534
1761468725074343200,6.60334326171875,-1.9208716159790753,1.425406166230887,-0.8610706669393926
1761468725084299300,6.61329931640625,-1.8481980094343422,1.8644104546971618,-0.8895212470065802
1761468725094256000,6.623256103515625,-1.3911778795450924,2.0059164821885527,-1.0389530259959399
1761468725104212200,6.633212158203125,-0.7189175006508827,1.9074825575739145,-1.0401813987471162
1761468725114168000,6.64316796875,0.0887140562415123,1.7406483198195695,-0.9458336474675685
1761468725124125200,6.653125244140625,0.9186065447807311,1.7060127675071357,-0.7899066612400114
1761468725134081000,6.6630810546875,1.6242594901889562,1.6843309509225188,-0.6537229978151619
1761468725144038100,6.6730380859375,2.0744284390091896,1.6966227156102656,-0.6299282807298004
1761468725153994200,6.682994140625,2.2274971862614152,1.717509290163964,-0.6714127490889281
1761468725163951000,6.692951171875,2.1232377703636884,1.769998917466402,-0.7232029959503561
1761468725173907200,6.7029072265625,1.8685440473705528,1.8103161686770617,-0.7550058090548962
1761468725183864000,6.712864013671875,1.4510913732379673,1.7711140391014515,-0.7632350004788487
1761468725193820200,6.722820068359375,0.9696791448920965,1.7211955774612724,-0.7294330494463444
1761468725203777300,6.73277734375,0.5704302359700203,1.6510554349169133,-0.7587845238760114
1761468725213733000,6.742733154296875,0.3468634726464748,1.51844144667238,-0.8523681589152663
1761468725223689200,6.752689208984375,0.3359755834072828,1.313184247021377,-0.9113160955116152
1761468725233646000,6.76264599609375,0.4439356073886156,1.0613798157289625,-0.9054956457298249
1761468725243602200,6.772602294921875,0.639338937023282,0.8237783895730971,-0.812277702197805
1761468725253559000,6.78255908203125,0.8813093720436096,0.6250178584650159,-0.7103217409368604
1761468725263515100,6.79251513671875,1.0607535005241633,0.3673752225384116,-0.4566712433863431
1761468725273472300,6.80247216796875,1.1879776124238968,0.20860753299221396,-0.2412102825690992
1761468725283428000,6.812427978515625,1.2384078229784965,0.06276230725273489,-0.15505385665483773
1761468725293385200,6.82238525390625,1.2088076344847678,-0.14886092029884457,-0.27246247605355456
1761468725303341000,6.832341064453125,1.071158574682474,-0.33777021173909305,-0.42504415217489
1761468725313298200,6.842298095703125,0.8897808477908372,-0.44877837124466896,-0.4519483430502936
1761468725323254300,6.852254150390625,0.6148001235723495,-0.5057645793139934,-0.43551425439342856
1761468725333210000,6.862210205078125,0.20903379558026788,-0.5707093451723456,-0.4373641931090504
1761468725343167200,6.872167236328125,-0.2071259161323309,-0.6736354666396975,-0.4419955792367458
1761468725353123000,6.882123046875,-0.5123515564888715,-0.7659082382760941,-0.4812826106168329
1761468725363080200,6.892080078125,-0.6808066734433174,-0.848666308722645,-0.5295189643889665
1761468725373036000,6.9020361328125,-0.676208239737153,-0.9091285223394632,-0.5568529615163803
1761468725382993200,6.9119931640625,-0.5853893201708793,-0.9369375896327197,-0.49497225940376516
1761468725392949200,6.92194921875,-0.47094928652048107,-0.8857001543484627,-0.3807197842147201
1761468725402906000,6.931906005859375,-0.24912907460331915,-0.7536885159112513,-0.28105841843066737
1761468725412862200,6.9418623046875,-0.02230535531044006,-0.7029271737061441,-0.16034670236594975
1761468725422819000,6.951819091796875,0.13851999741792678,-0.7106586447410285,-0.08429645899496972
1761468725432775200,6.961775146484375,0.19535539883971212,-0.8464452716723084,-0.13041467896881512
1761468725442731300,6.971731201171875,0.19005612338781355,-0.9496623389102518,-0.2557692615364678
1761468725452688100,6.981688232421875,-0.008064063990116119,-0.9536813652932643,-0.30800971811711786
1761468725462644200,6.991644287109375,-0.3844564134597778,-0.9124190883174538,-0.280100715847034
1761468725472601000,7.00160107421875,-0.5634288327753544,-0.8152167513243853,-0.11311056601176969
1761468725482557200,7.01155712890625,-0.47553719883263107,-0.6623185383334755,0.07191191059038973
1761468725492514000,7.02151416015625,-0.2917009728729725,-0.5310751077897846,0.2193033337254077
1761468725502470100,7.03147021484375,-0.10317980396747589,-0.44500411340296264,0.3924368177544325
1761468725512427300,7.04142724609375,0.05574702166318893,-0.299126446698606,0.5748270461568609
1761468725522383000,7.051383056640625,0.19387305132746696,-0.1367277071736753,0.6035657589830458
1761468725532339700,7.061339599609375,0.20065642785727977,-0.053769876371324056,0.45592901018429544
1761468725542295800,7.0712958984375,0.1217535715341568,-0.08057838831990957,0.2130984512032941
1761468725552252000,7.081251953125,0.16340192521810532,-0.27424101176708937,0.009359083653159905
1761468725562208800,7.091208740234375,0.38407062901258465,-0.5456301412343979,-0.02804689235383412
1761468725572165000,7.1011650390625,0.6760322986483573,-0.7080754963800311,-0.013038877277600112
1761468725582121700,7.111121826171875,0.8160808208078145,-0.6208673146568239,-0.12127678433526307
1761468725592078000,7.121078125,0.36195465879440303,-0.30923209951892494,-0.23845765939271077
1761468725602034700,7.13103466796875,-0.6223042155921459,0.0471975122436881,-0.4128385314006358
1761468725611991000,7.140990966796875,-1.7073855171650647,0.4505781141430139,-0.5380358136478811
1761468725621948000,7.150947998046875,-2.5060019929528234,0.9213976368039846,-0.596302051590383
1761468725631904000,7.160904052734375,-2.6726415849179026,1.4995403468474744,-0.7494559929080307
1761468725641860900,7.17086083984375,-2.058233675533533,1.8932500340819358,-0.6220519213315099
1761468725651817000,7.18081689453125,-0.8688397665709257,1.8876335093744099,-0.14639714226750655
1761468725661773000,7.19077294921875,0.4837988312214613,1.911604898200929,0.08423174146199598
1761468725671730000,7.20072998046875,1.5052023181319236,1.827523908587545,0.191148667864874
1761468725681686000,7.21068603515625,1.898523590570688,1.5170400554418564,0.3591214811950922
1761468725691643000,7.220642822265625,1.8860902254551648,1.3486144568428395,0.34592067537102844
1761468725701599000,7.230598876953125,1.754535975396633,1.3586680872149766,0.16346543717468157
1761468725711555800,7.240555908203125,1.577595354169607,1.2715430537305772,0.010568740287423134
1761468725721512000,7.250511962890625,1.3208283320337533,1.1417841626562177,-0.18321202964670955
1761468725731468800,7.26046875,0.8927917200446128,1.0827414604485035,-0.509598896779865
1761468725741425000,7.2704248046875,0.329857977309823,0.9486315345577895,-0.9094919488243758
1761468725751381800,7.2803818359375,-0.298818695923686,0.7528865518786013,-1.3604692914180456
1761468725761338000,7.290338134765625,-0.8174369115918875,0.6850858120672404,-1.7787527172863482
1761468725771294000,7.3002939453125,-1.1154869612306355,0.588822363359481,-2.057783155287057
1761468725781251000,7.3102509765625,-1.0541080711603164,0.40342327199727296,-2.306164918654412
1761468725791207000,7.32020703125,-0.7386907071352005,0.24378815196678041,-2.3456961340539157
1761468725801164000,7.3301640625,-0.25501462551057336,0.05706234204545617,-2.202367275049537
1761468725811119900,7.340119873046875,0.38466684134006496,-0.12955401615202425,-2.052498054490983
1761468725821077000,7.350076904296875,0.9059189126431941,-0.24271043973267076,-1.8039822894804178
1761468725831033000,7.360033203125,1.2762357415914536,-0.3951306599482894,-1.4787446654476224
1761468725840990000,7.369989990234375,1.5031132368981837,-0.5378006166525184,-1.1446380177173763
1761468725850946000,7.379946044921875,1.5175971048027277,-0.5985860708743334,-0.885515153170377
1761468725860903000,7.38990283203125,1.2590443682938814,-0.5523104957811534,-0.7471521729450672
1761468725870859000,7.39985888671875,0.8689701149523258,-0.43856721222326156,-0.7856639091037213
1761468725880814800,7.40981494140625,0.5436819297760724,-0.30251053617894647,-0.9138179953299462
1761468725890772000,7.41977197265625,0.28130934271812436,-0.28017317829504607,-1.016944753935933
1761468725900728000,7.42972802734375,0.05060615164339542,-0.20655045433193445,-1.0935840492412447
1761468725910685000,7.439684814453125,-0.20908874063789842,-0.12857611103057862,-1.1975930705744773
1761468725920641000,7.44964111328125,-0.535236172991991,-0.12469883120581507,-1.2582327596500515
1761468725930598000,7.459597900390625,-0.7972539552628993,-0.12119155373722314,-1.2390402756631373
1761468725940554000,7.469553955078125,-0.8024047621548175,-0.09137114662155509,-1.078217114891857
1761468725950511000,7.479510986328125,-0.5011293207287788,-0.09064239395558833,-0.7851302406184375
1761468725960467000,7.489467041015625,-0.1373778416454792,-0.0892711056023836,-0.48862175786588335
1761468725970424000,7.499424072265625,0.09025017976760864,-0.058610448270291084,-0.28204017774332313
1761468725980380000,7.5093798828125,0.2232026061862707,-0.04298310941904783,-0.10366857386510818
1761468725990336800,7.519336669921875,0.2457242345958948,-0.030466449934244154,-0.0791048451686278
1761468726000292900,7.52929296875,0.19600012648403645,-0.0555064909055829,-0.12382168304510414
1761468726010249000,7.5392490234375,0.14513678520917891,-0.132486270211637,-0.14086111718397587
1761468726020206000,7.5492060546875,0.09227671715915202,-0.18093422090783715,-0.15889193698037415
1761468726030162000,7.559161865234375,-0.036734862679243085,-0.16860373164489864,-0.20009254689682274
1761468726040119000,7.569119140625,-0.32072891443669793,-0.12697817431464792,-0.22457681714892386
1761468726050075000,7.579074951171875,-0.5477642306536435,-0.00782441001534462,-0.2983487768569961
1761468726060032000,7.589031982421875,-0.7696341269314289,0.1346978087812662,-0.3214149970047176
1761468726069988000,7.598988037109375,-1.0882435649961233,0.27455694584846496,-0.2852735336413607
1761468726079945000,7.608945068359375,-1.5462363393098115,0.3752316351272166,-0.2204292324827984
1761468726089901000,7.618901123046875,-1.8122101657301186,0.395545378229022,-0.15754918060190976
1761468726099858000,7.62885791015625,-1.7615572523355483,0.4278390435904264,-0.055719731797464186
1761468726109814000,7.63881396484375,-1.5819044495403767,0.44208807982578874,-0.03766743082161993
1761468726119769900,7.648769775390625,-1.744869736906886,0.49210751762241123,-0.15313969359658658
1761468726129727000,7.65872705078125,-1.937079238936305,0.3868346868984401,-0.47308494684230534
1761468726139683000,7.66868310546875,-2.087432297489047,0.3385531788103282,-0.6764817959815264
1761468726149640000,7.678639892578125,-2.219726552259922,0.3799218387700617,-0.8082213394790887
1761468726159596000,7.688595947265625,-2.4038930330872534,0.6071884795248508,-0.829350855943188
1761468726169553000,7.698552978515625,-2.6485405783623457,0.9995099272713065,-0.7034238711819052
1761468726179509000,7.708509033203125,-2.773112129926681,1.4836122714839874,-0.4979691031321883
1761468726189466000,7.718466064453125,-2.709732421427965,1.8759025934398172,-0.3024129210233688
1761468726199422000,7.728421875,-2.373214986228943,2.0792513291209933,-0.22296466924455016
1761468726209379000,7.738379150390625,-1.5976491311609744,2.1012942341029643,-0.37589397149346765
1761468726219335000,7.7483349609375,-0.4679600415766239,1.9353841254562139,-0.5969326776441186
1761468726229291000,7.758291015625,0.6923059725791215,1.6376511789426207,-0.71993895265311
1761468726239248000,7.768247802734375,1.6199007104575633,1.2612326721183955,-0.8998654578231274
1761468726249204000,7.778203857421875,2.3379817602843045,0.9220131383538246,-1.0957227417703717
1761468726259161000,7.7881611328125,2.71716461725533,0.6466494061671197,-1.2666302933782339
1761468726269117000,7.798116943359375,2.8594536118179557,0.4637012150883674,-1.4246807745657861
1761468726279074000,7.808073974609375,2.86828632209301,0.4325575965449214,-1.5192285053968428
1761468726289030000,7.81802978515625,2.755073199889064,0.44932840634286403,-1.5360802714765072
1761468726298987000,7.827987060546875,2.4656916098743675,0.42804932534024115,-1.440358966821432
1761468726308942800,7.83794287109375,2.044184691914916,0.457584778034687,-1.2738900552481411
1761468726318900000,7.84789990234375,1.5172498988002538,0.4736697975255549,-1.1824847871612756
1761468726328856000,7.85785595703125,0.934645825433731,0.47298707595840095,-1.1045786867905407
1761468726338812000,7.86781201171875,0.4480997413307428,0.44716172982826824,-1.1711284036274998
1761468726348769000,7.87776904296875,0.22773908057212827,0.33043680011108517,-1.2436154746241868
1761468726358724900,7.887724853515625,0.3803694364070892,0.10633403021469712,-1.186774374113977
1761468726368682000,7.897681884765625,0.8243108890146017,-0.13538871365487576,-0.967120619515702
1761468726378637800,7.907637939453125,1.336149819806218,-0.27462562717050315,-0.7150672549635172
1761468726388595000,7.917594970703125,1.7519570648193359,-0.39128172943517564,-0.4961265074728056
1761468726398551000,7.927551025390625,2.107126593518257,-0.5508035983495414,-0.2776276950633153
1761468726408508000,7.9375078125,2.2414380333304402,-0.8107293767772614,-0.10625180442449636
1761468726418464000,7.947464111328125,2.038642255356908,-1.049141242533177,-0.06447017061654478
1761468726428420900,7.9574208984375,1.5865210034251211,-1.1896182192377744,-0.10113291790764778
1761468726438377000,7.967376953125,1.0108365001887083,-1.2309978389829397,-0.17554118449157102
1761468726448332800,7.977332763671875,0.2716097864806652,-1.2785286748342215,-0.18412775625213978
1761468726458290000,7.9872900390625,-0.4044382942587137,-1.334999480727315,-0.14216401647608726
1761468726470111700,7.99911181640625,-1.0022311689287424,-1.3887068132564424,0.006120967098325491
1761468726480068900,8.00906884765625,-1.2356377737432718,-1.4689038010433315,0.17445976419672368
1761468726490024700,8.019024658203126,-1.2223971838980912,-1.5969303153671324,0.3313732407109812
1761468726499981800,8.02898193359375,-1.0148767154902218,-1.7363900778532027,0.3845583029316738
1761468726509938000,8.03893798828125,-0.7226946811020374,-1.953371617567539,0.35832408373970537
1761468726519894800,8.048894775390625,-0.417848979973793,-2.161224532800168,0.3586981777491048
1761468726529851000,8.058850830078125,-0.2530728437930345,-2.313887475730479,0.3325724604329094
1761468726539808000,8.06880810546875,-0.2778004578143358,-2.411057225628197,0.3064598583266139
1761468726549763800,8.078763916015625,-0.5316898786872625,-2.3556731920585037,0.2619283504217863
1761468726559721000,8.088720947265625,-0.8556354170829057,-2.2045719454869626,0.05522436776226386
1761468726569677000,8.098677001953124,-1.214337211561203,-2.0566662800863384,-0.23039816197985782
1761468726579633000,8.1086328125,-1.5654957510530947,-1.8771815273344516,-0.501888030141592
1761468726589590000,8.118590087890626,-1.8063503337860107,-1.6703841125041246,-0.6265218332871795
1761468726599545900,8.1285458984375,-1.8665771312117576,-1.5398467844031751,-0.6543515780422836
1761468726609503000,8.1385029296875,-1.7313199349820614,-1.5001665159218012,-0.5904919040068983
1761468726619458800,8.148458740234375,-1.4818915851712227,-1.3762801701426506,-0.6237471078768372
1761468726629416000,8.158416015625,-1.4774749377727507,-1.1308727464109658,-0.7037243884984403
1761468726639372000,8.1683720703125,-2.1011837594658136,-0.7992169258989393,-0.7658519780442118
1761468726649329000,8.178328857421874,-2.950077885594964,-0.33972266098111864,-0.9328205827679484
1761468726659285000,8.188284912109374,-3.6650153766989706,0.2349329375989735,-1.2651232498161493
1761468726669240800,8.19824072265625,-4.001359208896756,0.8325280977398156,-1.6760376082211732
1761468726679198000,8.208197998046876,-3.638908291018009,1.3151855038411915,-1.9305533442988991
1761468726689153800,8.21815380859375,-2.502011462011933,1.4859149954684079,-1.8010899290397762
1761468726699111000,8.22811083984375,-0.7877724256902933,1.393162185230106,-1.330972417168319
1761468726709067000,8.23806689453125,0.9599871874392032,1.3296947984479366,-0.787808373786509
1761468726719023900,8.24802392578125,2.3650188202917573,1.0839996438160537,-0.09393538935268297
1761468726728980000,8.25797998046875,3.2946833501815793,0.8798169415287673,0.49332887611091136
1761468726738937000,8.26793701171875,3.6758424756616352,0.8551981947094202,0.9027594987642019
1761468726748893000,8.277892822265626,3.501515251803398,0.902766439961642,1.0912391666155308
1761468726758850000,8.28785009765625,2.9065567237764594,1.0311652947291732,0.8364084463045001
1761468726768806000,8.297805908203125,2.235528517025709,0.9454109650760889,0.3768840785093605
1761468726778763000,8.307762939453125,1.6836697105348108,0.6527976996637881,-0.03390040643829852
1761468726788718800,8.31771875,1.1831126367360352,0.4345310885749757,-0.5920068020818755
1761468726798675000,8.327675048828125,0.82677581782341,0.2395519757017493,-1.0921293934535234
1761468726808632000,8.337632080078125,0.3900982187390327,0.017879647822678087,-1.4614382874682545
1761468726819211000,8.3482109375,-0.020333178454637526,-0.06885507116988301,-1.6245087887749075
1761468726829167000,8.3581669921875,-0.16591712290942667,-0.12294278131872415,-1.5070485305204986
1761468726839124000,8.3681240234375,-0.0056219315350055695,-0.23392872899249195,-1.1619823896195738
1761468726849080000,8.378080078125,0.3557762624204159,-0.287626855301857,-0.77245765991956
1761468726859037000,8.388036865234374,0.7161281621932983,-0.2680852656163275,-0.41998358084969223
1761468726868993000,8.397992919921874,1.0710329024761915,-0.29000308291390536,-0.11027283096835017
1761468726878950100,8.4079501953125,1.405503926539421,-0.40949440860450265,0.10458992649372667
1761468726888906000,8.417906005859376,1.678173451206088,-0.5618475549332798,0.2678193812217563
1761468726898863000,8.427863037109375,1.789596182861924,-0.6965798505060374,0.41745311252400275
1761468726908819000,8.43781884765625,1.6748440145224333,-0.7761614828735589,0.43296267021447415
1761468726918775000,8.447775146484375,1.31225573399961,-0.7946013949275016,0.3381196096986532
1761468726928732000,8.45773193359375,0.915814868235588,-0.7975115832857788,0.31370062323510645
1761468726938688000,8.46768798828125,0.4994312846392393,-0.7926794869542121,0.3149766345202923
1761468726948645000,8.47764501953125,-0.03494271856546402,-0.724236065325141,0.25938568020164965
1761468726958601000,8.48760107421875,-0.5262397965878248,-0.6291818462766706,0.1590179379802197
1761468726968558000,8.49755810546875,-0.6463450163930654,-0.5555914902132004,0.11665171835049987
1761468726978514000,8.507513916015625,-0.5021913970023393,-0.5717234175857157,0.09594853753969072
1761468726988471000,8.517470947265625,-0.24246201792955396,-0.6317331381946801,0.117192766424641
1761468726998427000,8.527427001953125,0.05440495940446853,-0.6513977697379887,0.10299279349539428
1761468727008384000,8.537384033203125,0.34422494083642957,-0.6759693164147437,0.06617306554429232
1761468727018340000,8.547340087890625,0.525765749335289,-0.7139305060185491,0.01308470516372472
1761468727028297000,8.557296875,0.6254734932780266,-0.8193952060528099,-0.07051156967263668
1761468727038253000,8.567253173828124,0.5676356368154287,-0.9200110047511756,-0.18182459387630223
1761468727048209000,8.577208984375,0.22604455161392686,-0.9475174358360469,-0.23550759568177163
1761468727058166000,8.587166015625,-0.2361310613423586,-0.8654362417377531,-0.3079256930954754
1761468727068121900,8.597121826171875,-0.6553484070599078,-0.7453057413607835,-0.32118447618447243
1761468727078079000,8.607078857421875,-1.0676210482060908,-0.7387932907268404,-0.34099911065772176
1761468727088035000,8.61703515625,-1.4356506430000067,-0.7433511001616716,-0.4604011506296694
1761468727097992000,8.626991943359375,-1.6614321597635746,-0.7173490822903812,-0.6315203722268342
1761468727107948000,8.636947998046875,-1.9562001189917324,-0.7078603923246264,-0.7626255633436143
1761468727117905200,8.6469052734375,-2.3240368215620517,-0.647080637191236,-0.9012628304656595
1761468727127861000,8.656861083984374,-2.468560443308949,-0.5560401838287711,-1.028171592805907
1761468727137818000,8.666818115234374,-2.488164138445258,-0.44617520300894975,-0.9701404787935316
1761468727147774000,8.67677392578125,-2.255301723510027,-0.5049985633775591,-0.8961573970854282
1761468727157731000,8.68673095703125,-1.676411117708683,-0.5973248187668622,-0.9955739760618656
1761468727167687000,8.69668701171875,-1.0165139613032341,-0.6147748430006206,-1.1104957288146018
1761468727177643000,8.70664306640625,-0.660350160869956,-0.6348430869087577,-1.268400664051622
1761468727187600100,8.71660009765625,-0.8357336157828569,-0.5988166647598147,-1.3445089212201535
1761468727197556000,8.726555908203125,-1.3609405621916055,-0.2965283930294216,-1.4117857832878826
1761468727207513000,8.73651318359375,-1.9567203434735536,0.1925361036352813,-1.414858614861965
1761468727217469000,8.746468994140624,-2.416089082315564,0.6540965073026717,-1.228290187459439
1761468727227426000,8.756426025390626,-2.528513684490323,1.2804732330307365,-1.0717890546057374
1761468727237382000,8.7663818359375,-2.2215029142826794,1.8413976817697286,-0.8337846006069332
1761468727247339000,8.776339111328125,-1.5784896726608275,2.142496305324137,-0.5673691678989679
1761468727257295000,8.786295166015625,-0.7923550773054361,2.237518814060092,-0.4222754181139171
1761468727267252000,8.796251953125,-0.032985739278793336,2.218240551485866,-0.5234885251183062
1761468727277208000,8.8062080078125,0.5628472334951162,2.0001095494754613,-0.6901407573692501
1761468727287164000,8.816163818359374,0.9962725527852773,1.7226484066180885,-0.835410302112624
1761468727297121000,8.82612109375,1.3295698568940162,1.44343574391827,-1.063596688060835
1761468727307076900,8.836076904296876,1.715753532537818,1.1992708675935864,-1.1276626983232796
1761468727317034000,8.846033935546876,2.1099498342454432,1.060914244043827,-1.0743632890079169
1761468727326990000,8.855989990234375,2.431018355900049,0.9567870762236416,-0.8790958607126027
1761468727336947000,8.865947021484375,2.5352029529958964,0.9530812074430286,-0.6267150908369571
1761468727346903000,8.875903076171875,2.4144085818827152,1.0461274476699531,-0.273479818136245
1761468727356860000,8.88585986328125,2.074776229533553,1.1533002667963503,0.08252528460398316
1761468727366816000,8.89581591796875,1.6451391966104507,1.2261157660298048,0.3632402416255325
1761468727376773000,8.905773193359375,1.2854863850176335,1.2542625408448278,0.5176076503861695
1761468727386729000,8.91572900390625,0.9485118537008762,1.1389091917417944,0.6065700553655624
1761468727396686000,8.92568603515625,0.7022627184480428,0.8674924436151981,0.5610582311864942
1761468727406642000,8.935641845703126,0.5932330194085836,0.5108766616307199,0.39968525451272724
1761468727416599000,8.94559912109375,0.554966124856472,0.1219122692272067,0.23442557259872554
1761468727426555000,8.955554931640625,0.5751788918018341,-0.17784984502643345,0.14546338681504128
1761468727436511000,8.965510986328125,0.5633908388525247,-0.38641777666062116,0.08055135418251157
1761468727446468000,8.975468017578125,0.5969762975901365,-0.6710521721482277,0.06875504486151039
1761468727456424000,8.985423828125,0.6456587876945734,-0.9100817314110696,0.1122767181366682
1761468727466381000,8.995381103515625,0.6832786165148019,-1.0595077382467686,0.18008370502572504
1761468727476337000,9.0053369140625,0.6460936719805002,-1.1600003489568829,0.3681607103602961
1761468727486294000,9.0152939453125,0.4969523273050785,-1.2819586492829025,0.49713367522135377
1761468727496249900,9.025249755859376,0.23947744916081426,-1.3168515373572707,0.5641029691772536
1761468727506207000,9.03520703125,-0.21494272736310957,-1.390362179248035,0.5850543891280889
1761468727516163000,9.0451630859375,-0.6727478701502084,-1.48092171722576,0.585117846285738
1761468727526120000,9.055119873046875,-0.9771674548208713,-1.4993655748024581,0.516034701981023
1761468727536076500,9.06507666015625,-1.0489087489515543,-1.4409690615437925,0.4676805670481175
1761468727546032400,9.075032470703125,-0.9380261155217885,-1.4282856671899555,0.47754342408850786
1761468727555989500,9.084989501953125,-0.9004512948870659,-1.477544642008096,0.48046256293822076
1761468727565945600,9.094945556640624,-0.9164163412600755,-1.4485282447516918,0.3902249138586223
1761468727575902500,9.10490234375,-1.1634160026192664,-1.3471050751931966,0.29587687031812965
1761468727585858600,9.114858642578126,-1.6451485489606856,-1.1694340938650072,0.2386371258791536
1761468727595815400,9.1248154296875,-2.0850836885362862,-0.9235942700654268,0.10823920624889433
1761468727605771500,9.134771484375,-2.3305554096758363,-0.659209612532705,-0.01478438522107899
1761468727615728600,9.144728759765625,-2.3796377127528188,-0.5164785732910037,-0.05053768951706588
1761468727625684500,9.1546845703125,-2.240759403416514,-0.42191520649939773,-0.029968583414703605
1761468727635641600,9.1646416015625,-2.052108470651507,-0.4249988517284393,0.10282777565941215
1761468727645597400,9.174597412109375,-1.9900772541522977,-0.37701603432595726,0.27935682041086257
1761468727655554600,9.184554443359374,-2.1086358290374276,-0.23672566623464225,0.3450977781482041
1761468727665510400,9.194510498046874,-2.2652672372072935,0.030252514922618864,0.30073395496048033
1761468727675466500,9.204466552734376,-2.4045143798559905,0.3712918114602566,0.17564700121991336
1761468727685423600,9.214423583984376,-2.553890702331066,0.6715117524839938,0.032228564235940574
1761468727695379500,9.22437939453125,-2.654567583566904,0.9206677150942385,-0.1167174039978534
1761468727705336600,9.234336669921875,-2.5013556284517047,1.1396717005468904,-0.36807182650044556
1761468727715292400,9.24429248046875,-2.0625462780356405,1.3589613710731268,-0.6342903483968227
1761468727725249500,9.25424951171875,-1.3806208296954632,1.45665821358487,-0.6858808349024504
1761468727735205400,9.264205322265624,-0.587021889808774,1.4464754038751124,-0.5377981324344873
1761468727745162500,9.27416259765625,0.23891630814671516,1.4531260939359665,-0.5183319460727274
1761468727755118600,9.28411865234375,0.8838853600114583,1.4916818884320555,-0.47613516472578044
1761468727765075500,9.294075439453126,1.2332301280796527,1.5553654021829366,-0.340698739471659
1761468727775031600,9.304031494140625,1.3908289199769497,1.6245171182118354,-0.19850692167319356
1761468727784988400,9.313988525390625,1.490332081258297,1.7374455782555043,-0.02895874878503382
1761468727794944500,9.323944580078125,1.6338152540415525,1.7791482924751936,0.1436237502977252
1761468727804900400,9.333900390625,1.7096850262790917,1.7408461804792283,0.28674108544327315
1761468727814857500,9.343857421875,1.7203905446887016,1.6625779687978326,0.3677656831607222
1761468727824813600,9.3538134765625,1.525899069201946,1.5532085164099931,0.3543102084558457
1761468727834770400,9.3637705078125,1.35136434007287,1.4972132190741598,0.12315759311318397
1761468727844726500,9.3737265625,1.3311691087841986,1.4007428496174514,-0.018830445741489527
1761468727854683600,9.38368359375,1.3893378046363591,1.2549050765320657,-0.02285904367044568
1761468727864639500,9.393639404296875,1.6586363915652036,1.0586446916766463,-0.17506043350361286
1761468727874596600,9.4035966796875,1.98578394087255,0.8246982808969915,-0.2995410188488662
1761468727884552400,9.413552490234375,2.2351637753665448,0.5807651675015688,-0.3902504136260599
1761468727894509600,9.423509521484375,2.39504044906795,0.45385596676990386,-0.4265152476407587
1761468727904465400,9.43346533203125,2.5117706394821404,0.4947644618719816,-0.2653299755588174
1761468727914421500,9.44342138671875,2.553832250142097,0.5772044062800705,0.037737683046236634
1761468727924378600,9.453378662109374,2.3820430203288794,0.6708152946524322,0.30718313109986484
1761468727934334500,9.46333447265625,2.0513936003804205,0.7647535152830183,0.5599603529471904
1761468727944291600,9.47329150390625,1.6116817481666803,0.8412702071219682,0.7268281276449561
1761468727954247400,9.483247314453125,1.1937684707850218,0.7765043049618602,0.6887089710004627
1761468727964204500,9.49320458984375,0.9103022422939538,0.6355125106029212,0.6059696783196181
1761468727974160400,9.503160400390625,0.7246095748126506,0.5259137795038521,0.5709913039188832
1761468727984117500,9.513117431640625,0.6270651463836431,0.353226577937603,0.4793614332959056
1761468727994073600,9.523073486328125,0.6275380245923996,0.10172960515916347,0.24088738902397452
1761468728004030500,9.533030517578124,0.6812216839849948,-0.17089900297522545,0.0018980156410485505
1761468728013986600,9.542986572265624,0.6873737768739462,-0.4396599758960306,-0.20770108567178247
1761468728023943400,9.552943359375,0.729640554717183,-0.6293497501894831,-0.37200397831760346
1761468728033899500,9.5628994140625,0.7724521069616079,-0.7124569263346493,-0.3519521010223776
1761468728043855400,9.57285546875,0.7406061853677034,-0.6823819599360227,-0.15134922998324035
1761468728053812500,9.5828125,0.6008148528397083,-0.5623430833652615,0.13569529538601635
1761468728063768600,9.5927685546875,0.4590051662266254,-0.43285161105543374,0.41152503764927384
1761468728073725400,9.602725341796875,0.43620238278806206,-0.35646804407685995,0.6271621770173311
1761468728083681500,9.612681640625,0.41396132488548754,-0.3634320378705859,0.8278462235338986
1761468728093638400,9.622638427734374,0.4193962094157934,-0.37668417202308774,0.9947157517973333
1761468728103594500,9.632594482421876,0.3646002048671245,-0.40878231481239197,0.9949433500081301
1761468728113551600,9.642551513671876,0.24548341157734394,-0.5117341552428901,0.7916080583304166
1761468728123507500,9.652507568359376,0.1270779814273119,-0.691288904491067,0.5986568710882216
1761468728133464600,9.662464599609375,-0.04096621663868427,-0.9145148915529251,0.3956918009623885
1761468728143420400,9.67242041015625,-0.3412058852761984,-0.9263527019280939,0.173931356408447
1761468728153376500,9.68237646484375,-1.015769864937663,-0.7916328274454921,-0.1385053843706846
1761468728163333400,9.69233349609375,-2.0639602364867926,-0.4759897649057209,-0.3030826369784772
1761468728173289500,9.70228955078125,-2.9214059178620575,-0.15751337863616643,-0.5088784735508263
1761468728183246600,9.71224658203125,-3.301405351912975,-0.05683189429044723,-0.4934790982365608
1761468728193202400,9.722202392578126,-3.1276345928937195,-0.22022096002697944,-0.3336338425867259
1761468728203159600,9.73215966796875,-2.527816349875927,-0.36591187198758124,-0.22897022980228066
1761468728213115400,9.742115478515625,-1.830361323970556,-0.4729341767273843,-0.17937369359284638
1761468728223072500,9.752072509765625,-1.1242921989768744,-0.7753986818075179,-0.13471117971949279
1761468728233028400,9.7620283203125,-0.4597510161578655,-1.0680135546550154,-0.12201806768923998
1761468728242985500,9.7719853515625,0.13129998303651808,-1.1654846255868672,-0.2384427723508328
1761468728252941600,9.781941650390625,0.4120815024882555,-1.0854574414089322,-0.3417482485245913
1761468728262898400,9.7918984375,0.201553084436059,-0.84777111344859,-0.362445730246976
1761468728272854500,9.8018544921875,-0.5468091218858957,-0.4009840621516108,-0.5183581034272909
1761468728282810400,9.811810302734376,-1.4987375060319899,0.05374678775668144,-0.7597323261201381
1761468728292767500,9.821767578125,-2.391395955085754,0.561204434724152,-0.8602620539702475
1761468728302723300,9.831723388671875,-2.9982407357394694,1.2184626209281384,-0.9245596079662441
1761468728312680400,9.841680419921875,-3.2819355122894045,1.7320692920446394,-0.8728812970466912
1761468728322636500,9.851636474609375,-2.997235942611098,2.025053728856891,-0.7181263502731919
1761468728332593400,9.861593505859375,-2.141237537434697,2.1100237762644887,-0.4602653954207897
1761468728342549500,9.871549560546875,-0.9923965881347656,2.091360722979158,-0.3105892132163048
1761468728352506600,9.881506591796875,0.24399580336809157,1.9557731257513165,-0.23430691465511916
1761468728362462500,9.89146240234375,1.3714566955089569,1.6683344864979386,-0.17918248186968266
1761468728372419600,9.901419677734374,2.203098073542118,1.3988538210004566,-0.09487820489443838
1761468728382375400,9.91137548828125,2.640686357730627,1.2468524107187986,0.03231901899836957
1761468728392331500,9.92133154296875,2.6769676314234734,1.2040366206906734,0.046276086549833416
1761468728402288400,9.931288330078125,2.4172972890615463,1.268236705661565,-0.13512472895644603
1761468728412244500,9.941244384765625,1.9845143593281507,1.2986030562222004,-0.29127134928405285
1761468728422201600,9.95120166015625,1.6217337711036204,1.2875028394065797,-0.36217816535197195
1761468728432157400,9.961157470703125,1.2995301079392432,1.1911809385098515,-0.446339234464243
1761468728442114600,9.971114501953124,1.0690957969337702,1.0374148566432297,-0.6713001555599272
1761468728452070400,9.9810703125,1.0041209281980992,0.8788906204640865,-0.8346456013504415
1761468728462027500,9.991027587890626,1.015951066723466,0.7610569988526403,-0.9225622236039489
1761468728471983400,10.0009833984375,1.0881120475709438,0.5493732732854784,-0.8899163838040083
1761468728481940500,10.0109404296875,1.164908871525526,0.4514322467543184,-0.7424781897846608
1761468728491896600,10.020896484375,1.2896288916498422,0.41258477583527564,-0.555134905552119
1761468728501852400,10.030852294921875,1.4361580080002545,0.2975175501972437,-0.36548020257204766
1761468728511809500,10.0408095703125,1.5957015042245386,0.1877496000111103,-0.23337818243764338
1761468728521765400,10.050765380859374,1.738586711114645,0.08087590996176004,-0.17686485257707535
1761468728531722200,10.06072216796875,1.7839520394951105,-0.027963965594023466,-0.09122107062637805
1761468728541678000,10.070677978515626,1.718526504382491,-0.1170550384543836,-0.01683079635687172
1761468728551635200,10.08063525390625,1.4442641575664281,-0.12863397869765758,0.07192213059030472
1761468728561591000,10.090591064453125,0.9032400488227605,-0.19508432681336998,0.06428206416592001
1761468728571548200,10.100548095703125,0.3571341067701578,-0.3104869218856096,-0.03885265855081379
1761468728581504300,10.110504150390625,0.005729483562707901,-0.3664399875149131,-0.09109664052911103
1761468728591461000,10.120461181640625,-0.12019114452302455,-0.44387715519964693,-0.12006876025237143
1761468728601417200,10.130417236328125,-0.16442366948127746,-0.6810011731021106,-0.05398629560098052
1761468728611374000,10.1403740234375,-0.27012919253408907,-0.847403741440922,0.029412191640958187
1761468728621330200,10.150330078125,-0.3896837927192449,-0.9422352576494216,0.06681370153538882
1761468728631286300,10.160286376953126,-0.3969803794682026,-1.107133997296542,0.039665290107950564
1761468728641243100,10.1702431640625,-0.25679332562088963,-1.2797431651905178,-0.005926248243823647
1761468728651199200,10.18019921875,0.012315876215696334,-1.4430541972547768,-0.0437140540421009
1761468728661156000,10.190156005859375,0.18904490051865577,-1.6487933352038264,-0.1370673874568194
1761468728671112200,10.2001123046875,0.2066238118290901,-1.8284541751749812,-0.30128340553678573
1761468728681069000,10.210069091796875,0.0816682293832302,-1.997726453731209,-0.46098282297514376
1761468728691025200,10.220025146484375,-0.2834124524772167,-2.0474220664009453,-0.6300559256974607
1761468728700982300,10.229982177734374,-0.7547972078055143,-1.9635726935863493,-0.6253101924750953
1761468728710938000,10.239938232421874,-1.2648334730893374,-1.8158876851990817,-0.5275400655314326
1761468728720895200,10.249895263671876,-1.7023498610854149,-1.645460245258361,-0.48905974742434916
1761468728730851000,10.25985107421875,-2.12666657576859,-1.4161460243239998,-0.5468162092138081
1761468728740807200,10.26980712890625,-2.59431623622179,-1.1707812706902623,-0.6936763841494917
1761468728750764000,10.279763916015625,-2.391491816675663,-1.1769905005939305,-0.4622068848773837
1761468728760720100,10.28972021484375,-1.8654302992641925,-1.1032117092862725,-0.1282911566093564
1761468728770677200,10.29967724609375,-1.4830612134724854,-0.8114742037951945,0.03370166899580508
1761468728780633000,10.309633056640624,-1.1703858416318893,-0.848869430079311,0.27519685118719933
1761468728790590200,10.319590087890624,-0.737408266109228,-1.0230965545639394,0.4962174006266519
1761468728800546000,10.329546142578126,-0.31012451831400395,-1.0293689128316938,0.6223816647425293
1761468728810503200,10.339503173828126,-0.16412673236131667,-0.730892016083002,0.5618794113762676
1761468728820459000,10.349458984375,-0.7232944005608558,-0.3176725956059992,0.3916162586191669
1761468728830416100,10.359416015625,-1.6622101583987474,0.040340924347192046,0.4231228287234902
