time,seconds_elapsed,z,y,x
1761468718530469400,0.059469482421875,0.020050115883350372,-0.14752162992954254,-0.18692588806152344
1761468718540426200,0.06942626953125,0.026965811848640442,-0.10737953335046768,-0.12256874889135361
1761468718550382300,0.07938232421875,0.020975125953555107,-0.0847497433423996,-0.0534234456717968
1761468718560338200,0.089338134765625,0.01500884722918272,-0.07551203668117523,0.004334126133471727
1761468718570295300,0.09929541015625,0.019341543316841125,-0.08825606107711792,0.03959491103887558
1761468718580251400,0.10925146484375,0.03133082762360573,-0.1052747294306755,0.052683815360069275
1761468718590208300,0.119208251953125,0.05334398150444031,-0.08478814363479614,0.051821161061525345
1761468718600164400,0.129164306640625,0.06527893245220184,-0.05751737579703331,0.035764429718256
1761468718610121200,0.139121337890625,0.06845516711473465,-0.042472586035728455,0.014001315459609032
1761468718620077300,0.149077392578125,0.06103906035423279,-0.006014175713062286,0.007132756523787975
1761468718630033200,0.159033203125,0.043604638427495956,0.027436546981334686,0.007010008208453655
1761468718639990300,0.168990234375,0.02435983717441559,0.015993742272257805,0.0017457375070080161
1761468718649946400,0.1789462890625,0.007595128379762173,-0.006868347059935331,0.0025002765469253063
1761468718659903200,0.1889033203125,0.012974980287253857,-0.020603865385055542,0.012208296917378902
1761468718669859300,0.198859375,0.02931474894285202,-0.02204803191125393,0.030612796545028687
1761468718679815200,0.208815185546875,0.05409173294901848,-0.02482890523970127,0.039623867720365524
1761468718689772300,0.218772216796875,0.07839296013116837,-0.03990686684846878,0.038288261741399765
1761468718699728100,0.22872802734375,0.0978018119931221,-0.057569749653339386,0.024580175057053566
1761468718709685200,0.238685302734375,0.10962361842393875,-0.06667786091566086,-0.0003109290264546871
1761468718719641300,0.248641357421875,0.11890234053134918,-0.06323279440402985,-0.02357151173055172
1761468718729597400,0.258597412109375,0.12288658320903778,-0.04550087824463844,-0.04133269563317299
1761468718739554300,0.26855419921875,0.124878890812397,-0.017296936362981796,-0.058708757162094116
1761468718749510400,0.278510498046875,0.12203686684370041,0.003929127007722855,-0.08026956021785736
1761468718759467300,0.28846728515625,0.11745996028184891,0.008877013809978962,-0.09646637737751007
1761468718769423400,0.29842333984375,0.11071579903364182,0.01021269615739584,-0.09981733560562134
1761468718779380200,0.308380126953125,0.09755632281303406,0.008230505511164665,-0.09889081865549088
1761468718789336300,0.31833642578125,0.0901106521487236,-0.004464250989258289,-0.10184106975793839
1761468718799292400,0.32829248046875,0.08730927109718323,-0.033603228628635406,-0.10139259696006775
1761468718809249300,0.338249267578125,0.0843546986579895,-0.0837894082069397,-0.09391392022371292
1761468718819205400,0.348205322265625,0.07621048390865326,-0.11632231622934341,-0.08485384285449982
1761468718829162200,0.358162353515625,0.0768251121044159,-0.11090052872896194,-0.07414238154888153
1761468718839118300,0.368118408203125,0.08589158207178116,-0.0894189402461052,-0.06949463486671448
1761468718849074400,0.378074462890625,0.08817649632692337,-0.07158245891332626,-0.07461552321910858
1761468718859031600,0.388031494140625,0.09336060285568237,-0.06841622292995453,-0.08791881054639816
1761468718868987400,0.3979873046875,0.09550818800926208,-0.06497161835432053,-0.09713639318943024
1761468718878944500,0.407944580078125,0.08867292106151581,-0.0801287367939949,-0.10792885720729828
1761468718888900400,0.417900390625,0.07987555116415024,-0.10498783737421036,-0.11077089607715607
1761468718898857500,0.427857421875,0.07453058660030365,-0.13477982580661774,-0.10313721001148224
1761468718908813300,0.437813232421875,0.06427080184221268,-0.16302460432052612,-0.08304501324892044
1761468718918769400,0.447769287109375,0.059255797415971756,-0.1715320646762848,-0.04995337501168251
1761468718928726500,0.4577265625,0.053421877324581146,-0.15362310409545898,0.00011964631266891956
1761468718938682400,0.467682373046875,0.04405287653207779,-0.11183065176010132,0.054547734558582306
1761468718948639500,0.477639404296875,0.036368150264024734,-0.06142546236515045,0.09273863583803177
1761468718958595300,0.48759521484375,0.037095457315444946,-0.0074490453116595745,0.10549997538328171
1761468718968551400,0.497551513671875,0.047678764909505844,0.03347430378198624,0.11334293335676193
1761468718978508500,0.507508544921875,0.04561188444495201,0.034857284277677536,0.11107338219881058
1761468718988464400,0.51746435546875,0.04125518724322319,0.016876544803380966,0.10880327224731445
1761468718998421500,0.52742138671875,0.03275224566459656,-0.006846094038337469,0.10953883826732635
1761468719008377300,0.53737744140625,0.017177535220980644,-0.03365248069167137,0.10066050291061401
1761468719018334500,0.54733447265625,-0.0023482292890548706,-0.05501049757003784,0.0833507552742958
1761468719028290300,0.557290283203125,-0.016564473509788513,-0.061248477548360825,0.05999666079878807
1761468719038246400,0.567246337890625,-0.027754543349146843,-0.05623587593436241,0.03081320971250534
1761468719048203500,0.57720361328125,-0.032735541462898254,-0.04999084398150444,-0.003806926077231765
1761468719058159400,0.587159423828125,-0.03745013475418091,-0.04914901778101921,-0.03565646708011627
1761468719068116500,0.597116455078125,-0.043416593223810196,-0.05196709558367729,-0.05998220667243004
1761468719078072300,0.607072265625,-0.044791582971811295,-0.05028797313570976,-0.07814522832632065
1761468719088029400,0.617029541015625,-0.048474688082933426,-0.049112021923065186,-0.09424470365047455
1761468719097985300,0.6269853515625,-0.04989735037088394,-0.05551106855273247,-0.09320234507322311
1761468719107941400,0.63694140625,-0.05048956349492073,-0.044408828020095825,-0.0719793364405632
1761468719117898500,0.6468984375,-0.05564863979816437,-0.017099708318710327,-0.033137667924165726
1761468719127854300,0.656854248046875,-0.060142114758491516,0.009903187863528728,0.00495475810021162
1761468719137811500,0.6668115234375,-0.05662993714213371,0.02156703546643257,0.03122124820947647
1761468719147767300,0.676767333984375,-0.03935130313038826,0.026045838370919228,0.05983438342809677
1761468719157723400,0.686723388671875,-0.020192788913846016,0.032118912786245346,0.08730834722518921
1761468719167680300,0.69668017578125,-0.0062001170590519905,0.04125044122338295,0.10875138640403748
1761468719177636400,0.70663623046875,0.002860489534214139,0.04596210643649101,0.11654140055179596
1761468719187593500,0.716593505859375,0.0033493447117507458,0.038801781833171844,0.10604216903448105
1761468719197549300,0.72654931640625,-0.0017479454400017858,0.0222835261374712,0.07656017690896988
1761468719207506400,0.73650634765625,-0.0115098487585783,0.015946190804243088,0.03153826296329498
1761468719217462300,0.746462158203125,-0.009756423532962799,0.026782594621181488,-0.0160130113363266
1761468719227418400,0.75641845703125,-0.005034858826547861,0.03526950255036354,-0.03657323122024536
1761468719237375200,0.766375244140625,0.0005388708668760955,0.03407720476388931,-0.021362053230404854
1761468719247331300,0.776331298828125,0.003370335791260004,0.042302075773477554,0.01996094360947609
1761468719257288400,0.786288330078125,0.002566860057413578,0.04725981876254082,0.0654972717165947
1761468719267244300,0.796244384765625,-0.0005495157092809677,0.04026336222887039,0.0961090475320816
1761468719277201400,0.806201416015625,0.0012885980540886521,0.04488074779510498,0.10954682528972626
1761468719287157200,0.8161572265625,0.014753807336091995,0.04885152354836464,0.1037382036447525
1761468719297113300,0.82611328125,0.03090721182525158,0.05644845589995384,0.09230206161737442
1761468719307070200,0.8360703125,0.04825197905302048,0.05752812325954437,0.07567384839057922
1761468719317026300,0.8460263671875,0.06435185670852661,0.051899269223213196,0.05744636803865433
1761468719326983400,0.8559833984375,0.08187718689441681,0.04532952606678009,0.039465419948101044
1761468719336939300,0.865939208984375,0.09019956737756729,0.02275657467544079,0.023578863590955734
1761468719346895400,0.875895263671875,0.09496905654668808,-0.0023915129713714123,0.007023891434073448
1761468719356852200,0.885852294921875,0.09946021437644958,-0.02284379117190838,-0.0025677497033029795
1761468719366808300,0.895808349609375,0.09290109574794769,-0.029812289401888847,-0.009186654351651669
1761468719376765200,0.90576513671875,0.08353449404239655,-0.022806843742728233,-0.012585646472871304
1761468719386721300,0.91572119140625,0.07313014566898346,-0.014489413239061832,-0.017336411401629448
1761468719396678400,0.925678466796875,0.060892123728990555,-0.010583887808024883,-0.021649133414030075
1761468719406634200,0.93563427734375,0.04945574700832367,-0.0032531775068491697,-0.013732640072703362
1761468719416590300,0.94559033203125,0.0421709381043911,0.018606314435601234,0.002770703285932541
1761468719426547200,0.955547119140625,0.03771447390317917,0.03157671168446541,0.02035924233496189
1761468719436503300,0.96550341796875,0.03603455051779747,0.03555600717663765,0.02551964856684208
1761468719446460200,0.975460205078125,0.03484738990664482,0.03179456293582916,0.01692984625697136
1761468719456416300,0.985416259765625,0.032106731086969376,0.011554006487131119,0.0006978809833526611
1761468719466373400,0.995373291015625,0.02863893285393715,-0.014879489317536354,-0.01863432675600052
1761468719476329200,1.0053291015625,0.017707988619804382,-0.027290087193250656,-0.03424844145774841
1761468719486285600,1.01528564453125,0.012141723185777664,-0.03496190533041954,-0.03942727670073509
1761468719496242200,1.0252421875,0.011725471355021,-0.04061206802725792,-0.0339406318962574
1761468719506198500,1.035198486328125,0.013255001977086067,-0.029740916565060616,-0.01608397625386715
1761468719516155100,1.045155029296875,0.012648866511881351,-0.01415023859590292,0.00939661730080843
1761468719526111200,1.055111328125,0.012897367589175701,-0.0023089696187525988,0.026211056858301163
1761468719536068000,1.065068115234375,0.018601059913635254,0.00683712400496006,0.03961341455578804
1761468719546024200,1.075024169921875,0.009937252849340439,0.013481193222105503,0.059349946677684784
1761468719555980300,1.084980224609375,0.002899316605180502,0.02179265208542347,0.06948194652795792
1761468719565937200,1.094937255859375,-0.0015659065684303641,0.024430841207504272,0.06866088509559631
1761468719575893200,1.104893310546875,-0.0008505815058015287,0.017904499545693398,0.05559169128537178
1761468719585850000,1.11485009765625,0.0003911128151230514,0.004951975774019957,0.037273962050676346
1761468719595806200,1.12480615234375,-0.0019295657984912395,-0.006843164563179016,0.013667968101799488
1761468719605763000,1.13476318359375,-0.005977117456495762,-0.020896833389997482,-0.01362127996981144
1761468719615719200,1.14471923828125,-0.014113074168562889,-0.03998051583766937,-0.048922810703516006
1761468719625675300,1.15467529296875,-0.01268225908279419,-0.05047179013490677,-0.07626952975988388
1761468719635632000,1.164632080078125,-0.008839051239192486,-0.04170892387628555,-0.07934042066335678
1761468719645588200,1.174588134765625,-0.0017204496543854475,-0.014843899756669998,-0.06561559438705444
1761468719655545300,1.18454541015625,0.004411745350807905,0.005225681699812412,-0.04146019369363785
1761468719665501200,1.194501220703125,0.005156472325325012,0.01738213188946247,-0.022218385711312294
1761468719675458300,1.204458251953125,0.0058683352544903755,0.032753895968198776,-0.007336908020079136
1761468719685414100,1.2144140625,0.00063357874751091,0.03678540512919426,-0.0042890459299087524
1761468719695370200,1.224370361328125,-0.006071195472031832,0.025441138073801994,-0.011855087243020535
1761468719705327000,1.2343271484375,-0.007854082621634007,0.011973414570093155,-0.01904030330479145
1761468719715283200,1.244283203125,-0.003543489845469594,0.0042161582969129086,-0.025209249928593636
1761468719725240300,1.254240234375,0.0023062708787620068,-0.00310963811352849,-0.029010886326432228
1761468719735196200,1.264196044921875,0.005232286173850298,-0.011746268719434738,-0.03546612337231636
1761468719745153300,1.2741533203125,0.005932769738137722,-0.005316595081239939,-0.04075014218688011
1761468719755109000,1.284109130859375,0.0010621142573654652,0.0024023111909627914,-0.04903896525502205
1761468719765065200,1.294065185546875,-0.007940434850752354,0.005159747786819935,-0.061536651104688644
1761468719775022000,1.30402197265625,-0.016590116545557976,0.006659107748419046,-0.06915328651666641
1761468719784978200,1.313978271484375,-0.01850700005888939,0.013885261490941048,-0.07012233883142471
1761468719794935300,1.323935302734375,-0.016501905396580696,0.019568713381886482,-0.06299439072608948
1761468719804891100,1.33389111328125,-0.006657158024609089,0.02181820385158062,-0.05189865827560425
1761468719814848300,1.34384814453125,0.0043685948476195335,0.030758969485759735,-0.037976182997226715
1761468719824804000,1.35380419921875,0.014181285165250301,0.04060737416148186,-0.02991245873272419
1761468719834760200,1.36376025390625,0.01913316734135151,0.034870125353336334,-0.032832615077495575
1761468719844717300,1.37371728515625,0.021318044513463974,0.02717289887368679,-0.03457236662507057
1761468719854673200,1.383673095703125,0.02104746736586094,0.02999771386384964,-0.026652123779058456
1761468719864630300,1.39363037109375,0.021327584981918335,0.030166571959853172,-0.014577479101717472
1761468719874586000,1.403586181640625,0.022118544206023216,0.015574847348034382,-0.0008142618462443352
1761468719884543200,1.413543212890625,0.02510310895740986,0.0000389404158340767,0.010692210868000984
1761468719894499000,1.4234990234375,0.0301724374294281,-0.006521756760776043,0.024956634268164635
1761468719904455200,1.433455078125,0.035270750522613525,-0.007687905337661505,0.02656952477991581
1761468719914412300,1.443412353515625,0.034676868468523026,0.0005061088595539331,0.014383699744939804
1761468719924368100,1.4533681640625,0.0290108323097229,0.007944237440824509,-0.0009702891111373901
1761468719934325200,1.4633251953125,0.014877702109515667,0.013334209099411964,-0.01185675896704197
1761468719944281000,1.473281005859375,0.005426562856882811,0.020771395415067673,-0.016269493848085403
1761468719954238200,1.48323828125,-0.012747913599014282,0.06435029953718185,-0.013379163108766079
1761468719964194000,1.493194091796875,-0.024028612300753593,0.10894276201725006,-0.006149114575237036
1761468719974150100,1.503150146484375,-0.019707899540662766,0.10369527339935303,0.008243673481047153
1761468719984107300,1.513107177734375,-0.008441229350864887,0.08605806529521942,0.030205704271793365
1761468719994063000,1.52306298828125,-0.000023243366740643978,0.04184586554765701,0.043437886983156204
1761468720004020200,1.533020263671875,0.008276883512735367,0.010444259271025658,0.04896243289113045
1761468720013976000,1.54297607421875,0.014350755140185356,0.004422318655997515,0.0491429939866066
1761468720023933200,1.55293310546875,0.01989525742828846,0.014123651199042797,0.050678323954343796
1761468720033889000,1.562888916015625,0.013147871941328049,0.02554408460855484,0.055978283286094666
1761468720043845000,1.57284521484375,0.0050344523042440414,0.03465860337018967,0.059537868946790695
1761468720053802200,1.58280224609375,-0.00962571706622839,0.041386548429727554,0.058402832597494125
1761468720063758000,1.592758056640625,-0.026786839589476585,0.044314004480838776,0.04513532295823097
1761468720073715200,1.602715087890625,-0.04809905216097832,0.04307084158062935,0.0246548131108284
1761468720083671000,1.612671142578125,-0.0651259794831276,0.042736880481243134,-0.00129343057051301
1761468720093628200,1.622628173828125,-0.07894744724035263,0.03980257362127304,-0.025952421128749847
1761468720103584000,1.632583984375,-0.08826844394207001,0.03137843310832977,-0.050757355988025665
1761468720113540000,1.6425400390625,-0.0957585796713829,0.02479190193116665,-0.07633116096258163
1761468720123497200,1.652497314453125,-0.09961622953414917,0.021671278402209282,-0.10471786558628082
1761468720133453000,1.662453125,-0.10629010945558548,0.01942676678299904,-0.14074164628982544
1761468720143410200,1.67241015625,-0.11320209503173828,0.011061135679483414,-0.1685965359210968
1761468720153366000,1.682365966796875,-0.1193942129611969,0.015866544097661972,-0.18312835693359375
1761468720163323100,1.6923232421875,-0.11920271813869476,0.029651707038283348,-0.1820257008075714
1761468720173279000,1.702279052734375,-0.10810239613056183,0.04372784495353699,-0.1738269031047821
1761468720183235000,1.712235107421875,-0.10170511156320572,0.06188596040010452,-0.16381767392158508
1761468720193192200,1.722192138671875,-0.09582698345184326,0.07315405458211899,-0.156760573387146
1761468720203148000,1.73214794921875,-0.09561564773321152,0.06844852864742279,-0.16052928566932678
1761468720213105200,1.742105224609375,-0.09912622720003128,0.05437691882252693,-0.1671011745929718
1761468720223061000,1.75206103515625,-0.09795939922332764,0.04247433692216873,-0.1642926186323166
1761468720233018000,1.76201806640625,-0.0987386405467987,0.03628355264663696,-0.15146736800670624
1761468720242974000,1.771973876953125,-0.09831013530492783,0.019353339448571205,-0.14144062995910645
1761468720252930000,1.781929931640625,-0.09465467929840088,0.007532899733632803,-0.134957417845726
1761468720262887200,1.79188720703125,-0.08898568898439407,0.007383722346276045,-0.1408948451280594
1761468720272843000,1.801843017578125,-0.08634728938341141,0.009047665633261204,-0.1550319641828537
1761468720282800000,1.811800048828125,-0.08159706741571426,0.008434709161520004,-0.17638158798217773
1761468720292756000,1.821755859375,-0.07453995198011398,0.003101995447650552,-0.19579896330833435
1761468720302713000,1.831713134765625,-0.06228041276335716,0.001115254359319806,-0.20562930405139923
1761468720312669000,1.8416689453125,-0.0416204072535038,0.01355780940502882,-0.19859641790390015
1761468720322625300,1.851625244140625,-0.011754827573895454,0.04710150137543678,-0.1732127070426941
1761468720332582100,1.86158203125,0.023436715826392174,0.07597310096025467,-0.12976057827472687
1761468720342538200,1.871538330078125,0.047296516597270966,0.10450571030378342,-0.08496546745300293
1761468720352495000,1.8814951171875,0.06583131849765778,0.13179059326648712,-0.05137661099433899
1761468720362451200,1.891451171875,0.08052636682987213,0.1518140286207199,-0.029396895319223404
1761468720372408000,1.901407958984375,0.09421394765377045,0.15022306144237518,-0.01961776800453663
1761468720382364200,1.9113642578125,0.10469195991754532,0.14060452580451965,-0.016436666250228882
1761468720392321000,1.921321044921875,0.12503184378147125,0.17471376061439514,-0.008581139147281647
1761468720402277000,1.931277099609375,0.16456519067287445,0.26192641258239746,-0.01000447291880846
1761468720412233200,1.941233154296875,0.20454935729503632,0.345949649810791,-0.04702454060316086
1761468720422190000,1.951190185546875,0.24569641053676605,0.39418694376945496,-0.12232091277837753
1761468720432146200,1.961146240234375,0.296234667301178,0.4223381578922272,-0.21570199728012085
1761468720442103000,1.97110302734375,0.35129377245903015,0.4081825315952301,-0.31027060747146606
1761468720452059100,1.98105908203125,0.400095671415329,0.343894898891449,-0.3907577097415924
1761468720462016000,1.99101611328125,0.4382876753807068,0.3045595586299896,-0.4165005683898926
1761468720471972400,2.000972412109375,0.4489131569862366,0.3088717460632324,-0.39040982723236084
1761468720481928200,2.01092822265625,0.43972891569137573,0.28147903084754944,-0.34901341795921326
1761468720491885300,2.02088525390625,0.4311716556549072,0.20076900720596313,-0.32495519518852234
1761468720501841200,2.030841064453125,0.43254008889198303,0.10073674470186234,-0.30400678515434265
1761468720511798000,2.040798095703125,0.44092559814453125,0.009750109165906906,-0.27291226387023926
1761468720521754400,2.05075439453125,0.46269190311431885,-0.043169304728507996,-0.22804585099220276
1761468720531711500,2.06071142578125,0.5066881775856018,-0.0590934120118618,-0.1655784696340561
1761468720541667600,2.07066748046875,0.5623229146003723,-0.032688580453395844,-0.10599032789468765
1761468720551624400,2.08062451171875,0.6199915409088135,0.022774411365389824,-0.05744888633489609
1761468720561580500,2.09058056640625,0.6772139072418213,0.08904583752155304,-0.024633824825286865
1761468720571536600,2.10053662109375,0.7251484394073486,0.1435737907886505,-0.0061746565625071526
1761468720581493500,2.110493408203125,0.7650569081306458,0.16383342444896698,0.0019034178694710135
1761468720591449900,2.120449951171875,0.784907341003418,0.17395742237567902,0.011261765845119953
1761468720601406500,2.130406494140625,0.7879918813705444,0.1760813295841217,0.015819134190678596
1761468720611362800,2.14036279296875,0.7719151973724365,0.18458746373653412,0.0026615201495587826
1761468720621319400,2.1503193359375,0.7548631429672241,0.18362271785736084,-0.008229076862335205
1761468720631275800,2.16027587890625,0.7299181222915649,0.18154624104499817,-0.01319587230682373
1761468720641232600,2.170232666015625,0.6994377374649048,0.1647561639547348,-0.004591483157128096
1761468720651188700,2.180188720703125,0.6719360947608948,0.14614705741405487,0.018337268382310867
1761468720661144800,2.190144775390625,0.6334080100059509,0.1073671355843544,0.044341541826725006
1761468720671101700,2.200101806640625,0.5883063077926636,0.03545060008764267,0.05795188993215561
1761468720681057800,2.210057861328125,0.5314072966575623,-0.027525587007403374,0.04191194474697113
1761468720691014700,2.2200146484375,0.468214213848114,-0.08789093047380447,-0.0009574908763170242
1761468720700970800,2.229970703125,0.3984204828739166,-0.17397554218769073,-0.06261514872312546
1761468720710927600,2.239927734375,0.3355589509010315,-0.23724666237831116,-0.12822237610816956
1761468720720883700,2.2498837890625,0.29399606585502625,-0.2398991733789444,-0.17375418543815613
1761468720730840600,2.259840576171875,0.28229546546936035,-0.20557822287082672,-0.18476076424121857
1761468720740796700,2.269796630859375,0.2883163392543793,-0.14601026475429535,-0.15067729353904724
1761468720750752800,2.279752685546875,0.2876090109348297,-0.0851365253329277,-0.08016185462474823
1761468720760710000,2.2897099609375,0.2700147330760956,-0.06285416334867477,0.017962679266929626
1761468720770665700,2.299665771484375,0.23475821316242218,-0.07926882058382034,0.1213039830327034
1761468720780622800,2.309622802734375,0.17923060059547424,-0.12053020298480988,0.22867533564567566
1761468720790578700,2.31957861328125,0.11842743307352066,-0.13922026753425598,0.3386788070201874
1761468720800535600,2.32953564453125,0.06317982077598572,-0.10593258589506149,0.4529472887516022
1761468720810491600,2.33949169921875,0.014990982599556446,-0.018529504537582397,0.5582574605941772
1761468720820448500,2.349448486328125,-0.030952656641602516,0.09798987954854965,0.6352425217628479
1761468720830404900,2.35940478515625,-0.06631969660520554,0.1923307627439499,0.6924277544021606
1761468720840360700,2.369360595703125,-0.08962740004062653,0.23424218595027924,0.7043794989585876
1761468720850317800,2.37931787109375,-0.12216883152723312,0.22951532900333405,0.6515530347824097
1761468720860273700,2.389273681640625,-0.16576044261455536,0.16452249884605408,0.5331962704658508
1761468720870230800,2.399230712890625,-0.2188257873058319,0.05424339324235916,0.38491836190223694
1761468720880186600,2.4091865234375,-0.26191094517707825,-0.09556839615106583,0.2510818839073181
1761468720890143700,2.419143798828125,-0.3341939151287079,-0.2497957944869995,0.147583469748497
1761468720900099800,2.429099853515625,-0.4695536196231842,-0.3923116624355316,0.08890137821435928
1761468720910056700,2.439056640625,-0.6039034724235535,-0.4877460300922394,0.07114449143409729
1761468720920012800,2.4490126953125,-0.7108946442604065,-0.5330238938331604,0.07845120877027512
1761468720929969700,2.4589697265625,-0.7676663398742676,-0.5089446306228638,0.09322775900363922
1761468720939925800,2.46892578125,-0.7804203629493713,-0.3958068788051605,0.12408679723739624
1761468720949881600,2.478881591796875,-0.7444884181022644,-0.2247621864080429,0.16752614080905914
1761468720959838700,2.488838623046875,-0.66874760389328,-0.04743552580475807,0.21021144092082977
1761468720969794800,2.498794921875,-0.5511136651039124,0.11192589998245239,0.2546178102493286
1761468720979751700,2.508751708984375,-0.4256296157836914,0.23548191785812378,0.2842617928981781
1761468720989707800,2.518707763671875,-0.293850839138031,0.29118698835372925,0.3045350909233093
1761468720999664600,2.52866455078125,-0.16100794076919556,0.3011048436164856,0.32533571124076843
1761468721009620700,2.538620849609375,-0.03620103374123573,0.2680451571941376,0.35467255115509033
1761468721019577900,2.548577880859375,0.06740906089544296,0.1948322057723999,0.3966580331325531
1761468721029533700,2.55853369140625,0.1354866474866867,0.09112391620874405,0.4356762766838074
1761468721039490800,2.56849072265625,0.16619102656841278,-0.05158739164471626,0.45482274889945984
1761468721049446700,2.57844677734375,0.16682831943035126,-0.20856715738773346,0.44789665937423706
1761468721059402800,2.58840283203125,0.1423802524805069,-0.3486800193786621,0.41927772760391235
1761468721069359600,2.598359619140625,0.08922888338565826,-0.45058107376098633,0.3673168122768402
1761468721079315700,2.608315673828125,0.015723953023552895,-0.4960940182209015,0.2901321053504944
1761468721089272800,2.61827294921875,-0.0702894926071167,-0.5189993381500244,0.18186448514461517
1761468721099228700,2.628228759765625,-0.16823896765708923,-0.5302786827087402,0.0498640201985836
1761468721109185800,2.638185791015625,-0.2762783467769623,-0.510189950466156,-0.09495202451944351
1761468721119141600,2.6481416015625,-0.40019354224205017,-0.4435325264930725,-0.24922782182693481
1761468721129098800,2.6580986328125,-0.5217532515525818,-0.29726719856262207,-0.398870050907135
1761468721139054600,2.6680546875,-0.6180779337882996,-0.10809990018606186,-0.5250107645988464
1761468721149011700,2.67801171875,-0.6852385997772217,0.0703611820936203,-0.6148721575737
1761468721158967800,2.6879677734375,-0.7194648385047913,0.1857677549123764,-0.6610437631607056
1761468721168923600,2.697923583984375,-0.7081083059310913,0.24244621396064758,-0.6598413586616516
1761468721178880800,2.707880859375,-0.6630065441131592,0.27706342935562134,-0.6037187576293945
1761468721188836600,2.717836669921875,-0.5868214964866638,0.27465060353279114,-0.5030560493469238
1761468721198793700,2.727793701171875,-0.4794287085533142,0.22629603743553162,-0.3766731023788452
1761468721208749600,2.73774951171875,-0.3665247857570648,0.16494080424308777,-0.23101817071437836
1761468721218706700,2.747706787109375,-0.2859117090702057,0.11560102552175522,-0.09733052551746368
1761468721228662800,2.757662841796875,-0.23201623558998108,0.09041231870651245,0.00044210790656507015
1761468721238619600,2.76761962890625,-0.19839595258235931,0.07001866400241852,0.04956645518541336
1761468721248575700,2.77757568359375,-0.1873483657836914,0.06620315462350845,0.06079860031604767
1761468721258532900,2.787532958984375,-0.19739870727062225,0.07607050985097885,0.046573393046855927
1761468721268488700,2.79748876953125,-0.23070979118347168,0.08009161800146103,0.020489860326051712
1761468721278444500,2.807444580078125,-0.26071175932884216,0.08406197279691696,-0.005134925711899996
1761468721288401700,2.817401611328125,-0.2790766656398773,0.0944371148943901,-0.03312501683831215
1761468721298357800,2.827357666015625,-0.2906138598918915,0.08594284951686859,-0.06705623865127563
1761468721308314600,2.837314697265625,-0.29025009274482727,0.06700750440359116,-0.0967041477560997
1761468721318270700,2.847270751953125,-0.27202263474464417,0.013594008050858974,-0.10705478489398956
1761468721328227800,2.857227783203125,-0.2405848205089569,-0.05928286164999008,-0.09960220009088516
1761468721338183700,2.86718359375,-0.20258139073848724,-0.1278407722711563,-0.08003205060958862
1761468721348140800,2.877140869140625,-0.16863541305065155,-0.1904682070016861,-0.060373660176992416
1761468721358096600,2.8870966796875,-0.14715681970119476,-0.23642796277999878,-0.03838416561484337
1761468721368053800,2.8970537109375,-0.12582144141197205,-0.21590884029865265,-0.0006719420198351145
1761468721378009600,2.907009521484375,-0.08746471256017685,-0.1193389818072319,0.06977663189172745
1761468721387965700,2.916965576171875,-0.018891509622335434,0.049132052809000015,0.16842278838157654
1761468721397922800,2.9269228515625,0.0863896980881691,0.30546462535858154,0.2954064607620239
1761468721407878700,2.936878662109375,0.21132896840572357,0.5249618291854858,0.4059244692325592
1761468721417835800,2.946835693359375,0.2941712737083435,0.5407267212867737,0.4413323700428009
1761468721427791600,2.95679150390625,0.31942442059516907,0.34452739357948303,0.41462674736976624
1761468721437748700,2.966748779296875,0.3127686083316803,0.08651873469352722,0.3989969491958618
1761468721447704600,2.97670458984375,0.2832684814929962,-0.14131948351860046,0.44613224267959595
1761468721457661700,2.98666162109375,0.2551489770412445,-0.2969955801963806,0.5577459931373596
1761468721467617800,2.99661767578125,0.25755566358566284,-0.2981196939945221,0.7127355933189392
1761468721477574700,3.00657470703125,0.3008999526500702,-0.10781505703926086,0.9040332436561584
1761468721487530800,3.01653076171875,0.36219632625579834,0.24296453595161438,1.0845379829406738
1761468721497486600,3.026486572265625,0.43296509981155396,0.6404724717140198,1.1897729635238647
1761468721507443700,3.036443603515625,0.49140337109565735,0.9462236166000366,1.192060947418213
1761468721517399600,3.046399658203125,0.5183473229408264,1.0529448986053467,1.0851564407348633
1761468721527357700,3.056357666015625,0.5435024499893188,0.9930846095085144,0.9067336916923523
1761468721537313800,3.066313720703125,0.5743882060050964,0.8234462738037109,0.6838039755821228
1761468721547270700,3.076270751953125,0.6070953011512756,0.5875594615936279,0.4481709599494934
1761468721557226800,3.086226806640625,0.6227828860282898,0.3386510908603668,0.21597056090831757
1761468721567183600,3.09618359375,0.6146653294563293,0.05244545638561249,-0.015063190832734108
1761468721577139700,3.1061396484375,0.6229576468467712,-0.25032520294189453,-0.20406751334667206
1761468721587096600,3.1160966796875,0.6400431394577026,-0.5223788619041443,-0.34550508856773376
1761468721597053000,3.126052978515625,0.658951997756958,-0.752246618270874,-0.4549490511417389
1761468721607008800,3.1360087890625,0.7006173729896545,-0.9039745926856995,-0.494576096534729
1761468721616966000,3.1459658203125,0.7337510585784912,-0.9325273633003235,-0.46152037382125854
1761468721626921700,3.155921630859375,0.7440153956413269,-0.8487664461135864,-0.36886873841285706
1761468721636878800,3.16587890625,0.7296401262283325,-0.6571442484855652,-0.25547167658805847
1761468721646834700,3.175834716796875,0.6955143809318542,-0.3933831453323364,-0.15148375928401947
1761468721656791800,3.185791748046875,0.66514652967453,-0.09516819566488266,-0.08431950956583023
1761468721666748000,3.195747802734375,0.6424452066421509,0.2178104817867279,-0.06162591278553009
1761468721676704800,3.205704833984375,0.6171851754188538,0.506426215171814,-0.08073096722364426
1761468721686660900,3.215660888671875,0.5925498604774475,0.7390483021736145,-0.1314106583595276
1761468721696617700,3.22561767578125,0.5746328830718994,0.9047052264213562,-0.1989087611436844
1761468721706573800,3.23557373046875,0.5478708148002625,0.9892115592956543,-0.2799990773200989
1761468721716530000,3.245530029296875,0.513273298740387,0.9788522124290466,-0.37654903531074524
1761468721726486800,3.25548681640625,0.4726678133010864,0.8908632397651672,-0.4735775887966156
1761468721736443000,3.26544287109375,0.4333825707435608,0.7497944831848145,-0.5658283233642578
1761468721746399700,3.275399658203125,0.39622002840042114,0.593072772026062,-0.6343437433242798
1761468721756355800,3.28535595703125,0.35392048954963684,0.44792306423187256,-0.6742013692855835
1761468721766313000,3.29531298828125,0.30033424496650696,0.3248075246810913,-0.6779354214668274
1761468721776268800,3.305268798828125,0.2436937391757965,0.23411035537719727,-0.6333988308906555
1761468721786226000,3.315225830078125,0.1892526000738144,0.185526043176651,-0.5495851635932922
1761468721796181800,3.325181640625,0.13570335507392883,0.14617475867271423,-0.4506598114967346
1761468721806139000,3.335138916015625,0.08322817087173462,0.0826549082994461,-0.3580654263496399
1761468721816094700,3.3450947265625,0.0279892235994339,-0.013644767925143242,-0.278221994638443
1761468721826050800,3.35505078125,-0.02640610747039318,-0.13591767847537994,-0.192691370844841
1761468721836008000,3.365008056640625,-0.06530894339084625,-0.24209779500961304,-0.09651578217744827
1761468721845963800,3.3749638671875,-0.08528930693864822,-0.3183760643005371,-0.0006094994023442268
1761468721855921000,3.3849208984375,-0.10210590809583664,-0.3761727213859558,0.0857761800289154
1761468721865876700,3.394876708984375,-0.11162777245044708,-0.3792444169521332,0.1543208807706833
1761468721875833900,3.404833740234375,-0.11772046983242035,-0.3230586349964142,0.2057904303073883
1761468721885789700,3.414789794921875,-0.11765363067388535,-0.2516811192035675,0.24929608404636383
1761468721895746800,3.424746826171875,-0.14067327976226807,-0.2107151597738266,0.3082227408885956
1761468721905703000,3.434702880859375,-0.2028956413269043,-0.15678028762340546,0.395727276802063
1761468721915659800,3.44465966796875,-0.29097604751586914,-0.033726371824741364,0.5033141374588013
1761468721925615900,3.454615966796875,-0.3774946928024292,0.1256217509508133,0.6070469617843628
1761468721935571700,3.46457177734375,-0.4072208106517792,0.2749606966972351,0.6887364983558655
1761468721945528800,3.47452880859375,-0.3968999683856964,0.3962077498435974,0.7301039099693298
1761468721955484700,3.484484619140625,-0.4173261523246765,0.431357741355896,0.6850759983062744
1761468721965441800,3.49444189453125,-0.4728834331035614,0.2973290979862213,0.5386655330657959
1761468721975398000,3.50439794921875,-0.5607080459594727,0.007383666001260281,0.3178696930408478
1761468721985354800,3.514354736328125,-0.702339768409729,-0.3631102442741394,0.08633977919816971
1761468721995310800,3.524310791015625,-0.8965270519256592,-0.7181486487388611,-0.09319553524255753
1761468722005267700,3.534267822265625,-1.1014097929000854,-0.9935826063156128,-0.20916955173015594
1761468722015223800,3.544223876953125,-1.2733348608016968,-1.1250643730163574,-0.27497291564941406
1761468722025181000,3.554180908203125,-1.4016331434249878,-1.045494794845581,-0.2781415581703186
1761468722035136800,3.56413671875,-1.467193365097046,-0.7199773192405701,-0.21824824810028076
1761468722045092900,3.5740927734375,-1.4952901601791382,-0.21686066687107086,-0.13787484169006348
1761468722055049700,3.5840498046875,-1.46360445022583,0.26937776803970337,-0.08770593255758286
1761468722065005800,3.594005859375,-1.3451776504516602,0.657718300819397,-0.06664139032363892
1761468722074962700,3.603962646484375,-1.1630979776382446,0.8954038619995117,-0.07025101780891418
1761468722084918800,3.613918701171875,-0.9638890624046326,0.9626532196998596,-0.08790616691112518
1761468722094876000,3.6238759765625,-0.7709106206893921,0.9097302556037903,-0.10997103899717331
1761468722104831700,3.633831787109375,-0.6008313298225403,0.7929554581642151,-0.12487249076366425
1761468722114788900,3.643788818359375,-0.48804816603660583,0.6431055068969727,-0.1495216339826584
1761468722124744700,3.65374462890625,-0.4147947430610657,0.3797234296798706,-0.1844700276851654
1761468722134700800,3.66370068359375,-0.3526610732078552,0.04975307360291481,-0.22997282445430756
1761468722144657700,3.67365771484375,-0.2728229761123657,-0.28910568356513977,-0.26275473833084106
1761468722154613800,3.68361376953125,-0.1706445813179016,-0.6109648942947388,-0.2574407458305359
1761468722164571000,3.69357080078125,-0.061288271099328995,-0.8791215419769287,-0.20779013633728027
1761468722174526700,3.703526611328125,0.03499763831496239,-1.0842139720916748,-0.1536634862422943
1761468722184483800,3.71348388671875,0.10860048979520798,-1.182386875152588,-0.09282676130533218
1761468722194439700,3.723439697265625,0.14722241461277008,-1.1544145345687866,-0.024033116176724434
1761468722204396800,3.733396728515625,0.12562178075313568,-1.0092504024505615,0.030308419838547707
1761468722214353000,3.743352783203125,0.055191729217767715,-0.790095865726471,0.04454929754137993
1761468722224309800,3.753309814453125,-0.03271735459566116,-0.5454387068748474,0.016245756298303604
1761468722234265900,3.763265869140625,-0.12361476570367813,-0.34157687425613403,-0.06177666410803795
1761468722244221700,3.7732216796875,-0.20392265915870667,-0.24628204107284546,-0.1759791374206543
1761468722254178800,3.7831787109375,-0.26896005868911743,-0.2371322214603424,-0.30861225724220276
1761468722264134700,3.793134765625,-0.35964494943618774,-0.216243714094162,-0.4311341643333435
1761468722274091800,3.803091796875,-0.4427275061607361,-0.1635376214981079,-0.4893237352371216
1761468722284048000,3.8130478515625,-0.5042002201080322,-0.092452272772789,-0.49674302339553833
1761468722294004700,3.823004638671875,-0.5233632326126099,-0.02701292186975479,-0.4552910327911377
1761468722303960800,3.8329609375,-0.4967063367366791,0.03485763445496559,-0.36485755443573
1761468722313917700,3.842917724609375,-0.4191266894340515,0.09246809035539627,-0.24510721862316132
1761468722323873800,3.852873779296875,-0.2925775349140167,0.152234748005867,-0.10430163145065308
1761468722333831000,3.862830810546875,-0.11112496256828308,0.21322375535964966,0.05732157826423645
1761468722343786800,3.872786865234375,0.09628495573997498,0.2642640173435211,0.21605636179447174
1761468722353742800,3.882742919921875,0.28560978174209595,0.2815341651439667,0.3584511876106262
1761468722363699700,3.89269970703125,0.4359896779060364,0.2877417206764221,0.4780718684196472
1761468722373655800,3.90265576171875,0.5339276790618896,0.29901808500289917,0.5800014138221741
1761468722383612700,3.91261279296875,0.5926304459571838,0.2990572154521942,0.6601465344429016
1761468722393568800,3.92256884765625,0.6322637796401978,0.2486768513917923,0.7143281102180481
1761468722403526000,3.93252587890625,0.6770935654640198,0.09376157820224762,0.7316051125526428
1761468722413481700,3.942481689453125,0.7609197497367859,-0.13332921266555786,0.7236790657043457
1761468722423438800,3.95243896484375,0.773757815361023,-0.2970888614654541,0.6841849088668823
1761468722433394700,3.962394775390625,0.720905601978302,-0.2910999059677124,0.6341679692268372
1761468722443350800,3.972350830078125,0.6558017134666443,-0.1105562150478363,0.555210292339325
1761468722453307600,3.9823076171875,0.6340102553367615,0.1237412840127945,0.42743220925331116
1761468722463263700,3.992263671875,0.6617034077644348,0.3149589002132416,0.2756112515926361
1761468722475086600,4.004086669921875,0.7108362317085266,0.3303847908973694,0.0974992886185646
1761468722485042700,4.014042724609375,0.7256644368171692,0.13926038146018982,-0.027621883898973465
1761468722494999600,4.02399951171875,0.6925650238990784,-0.12543681263923645,-0.08386699110269547
1761468722504955600,4.03395556640625,0.6420408487319946,-0.37747278809547424,-0.04761683940887451
1761468722514912800,4.043912841796875,0.5904301404953003,-0.5105888247489929,0.07155813276767731
1761468722524868600,4.05386865234375,0.5548353791236877,-0.4441152811050415,0.22542600333690643
1761468722534823700,4.06382373046875,0.5211663842201233,-0.1800396740436554,0.3540336489677429
1761468722544779800,4.07377978515625,0.49016955494880676,0.24390839040279388,0.4245957136154175
1761468722554735600,4.083735595703125,0.49506837129592896,0.7726819515228271,0.4291439354419708
1761468722564692700,4.093692626953125,0.518607497215271,1.282462239265442,0.3495471179485321
1761468722574648800,4.10364892578125,0.5607529878616333,1.6224009990692139,0.20110481977462769
1761468722584605700,4.113605712890625,0.6263216137886047,1.7961176633834839,0.016843892633914948
1761468722594561800,4.123561767578125,0.7293567061424255,1.8148189783096313,-0.17707280814647675
1761468722604519000,4.133518798828125,0.8382770419120789,1.6944561004638672,-0.3391895592212677
1761468722614474800,4.143474853515625,0.9018597602844238,1.4617303609848022,-0.4524187445640564
1761468722624431900,4.153431884765625,0.9953489303588867,1.087874174118042,-0.5156973004341125
1761468722634387700,4.1633876953125,1.0975171327590942,0.6018800735473633,-0.5130777955055237
1761468722644343800,4.17334375,1.228317379951477,0.00862671434879303,-0.44076743721961975
1761468722654300700,4.18330078125,1.3632807731628418,-0.5257704257965088,-0.2990581691265106
1761468722664256800,4.1932568359375,1.413712739944458,-0.8366417288780212,-0.13692571222782135
1761468722674214000,4.2032138671875,1.3699467182159424,-0.9716482162475586,0.014898287132382393
1761468722684169700,4.213169677734375,1.2722914218902588,-0.9915950298309326,0.14382778108119965
1761468722694126800,4.223126953125,1.141209363937378,-0.876170814037323,0.25297579169273376
1761468722704082700,4.233082763671875,0.9950137138366699,-0.6026250123977661,0.31827542185783386
1761468722714039800,4.243039794921875,0.8747372031211853,-0.2603294849395752,0.3238219916820526
1761468722723995600,4.25299560546875,0.7995415329933167,0.07458830624818802,0.262596994638443
1761468722733952800,4.262952880859375,0.748836100101471,0.3513200283050537,0.14664703607559204
1761468722743908900,4.272908935546875,0.7187544107437134,0.5362259745597839,0.009603174403309822
1761468722753865700,4.28286572265625,0.7188100218772888,0.6390776038169861,-0.11095696687698364
1761468722763821800,4.29282177734375,0.7363959550857544,0.6768010258674622,-0.19050265848636627
1761468722773777700,4.302777587890625,0.7567207217216492,0.6209816336631775,-0.2345200479030609
1761468722783734800,4.31273486328125,0.7778406739234924,0.49016714096069336,-0.2451268881559372
1761468722793690600,4.322690673828125,0.8107621669769287,0.32413822412490845,-0.23057405650615692
1761468722803647700,4.332647705078125,0.8519644141197205,0.16759468615055084,-0.20420663058757782
1761468722814227000,4.34322705078125,0.8839203119277954,0.025711579248309135,-0.17940863966941833
1761468722824183800,4.353183837890625,0.8761271238327026,-0.08303140848875046,-0.16851630806922913
1761468722834140000,4.363139892578125,0.8350880742073059,-0.16005319356918335,-0.17510317265987396
1761468722844096800,4.3730966796875,0.7705258727073669,-0.18705977499485016,-0.18893589079380035
1761468722854052900,4.383052978515625,0.6943721771240234,-0.17286257445812225,-0.2014637142419815
1761468722864010000,4.393010009765625,0.6313164830207825,-0.13578444719314575,-0.18683470785617828
1761468722873965800,4.4029658203125,0.5870879292488098,-0.057105083018541336,-0.145233154296875
1761468722883922000,4.412921875,0.541210949420929,0.039658211171627045,-0.10222576558589935
1761468722893878800,4.422878662109375,0.511877179145813,0.18875683844089508,-0.049538981169462204
1761468722903835000,4.4328349609375,0.45812928676605225,0.3085396885871887,-0.023207245394587517
1761468722913791700,4.442791748046875,0.36499226093292236,0.3643277883529663,-0.02704828977584839
1761468722923747800,4.452747802734375,0.26833629608154297,0.4045194089412689,-0.03782051056623459
1761468722933705000,4.462705078125,0.1897265762090683,0.40702134370803833,-0.040273431688547134
1761468722943660800,4.472660888671875,0.1309940218925476,0.3650816082954407,-0.03200005739927292
1761468722953618000,4.482617919921875,0.09708777815103531,0.32502642273902893,-0.013994439505040646
1761468722963573800,4.49257373046875,0.09534687548875809,0.30252429842948914,0.020940110087394714
1761468722973531000,4.50253076171875,0.12561152875423431,0.2988238036632538,0.06398767232894897
1761468722983487000,4.512487060546875,0.16282813251018524,0.2826474905014038,0.09026134759187698
1761468722993442800,4.52244287109375,0.16386255621910095,0.168867826461792,0.06274010986089706
1761468723003400000,4.53239990234375,0.06659778952598572,-0.07920962572097778,-0.04945380240678787
1761468723013355800,4.542355712890625,-0.1577344685792923,-0.32662433385849,-0.21241986751556396
1761468723023313000,4.55231298828125,-0.48267287015914917,-0.4200906455516815,-0.3826344907283783
1761468723033268700,4.562268798828125,-0.8247994184494019,-0.4246789813041687,-0.5054190754890442
1761468723043225900,4.572225830078125,-1.104313611984253,-0.2872934341430664,-0.5709264278411865
1761468723053182000,4.582181884765625,-1.2948812246322632,0.024322548881173134,-0.5549786686897278
1761468723063138800,4.592138916015625,-1.3646717071533203,0.3956337571144104,-0.4734278619289398
1761468723073095000,4.602094970703125,-1.2954001426696777,0.7354704737663269,-0.3530122637748718
1761468723083051800,4.6120517578125,-1.1097522974014282,0.9459307789802551,-0.22965623438358307
1761468723093008000,4.6220078125,-0.8684639930725098,0.9449639320373535,-0.11897588521242142
1761468723102963700,4.631963623046875,-0.6076614260673523,0.7204205989837646,-0.025576960295438766
1761468723112920800,4.6419208984375,-0.35231664776802063,0.36748820543289185,0.08843062072992325
1761468723122877000,4.651876953125,-0.13904058933258057,0.06402792781591415,0.2701415717601776
1761468723132833800,4.661833740234375,0.025217920541763306,-0.14739738404750824,0.49722498655319214
1761468723142790000,4.671789794921875,0.13823874294757843,-0.3084715008735657,0.6927545070648193
1761468723152746800,4.681746826171875,0.20471404492855072,-0.43590572476387024,0.7804331183433533
1761468723162702800,4.691702880859375,0.23406153917312622,-0.5140170454978943,0.7113427519798279
1761468723172660000,4.701659912109375,0.19844204187393188,-0.4840897023677826,0.4485682249069214
1761468723182615800,4.71161572265625,0.13915900886058807,-0.4443010091781616,0.1420745998620987
1761468723192573000,4.721572998046875,0.07593438774347305,-0.33964598178863525,-0.16303905844688416
1761468723202528800,4.73152880859375,0.016315266489982605,-0.19866089522838593,-0.41216447949409485
1761468723212486000,4.74148583984375,-0.03130549564957619,-0.061416059732437134,-0.5842270255088806
1761468723222441700,4.751441650390625,-0.06278140097856522,0.06664310395717621,-0.6326278448104858
1761468723232397800,4.761397705078125,-0.06832443922758102,0.19054709374904633,-0.5674071907997131
1761468723242355000,4.77135498046875,-0.06073283031582832,0.2732459604740143,-0.4335630536079407
1761468723252310800,4.781310791015625,-0.00449351267889142,0.22581465542316437,-0.2725863456726074
1761468723262268000,4.791267822265625,0.0764378234744072,0.14043530821800232,-0.09156861156225204
1761468723272223700,4.8012236328125,0.14950981736183167,0.147650346159935,0.12268300354480743
1761468723282180900,4.811180908203125,0.20745301246643066,0.12188425660133362,0.3223292827606201
1761468723292136700,4.82113671875,0.2821290194988251,-0.0024059261195361614,0.42747387290000916
1761468723302093800,4.83109375,0.3498007357120514,-0.09622642397880554,0.44199663400650024
1761468723312050000,4.8410498046875,0.3920326232910156,-0.10252918303012848,0.3965362310409546
1761468723322006800,4.8510068359375,0.40718841552734375,-0.03911106288433075,0.3066742420196533
1761468723331963000,4.860962890625,0.40756356716156006,0.07415599375963211,0.1972086876630783
1761468723341918700,4.870918701171875,0.40316295623779297,0.16693520545959473,0.08327226340770721
1761468723351875800,4.880875732421875,0.3909164071083069,0.18757854402065277,-0.019397951662540436
1761468723361831700,4.890831787109375,0.368724524974823,0.154011532664299,-0.093672975897789
1761468723371788800,4.900788818359375,0.3579006493091583,0.03468574583530426,-0.11505641788244247
1761468723381745000,4.910744873046875,0.35323798656463623,-0.11056013405323029,-0.08167769014835358
1761468723391701800,4.92070166015625,0.34662604331970215,-0.1973869502544403,0.0021234448067843914
1761468723401657900,4.930657958984375,0.3108334243297577,-0.191301628947258,0.1013735979795456
1761468723411614700,4.94061474609375,0.2236475795507431,-0.08691061288118362,0.17861348390579224
1761468723421570800,4.95057080078125,0.16406387090682983,0.01180211827158928,0.2252883017063141
1761468723431528000,4.96052783203125,0.17481358349323273,0.08924500644207001,0.2540219724178314
1761468723441483800,4.97048388671875,0.24833466112613678,0.19158683717250824,0.26652392745018005
1761468723451439900,4.98043994140625,0.3841942846775055,0.2921229302883148,0.26255860924720764
1761468723461396700,4.990396728515625,0.5614508390426636,0.31669217348098755,0.23790784180164337
1761468723471352800,5.000352783203125,0.7397522330284119,0.29892751574516296,0.21129769086837769
1761468723481310000,5.01031005859375,0.9148324131965637,0.25161033868789673,0.18652468919754028
1761468723491265800,5.020265869140625,1.0655840635299683,0.05327659100294113,0.09570048004388809
1761468723501223000,5.030222900390625,1.1513711214065552,-0.4442381262779236,-0.09727057069540024
1761468723511178800,5.0401787109375,1.1392228603363037,-1.105584979057312,-0.30169379711151123
1761468723521135900,5.050135986328125,1.0420454740524292,-1.6611998081207275,-0.40110746026039124
1761468723531092000,5.060092041015625,0.8760608434677124,-1.9969934225082397,-0.38517826795578003
1761468723541048800,5.070048828125,0.6968562006950378,-2.0473413467407227,-0.2300022691488266
1761468723551005000,5.0800048828125,0.5721174478530884,-1.7595776319503784,0.020734895020723343
1761468723560960800,5.089960693359375,0.5880727171897888,-1.3250341415405273,0.20602619647979736
1761468723570918000,5.09991796875,0.6936140060424805,-0.6134560108184814,0.3607255220413208
1761468723580874000,5.1098740234375,0.8332289457321167,0.26792994141578674,0.5023292303085327
1761468723590830800,5.119830810546875,0.9413353800773621,1.0015519857406616,0.6433703303337097
1761468723600787000,5.129786865234375,1.0881836414337158,1.1441799402236938,0.6397271156311035
1761468723610743800,5.139743896484375,1.2085009813308716,0.928220808506012,0.527270495891571
1761468723620700000,5.149699951171875,1.2787386178970337,0.6366009712219238,0.414932519197464
1761468723630657000,5.159656982421875,1.2894412279129028,0.34750309586524963,0.3243194818496704
1761468723640612900,5.16961279296875,1.2689303159713745,0.01649213209748268,0.2274792194366455
1761468723650570000,5.179570068359375,1.2369515895843506,-0.32697629928588867,0.11740341782569885
1761468723660525800,5.18952587890625,1.1983895301818848,-0.619307816028595,-0.004755783826112747
1761468723670483000,5.19948291015625,1.1721405982971191,-0.7919355034828186,-0.12564226984977722
1761468723680438800,5.209438720703125,1.1494736671447754,-0.8494715094566345,-0.24037444591522217
1761468723690395000,5.219394775390625,1.1196644306182861,-0.8143979907035828,-0.33787426352500916
1761468723700352000,5.22935205078125,1.0699434280395508,-0.687512993812561,-0.39100804924964905
1761468723710307800,5.239307861328125,1.0026873350143433,-0.46501973271369934,-0.381017804145813
1761468723720265000,5.249264892578125,0.9208688735961914,-0.16374431550502777,-0.3324145972728729
1761468723730220800,5.259220703125,0.8217636346817017,0.2181043028831482,-0.2390940636396408
1761468723740178000,5.269177978515625,0.7014446258544922,0.6136982440948486,-0.1152389720082283
1761468723750133800,5.2791337890625,0.6025094389915466,0.8887540102005005,0.001643260009586811
1761468723760091000,5.2890908203125,0.5348907113075256,1.0326403379440308,0.0774136558175087
1761468723770047000,5.299046875,0.4962599277496338,1.0695786476135254,0.12134207785129547
1761468723780002800,5.3090029296875,0.4952511191368103,1.039345383644104,0.1331915408372879
1761468723789960000,5.3189599609375,0.5349447131156921,0.9621243476867676,0.11670040339231491
1761468723799915800,5.328915771484375,0.596662700176239,0.8354697227478027,0.051965076476335526
1761468723809873000,5.338872802734375,0.6535634398460388,0.6480180025100708,-0.07055582106113434
1761468723819828700,5.348828857421875,0.6909204125404358,0.425772100687027,-0.22219541668891907
1761468723829785900,5.358785888671875,0.6967151761054993,0.2018624097108841,-0.37071657180786133
1761468723839742000,5.368741943359375,0.6669932007789612,-0.028581984341144562,-0.4961080551147461
1761468723849698800,5.37869873046875,0.5922254323959351,-0.24189773201942444,-0.6050195693969727
1761468723859655000,5.388655029296875,0.49426931142807007,-0.4151501953601837,-0.6839231848716736
1761468723869611800,5.39861181640625,0.3953586220741272,-0.49464479088783264,-0.6938059329986572
1761468723879568000,5.40856787109375,0.2958354949951172,-0.49280375242233276,-0.6253378987312317
1761468723889525000,5.41852490234375,0.217312753200531,-0.46600648760795593,-0.5101674795150757
1761468723899480800,5.428480712890625,0.1786513775587082,-0.37064775824546814,-0.33679521083831787
1761468723909437000,5.43843701171875,0.2015620768070221,-0.20756398141384125,-0.12447571754455566
1761468723919393800,5.448393798828125,0.26499056816101074,0.03746121749281883,0.11564101278781891
1761468723929350000,5.458349853515625,0.33353814482688904,0.29100096225738525,0.3601413667201996
1761468723939307000,5.46830712890625,0.4016042649745941,0.38828009366989136,0.5416509509086609
1761468723949262800,5.478262939453125,0.4441872239112854,0.3705875873565674,0.647554337978363
1761468723959220000,5.488219970703125,0.4461182951927185,0.32344433665275574,0.695606529712677
1761468723969175800,5.49817578125,0.4164005517959595,0.2808702290058136,0.7026625871658325
1761468723979133000,5.5081328125,0.39224886894226074,0.2474486082792282,0.680648922920227
1761468723989088800,5.5180888671875,0.3937388062477112,0.19437618553638458,0.6361400485038757
1761468723999046000,5.5280458984375,0.3792791962623596,0.08086907118558884,0.5228451490402222
1761468724009002000,5.538001953125,0.31602296233177185,-0.21464581787586212,0.3040156066417694
1761468724018957800,5.547957763671875,0.16816771030426025,-0.6033000946044922,0.02512645721435547
1761468724028915000,5.5579150390625,-0.048523399978876114,-0.8433345556259155,-0.2075701355934143
1761468724038870800,5.567870849609375,-0.2538456618785858,-0.8707643151283264,-0.34550029039382935
1761468724048828000,5.577827880859375,-0.4154667258262634,-0.6673877239227295,-0.3776911199092865
1761468724058783700,5.58778369140625,-0.5122702717781067,-0.2568311095237732,-0.29253095388412476
1761468724068740900,5.597740966796875,-0.5482926368713379,0.272088885307312,-0.11655406653881073
1761468724078697000,5.607697021484375,-0.4407893419265747,0.7645143270492554,0.11053527891635895
1761468724088653800,5.61765380859375,-0.2344251573085785,1.135266900062561,0.3504471480846405
1761468724098610000,5.62760986328125,0.011363045312464237,1.1796696186065674,0.5244138836860657
1761468724108566800,5.63756689453125,0.2627241313457489,0.9082599878311157,0.6001065969467163
1761468724118523000,5.64752294921875,0.4920971393585205,0.5070537328720093,0.6055996417999268
1761468724128478700,5.657478759765625,0.6846064329147339,0.18083328008651733,0.5840126276016235
1761468724138435800,5.667435791015625,0.8432496190071106,-0.010397125035524368,0.5530914664268494
1761468724148392000,5.677391845703125,0.9495357275009155,-0.08043672889471054,0.5053514242172241
1761468724158348800,5.687348876953125,1.0089391469955444,-0.03362927958369255,0.4293091297149658
1761468724168305000,5.697304931640625,1.032128095626831,0.12481069564819336,0.34044209122657776
1761468724178261800,5.70726171875,1.028769850730896,0.35672807693481445,0.24641786515712738
1761468724188217900,5.7172177734375,1.0094587802886963,0.5582244396209717,0.12576965987682343
1761468724198175000,5.727175048828125,0.9867879152297974,0.6568546295166016,-0.01777711696922779
1761468724208130800,5.737130859375,0.9722393751144409,0.6227800250053406,-0.1603001207113266
1761468724218087000,5.7470869140625,0.9688233733177185,0.4700445532798767,-0.27214673161506653
1761468724228043800,5.757043701171875,0.984534502029419,0.23711231350898743,-0.3352217674255371
1761468724237999900,5.766999755859375,1.0130152702331543,-0.04352626949548721,-0.34337636828422546
1761468724247956700,5.776956787109375,1.041843295097351,-0.2891707122325897,-0.3047580122947693
1761468724257912800,5.786912841796875,1.0623687505722046,-0.4469451606273651,-0.24169862270355225
1761468724267870000,5.796869873046875,1.0641133785247803,-0.5043702125549316,-0.15928013622760773
1761468724277825800,5.80682568359375,1.0255755186080933,-0.4537760019302368,-0.06782104820013046
1761468724287783000,5.816782958984375,0.9593119621276855,-0.329152911901474,0.016610799357295036
1761468724297738800,5.82673876953125,0.8837903141975403,-0.1413223147392273,0.09380465000867844
1761468724307695900,5.83669580078125,0.8024431467056274,0.07651247829198837,0.14461100101470947
1761468724317651700,5.846651611328125,0.7330976128578186,0.2706065773963928,0.15447400510311127
1761468724327608800,5.85660888671875,0.6867210865020752,0.4479063153266907,0.13645648956298828
1761468724337565000,5.86656494140625,0.6335462927818298,0.6120811104774475,0.08908044546842575
1761468724347520800,5.876520751953125,0.607048511505127,0.6919674277305603,0.031232427805662155
1761468724357478000,5.886477783203125,0.6125245094299316,0.7208850979804993,-0.00990249216556549
1761468724367433700,5.896433837890625,0.6541852951049805,0.6898020505905151,-0.017021261155605316
1761468724377390800,5.906390869140625,0.7128848433494568,0.6347872614860535,0.027398666366934776
1761468724387346700,5.9163466796875,0.7838242650032043,0.6111230850219727,0.1030166745185852
1761468724397303800,5.9263037109375,0.8505969047546387,0.6067181825637817,0.17688371241092682
1761468724407260000,5.936260009765625,0.9069227576255798,0.6053855419158936,0.22098518908023834
1761468724417216800,5.946216796875,0.9472648501396179,0.5665683150291443,0.2235117256641388
1761468724427172900,5.9561728515625,0.9955078363418579,0.4662044942378998,0.20259258151054382
1761468724437130000,5.9661298828125,1.072473168373108,0.3593859076499939,0.19620072841644287
1761468724447085800,5.9760859375,1.1469224691390991,0.26759830117225647,0.20525075495243073
1761468724457041700,5.986041748046875,1.2194135189056396,0.2023489773273468,0.22712409496307373
1761468724466998800,5.995998779296875,1.2924026250839233,0.16644187271595,0.24950113892555237
1761468724476955000,6.005954833984375,1.3355504274368286,0.09400521963834763,0.23377197980880737
1761468724486911700,6.015911865234375,1.2982003688812256,-0.1186298131942749,0.1688815802335739
1761468724496867800,6.025867919921875,1.1786062717437744,-0.4588012397289276,0.06406621634960175
1761468724506825000,6.035824951171875,1.055749535560608,-0.8370423316955566,-0.008668874390423298
1761468724516780800,6.04578076171875,0.9794858694076538,-1.0970940589904785,0.047406379133462906
1761468724526738200,6.05573828125,0.9374871850013733,-1.1054917573928833,0.23458048701286316
1761468724536694300,6.0656943359375,0.9248390793800354,-0.8816061615943909,0.4845737814903259
1761468724546651100,6.075651123046875,0.931975245475769,-0.500584065914154,0.6978725790977478
1761468724556607200,6.085607177734375,0.9720755219459534,0.016550986096262932,0.8245391845703125
1761468724566563000,6.09556298828125,1.0259183645248413,0.5327121019363403,0.8464988470077515
1761468724576520200,6.105520263671875,1.0515094995498657,0.8652892708778381,0.7679915428161621
1761468724586476300,6.115476318359375,1.0658824443817139,0.9358336925506592,0.6207286715507507
1761468724596433200,6.12543310546875,1.084928274154663,0.8055193424224854,0.44514966011047363
1761468724606389200,6.13538916015625,1.1293861865997314,0.5540130138397217,0.27274268865585327
1761468724616346000,6.14534619140625,1.2147058248519897,0.27406391501426697,0.12529519200325012
1761468724626302200,6.15530224609375,1.298064947128296,-0.0011027257423847914,-0.01230056956410408
1761468724636259300,6.16525927734375,1.3482530117034912,-0.2806171774864197,-0.16879163682460785
1761468724646215200,6.175215087890625,1.3722578287124634,-0.5592135190963745,-0.31607329845428467
1761468724656172300,6.18517236328125,1.382761836051941,-0.7959283590316772,-0.4300488531589508
1761468724666128100,6.195128173828125,1.3854444026947021,-0.9987987279891968,-0.4702661335468292
1761468724676084200,6.205084228515625,1.3672001361846924,-1.082481026649475,-0.43390172719955444
1761468724686041000,6.215041015625,1.319035530090332,-0.9983848333358765,-0.3336038887500763
1761468724695997200,6.2249970703125,1.2363576889038086,-0.7929584383964539,-0.21985414624214172
1761468724705954300,6.234954345703125,1.1661310195922852,-0.4572882652282715,-0.12029024213552475
1761468724715910100,6.24491015625,1.1364405155181885,0.014939730055630207,-0.045105211436748505
1761468724725867300,6.2548671875,1.1437088251113892,0.5593778491020203,-0.013162249699234962
1761468724735823000,6.264822998046875,1.1623286008834839,1.0381081104278564,-0.048140741884708405
1761468724745780200,6.2747802734375,1.176198124885559,1.3457800149917603,-0.12141048163175583
1761468724755736000,6.284736083984375,1.1874395608901978,1.4847596883773804,-0.1974051147699356
1761468724765693200,6.294693115234375,1.1962965726852417,1.4759820699691772,-0.26889193058013916
1761468724775649300,6.304649169921875,1.2120391130447388,1.3321633338928223,-0.3437808156013489
1761468724785605000,6.314605224609375,1.2234543561935425,1.0512278079986572,-0.39982059597969055
1761468724795562200,6.324562255859375,1.235068440437317,0.7125034928321838,-0.40521135926246643
1761468724805518000,6.33451806640625,1.2673486471176147,0.4084295332431793,-0.34823304414749146
1761468724815475200,6.34447509765625,1.2974625825881958,0.23358556628227234,-0.2504843771457672
1761468724825431300,6.354431396484375,1.293731927871704,0.16167625784873962,-0.1397678107023239
1761468724835388200,6.36438818359375,1.2546465396881104,0.18938671052455902,-0.03791442885994911
1761468724845344300,6.37434423828125,1.1963567733764648,0.29013752937316895,0.030154697597026825
1761468724855301000,6.384301025390625,1.1495882272720337,0.4042622447013855,0.06147560104727745
1761468724865257200,6.39425732421875,1.0836347341537476,0.5260716080665588,0.053436364978551865
1761468724875214300,6.40421435546875,0.9969384074211121,0.5993620753288269,0.01231689378619194
1761468724885170200,6.414170166015625,0.9009609222412109,0.5949141383171082,-0.027070268988609314
1761468724895126300,6.424126220703125,0.7830223441123962,0.5040497183799744,-0.05184245854616165
1761468724905083100,6.434083251953125,0.6794113516807556,0.3452145457267761,-0.043221358209848404
1761468724915039200,6.444039306640625,0.6127449870109558,0.20770329236984253,-0.004774633329361677
1761468724924996000,6.45399609375,0.5716127157211304,0.1666586846113205,0.03981039673089981
1761468724934952200,6.4639521484375,0.5446481704711914,0.22033682465553284,0.08135836571455002
1761468724944909300,6.473909423828125,0.5163342952728271,0.32917484641075134,0.12773573398590088
1761468724954865200,6.483865234375,0.48185625672340393,0.43652501702308655,0.18207859992980957
1761468724964822300,6.493822265625,0.4551315903663635,0.5128322243690491,0.2570318281650543
1761468724974778000,6.503778076171875,0.43804502487182617,0.5262665748596191,0.3432340919971466
1761468724984735200,6.5137353515625,0.40448200702667236,0.48031550645828247,0.41481006145477295
1761468724994691000,6.523691162109375,0.33278945088386536,0.38582897186279297,0.4541742503643036
1761468725004647200,6.533647216796875,0.21367521584033966,0.22814993560314178,0.42535293102264404
1761468725014604300,6.543604248046875,0.05812637507915497,0.04572899639606476,0.35263052582740784
1761468725024560000,6.55356005859375,-0.09935467690229416,-0.11249423027038574,0.27095943689346313
1761468725034517200,6.563517333984375,-0.24888263642787933,-0.2730522155761719,0.184723362326622
1761468725044473000,6.57347314453125,-0.37086281180381775,-0.36698171496391296,0.11082632094621658
1761468725054430200,6.58343017578125,-0.46216848492622375,-0.33608052134513855,0.08922861516475677
1761468725064386000,6.593385986328125,-0.5133912563323975,-0.20835797488689423,0.11483851075172424
1761468725074343200,6.60334326171875,-0.5174978375434875,-0.012635351158678532,0.19173994660377502
1761468725084299300,6.61329931640625,-0.5008243322372437,0.20035739243030548,0.3133417069911957
1761468725094256000,6.623256103515625,-0.5005151629447937,0.37657180428504944,0.4452158510684967
1761468725104212200,6.633212158203125,-0.5340324640274048,0.4764399230480194,0.5410344004631042
1761468725114168000,6.64316796875,-0.5902837514877319,0.49734440445899963,0.5906221866607666
1761468725124125200,6.653125244140625,-0.648892343044281,0.44004979729652405,0.5777395367622375
1761468725134081000,6.6630810546875,-0.6918491721153259,0.3216773271560669,0.498460978269577
1761468725144038100,6.6730380859375,-0.7244569063186646,0.1932324320077896,0.36869728565216064
1761468725153994200,6.682994140625,-0.754898190498352,0.08167315274477005,0.21416495740413666
1761468725163951000,6.692951171875,-0.7784363627433777,-0.016156362369656563,0.06943028420209885
1761468725173907200,6.7029072265625,-0.8036080002784729,-0.10636667907238007,-0.058633144944906235
1761468725183864000,6.712864013671875,-0.836322009563446,-0.16255246102809906,-0.14559707045555115
1761468725193820200,6.722820068359375,-0.866819441318512,-0.15935324132442474,-0.18523630499839783
1761468725203777300,6.73277734375,-0.8887109756469727,-0.09049249440431595,-0.18043291568756104
1761468725213733000,6.742733154296875,-0.9214856624603271,0.012204861268401146,-0.15719230473041534
1761468725223689200,6.752689208984375,-0.9560719728469849,0.09976986795663834,-0.13485191762447357
1761468725233646000,6.76264599609375,-0.996783435344696,0.16881205141544342,-0.1193573847413063
1761468725243602200,6.772602294921875,-1.0402132272720337,0.19681759178638458,-0.11620842665433884
1761468725253559000,6.78255908203125,-1.0702917575836182,0.19726872444152832,-0.12656866014003754
1761468725263515100,6.79251513671875,-1.0741140842437744,0.16323457658290863,-0.14803658425807953
1761468725273472300,6.80247216796875,-1.0548524856567383,0.08869457989931107,-0.1792040914297104
1761468725283428000,6.812427978515625,-1.0371841192245483,-0.009845808148384094,-0.21335181593894958
1761468725293385200,6.82238525390625,-1.0409210920333862,-0.11348698288202286,-0.2507215440273285
1761468725303341000,6.832341064453125,-1.0521200895309448,-0.19749753177165985,-0.279974102973938
1761468725313298200,6.842298095703125,-1.0660284757614136,-0.264001727104187,-0.29750940203666687
1761468725323254300,6.852254150390625,-1.0771530866622925,-0.3151034712791443,-0.2894522249698639
1761468725333210000,6.862210205078125,-1.083164095878601,-0.330559641122818,-0.24695590138435364
1761468725343167200,6.872167236328125,-1.0892670154571533,-0.2963196635246277,-0.17209576070308685
1761468725353123000,6.882123046875,-1.0984331369400024,-0.24745731055736542,-0.08005904406309128
1761468725363080200,6.892080078125,-1.1185288429260254,-0.21390831470489502,0.008559697307646275
1761468725373036000,6.9020361328125,-1.1417490243911743,-0.20216430723667145,0.09030888229608536
1761468725382993200,6.9119931640625,-1.1601160764694214,-0.20165808498859406,0.16085897386074066
1761468725392949200,6.92194921875,-1.1524968147277832,-0.17937222123146057,0.20890532433986664
1761468725402906000,6.931906005859375,-1.1127731800079346,-0.13401766121387482,0.21925565600395203
1761468725412862200,6.9418623046875,-1.051378607749939,-0.07763801515102386,0.19118142127990723
1761468725422819000,6.951819091796875,-0.9871116280555725,-0.021444100886583328,0.13181640207767487
1761468725432775200,6.961775146484375,-0.9472494721412659,0.027076030150055885,0.0688648670911789
1761468725442731300,6.971731201171875,-0.939396858215332,0.06087116524577141,0.031228449195623398
1761468725452688100,6.981688232421875,-0.9548661112785339,0.10350783914327621,0.04816935211420059
1761468725462644200,6.991644287109375,-0.9601518511772156,0.1477062702178955,0.117692731320858
1761468725472601000,7.00160107421875,-0.932174801826477,0.1715277135372162,0.21574419736862183
1761468725482557200,7.01155712890625,-0.892448365688324,0.11355841904878616,0.301288366317749
1761468725492514000,7.02151416015625,-0.8437119722366333,0.006541421636939049,0.35985180735588074
1761468725502470100,7.03147021484375,-0.7681410908699036,-0.1027715653181076,0.3980643153190613
1761468725512427300,7.04142724609375,-0.66895592212677,-0.21505814790725708,0.420384019613266
1761468725522383000,7.051383056640625,-0.5714234113693237,-0.31838226318359375,0.41542571783065796
1761468725532339700,7.061339599609375,-0.49049264192581177,-0.35170185565948486,0.39867445826530457
1761468725542295800,7.0712958984375,-0.42069631814956665,-0.2563014626502991,0.37287959456443787
1761468725552252000,7.081251953125,-0.3719671368598938,-0.09878107905387878,0.316379576921463
1761468725562208800,7.091208740234375,-0.35690197348594666,-0.013903286308050156,0.2077762931585312
1761468725572165000,7.1011650390625,-0.38171544671058655,-0.11244077980518341,0.028272848576307297
1761468725582121700,7.111121826171875,-0.4189074635505676,-0.37239328026771545,-0.19743503630161285
1761468725592078000,7.121078125,-0.46326693892478943,-0.6386494040489197,-0.3743634521961212
1761468725602034700,7.13103466796875,-0.5161524415016174,-0.8036179542541504,-0.42838674783706665
1761468725611991000,7.140990966796875,-0.5640571117401123,-0.7772998213768005,-0.33196592330932617
1761468725621948000,7.150947998046875,-0.5963829755783081,-0.538577675819397,-0.10684671998023987
1761468725631904000,7.160904052734375,-0.6108068823814392,-0.1666421890258789,0.15477582812309265
1761468725641860900,7.17086083984375,-0.5772567987442017,0.16175596415996552,0.3528236746788025
1761468725651817000,7.18081689453125,-0.5121006965637207,0.3122623860836029,0.42052602767944336
1761468725661773000,7.19077294921875,-0.457671582698822,0.2561793327331543,0.35509029030799866
1761468725671730000,7.20072998046875,-0.40191590785980225,0.08937036991119385,0.20476923882961273
1761468725681686000,7.21068603515625,-0.34734952449798584,-0.06889896839857101,0.038292042911052704
1761468725691643000,7.220642822265625,-0.31036725640296936,-0.16739945113658905,-0.08847442269325256
1761468725701599000,7.230598876953125,-0.29268747568130493,-0.24315108358860016,-0.18544672429561615
1761468725711555800,7.240555908203125,-0.2777698040008545,-0.3378046452999115,-0.28122490644454956
1761468725721512000,7.250511962890625,-0.2704886794090271,-0.43675631284713745,-0.374912291765213
1761468725731468800,7.26046875,-0.2703600525856018,-0.5105969309806824,-0.4428439438343048
1761468725741425000,7.2704248046875,-0.2944600284099579,-0.5463287234306335,-0.4578930139541626
1761468725751381800,7.2803818359375,-0.3564693331718445,-0.5120956897735596,-0.42342931032180786
1761468725761338000,7.290338134765625,-0.4444550573825836,-0.41221553087234497,-0.34757301211357117
1761468725771294000,7.3002939453125,-0.5429009199142456,-0.25831517577171326,-0.2648499011993408
1761468725781251000,7.3102509765625,-0.6499164700508118,-0.08844900131225586,-0.1965743899345398
1761468725791207000,7.32020703125,-0.7508848905563354,0.07874477654695511,-0.15115684270858765
1761468725801164000,7.3301640625,-0.8714877367019653,0.21279598772525787,-0.16213400661945343
1761468725811119900,7.340119873046875,-0.9773797988891602,0.2582356333732605,-0.20977076888084412
1761468725821077000,7.350076904296875,-1.0686366558074951,0.24571816623210907,-0.2723884582519531
1761468725831033000,7.360033203125,-1.1446110010147095,0.15190698206424713,-0.34176701307296753
1761468725840990000,7.369989990234375,-1.2069708108901978,-0.030081376433372498,-0.412204384803772
1761468725850946000,7.379946044921875,-1.2530879974365234,-0.26651841402053833,-0.4674162268638611
1761468725860903000,7.38990283203125,-1.2934421300888062,-0.460475891828537,-0.49435141682624817
1761468725870859000,7.39985888671875,-1.3187685012817383,-0.5824790596961975,-0.49506115913391113
1761468725880814800,7.40981494140625,-1.3502100706100464,-0.6409239172935486,-0.5010380744934082
1761468725890772000,7.41977197265625,-1.377578616142273,-0.6315475106239319,-0.5119189620018005
1761468725900728000,7.42972802734375,-1.4016499519348145,-0.5740883946418762,-0.5200220942497253
1761468725910685000,7.439684814453125,-1.4325250387191772,-0.4817824065685272,-0.5118560791015625
1761468725920641000,7.44964111328125,-1.472753882408142,-0.3519178628921509,-0.46457210183143616
1761468725930598000,7.459597900390625,-1.51921546459198,-0.20077919960021973,-0.37404194474220276
1761468725940554000,7.469553955078125,-1.5523903369903564,-0.09630125761032104,-0.27251166105270386
1761468725950511000,7.479510986328125,-1.5643649101257324,-0.08572158962488174,-0.1951012760400772
1761468725960467000,7.489467041015625,-1.5550851821899414,-0.13051412999629974,-0.14723438024520874
1761468725970424000,7.499424072265625,-1.5316600799560547,-0.16691474616527557,-0.11471956968307495
1761468725980380000,7.5093798828125,-1.4912691116333008,-0.20358160138130188,-0.0845322236418724
1761468725990336800,7.519336669921875,-1.4535439014434814,-0.24333328008651733,-0.04713558033108711
1761468726000292900,7.52929296875,-1.4295302629470825,-0.2760249972343445,-0.0003162524662911892
1761468726010249000,7.5392490234375,-1.4189404249191284,-0.3350962996482849,0.04721691459417343
1761468726020206000,7.5492060546875,-1.428223729133606,-0.4241248071193695,0.08547499030828476
1761468726030162000,7.559161865234375,-1.4507369995117188,-0.5050883889198303,0.11002667248249054
1761468726040119000,7.569119140625,-1.4800528287887573,-0.5427019596099854,0.12420996278524399
1761468726050075000,7.579074951171875,-1.515403389930725,-0.5406151413917542,0.12220513075590134
1761468726060032000,7.589031982421875,-1.5505521297454834,-0.5079019665718079,0.10103191435337067
1761468726069988000,7.598988037109375,-1.569129228591919,-0.4401870667934418,0.0687117874622345
1761468726079945000,7.608945068359375,-1.577293038368225,-0.3151330351829529,0.049297433346509933
1761468726089901000,7.618901123046875,-1.5671591758728027,-0.19047710299491882,0.033529918640851974
1761468726099858000,7.62885791015625,-1.554274320602417,-0.18627068400382996,-0.021595817059278488
1761468726109814000,7.63881396484375,-1.5245558023452759,-0.3306984305381775,-0.09763572365045547
1761468726119769900,7.648769775390625,-1.5621135234832764,-0.41879475116729736,-0.1785513311624527
1761468726129727000,7.65872705078125,-1.6274092197418213,-0.47089657187461853,-0.246878981590271
1761468726139683000,7.66868310546875,-1.723242163658142,-0.4581625759601593,-0.2891189157962799
1761468726149640000,7.678639892578125,-1.8408622741699219,-0.41761326789855957,-0.3376350700855255
1761468726159596000,7.688595947265625,-1.9307632446289062,-0.33667129278182983,-0.3812015950679779
1761468726169553000,7.698552978515625,-1.941623568534851,-0.18849487602710724,-0.3702027201652527
1761468726179509000,7.708509033203125,-1.8777594566345215,0.0016633485211059451,-0.29123419523239136
1761468726189466000,7.718466064453125,-1.7471394538879395,0.20650677382946014,-0.14226655662059784
1761468726199422000,7.728421875,-1.5818772315979004,0.4257555902004242,0.0512198768556118
1761468726209379000,7.738379150390625,-1.4354392290115356,0.5696616768836975,0.22940106689929962
1761468726219335000,7.7483349609375,-1.3180514574050903,0.5414301156997681,0.35622844099998474
1761468726229291000,7.758291015625,-1.2383009195327759,0.40078189969062805,0.4346492290496826
1761468726239248000,7.768247802734375,-1.2144602537155151,0.205923393368721,0.44603458046913147
1761468726249204000,7.778203857421875,-1.2323309183120728,-0.027715465053915977,0.38802772760391235
1761468726259161000,7.7881611328125,-1.2780510187149048,-0.21694399416446686,0.2843979001045227
1761468726269117000,7.798116943359375,-1.3303687572479248,-0.3011043965816498,0.15565112233161926
1761468726279074000,7.808073974609375,-1.3896005153656006,-0.33358556032180786,0.0029296833090484142
1761468726289030000,7.81802978515625,-1.4465157985687256,-0.35369136929512024,-0.1686314195394516
1761468726298987000,7.827987060546875,-1.4764777421951294,-0.3350166082382202,-0.3202545940876007
1761468726308942800,7.83794287109375,-1.4952669143676758,-0.29670995473861694,-0.43195903301239014
1761468726318900000,7.84789990234375,-1.503879427909851,-0.249295175075531,-0.48292386531829834
1761468726328856000,7.85785595703125,-1.5065330266952515,-0.1871524453163147,-0.4563404619693756
1761468726338812000,7.86781201171875,-1.51512610912323,-0.09150030463933945,-0.35895246267318726
1761468726348769000,7.87776904296875,-1.532542109489441,0.015572619624435902,-0.23477379977703094
1761468726358724900,7.887724853515625,-1.5554592609405518,0.08573770523071289,-0.1258973777294159
1761468726368682000,7.897681884765625,-1.570453405380249,0.08127611130475998,-0.06015777587890625
1761468726378637800,7.907637939453125,-1.5656843185424805,0.022756341844797134,-0.04832526296377182
1761468726388595000,7.917594970703125,-1.5381064414978027,-0.0728577971458435,-0.08343451470136642
1761468726398551000,7.927551025390625,-1.49640953540802,-0.18471919000148773,-0.16895093023777008
1761468726408508000,7.9375078125,-1.4549736976623535,-0.2807410657405853,-0.29451683163642883
1761468726418464000,7.947464111328125,-1.4214086532592773,-0.32765448093414307,-0.4350544810295105
1761468726428420900,7.9574208984375,-1.3902379274368286,-0.3142307996749878,-0.5615322589874268
1761468726438377000,7.967376953125,-1.3421708345413208,-0.25310954451560974,-0.6332791447639465
1761468726448332800,7.977332763671875,-1.281934380531311,-0.1563529223203659,-0.6266036629676819
1761468726458290000,7.9872900390625,-1.2256765365600586,-0.06849748641252518,-0.5484409332275391
1761468726470111700,7.99911181640625,-1.1438255310058594,-0.024669039994478226,-0.38236191868782043
1761468726480068900,8.00906884765625,-1.061408519744873,-0.023930583149194717,-0.2098873108625412
1761468726490024700,8.019024658203126,-0.9674774408340454,-0.030591947957873344,-0.04061732813715935
1761468726499981800,8.02898193359375,-0.8832702040672302,-0.04414541646838188,0.08722097426652908
1761468726509938000,8.03893798828125,-0.808266282081604,-0.05141717940568924,0.15776437520980835
1761468726519894800,8.048894775390625,-0.7364163994789124,-0.059189122170209885,0.17626039683818817
1761468726529851000,8.058850830078125,-0.6747570633888245,-0.09303843230009079,0.15383444726467133
1761468726539808000,8.06880810546875,-0.6168306469917297,-0.15078029036521912,0.12405046075582504
1761468726549763800,8.078763916015625,-0.5489919185638428,-0.22014550864696503,0.12020006030797958
1761468726559721000,8.088720947265625,-0.5025345683097839,-0.269639253616333,0.13064727187156677
1761468726569677000,8.098677001953124,-0.4579540491104126,-0.2748768925666809,0.15748314559459686
1761468726579633000,8.1086328125,-0.4194243848323822,-0.1985654979944229,0.193826824426651
1761468726589590000,8.118590087890626,-0.38444191217422485,-0.0930505245923996,0.224607914686203
1761468726599545900,8.1285458984375,-0.34938859939575195,0.007092278450727463,0.24117016792297363
1761468726609503000,8.1385029296875,-0.315160870552063,0.004328183829784393,0.22252005338668823
1761468726619458800,8.148458740234375,-0.31444019079208374,-0.25949910283088684,0.1418658345937729
1761468726629416000,8.158416015625,-0.3393931984901428,-0.6995968818664551,0.03361605852842331
1761468726639372000,8.1683720703125,-0.3574792742729187,-1.0188848972320557,-0.014481430873274803
1761468726649329000,8.178328857421874,-0.36637741327285767,-1.1480019092559814,0.015993386507034302
1761468726659285000,8.188284912109374,-0.38758397102355957,-1.007846713066101,0.1307644546031952
1761468726669240800,8.19824072265625,-0.40565672516822815,-0.5533678531646729,0.30695465207099915
1761468726679198000,8.208197998046876,-0.40760332345962524,0.11283518373966217,0.4919484555721283
1761468726689153800,8.21815380859375,-0.3827531039714813,0.760260820388794,0.6026017665863037
1761468726699111000,8.22811083984375,-0.36445197463035583,1.1139668226242065,0.5982377529144287
1761468726709067000,8.23806689453125,-0.3439352512359619,1.1603423357009888,0.5116546154022217
1761468726719023900,8.24802392578125,-0.2876192331314087,0.95618736743927,0.3737524747848511
1761468726728980000,8.25797998046875,-0.19767868518829346,0.560719907283783,0.2085302174091339
1761468726738937000,8.26793701171875,-0.07622859627008438,0.0608186200261116,0.05638308823108673
1761468726748893000,8.277892822265626,0.06794428825378418,-0.4324193298816681,-0.04297971725463867
1761468726758850000,8.28785009765625,0.198736310005188,-0.769195020198822,-0.07407303154468536
1761468726768806000,8.297805908203125,0.2923717200756073,-0.9307623505592346,-0.08457361161708832
1761468726778763000,8.307762939453125,0.33985140919685364,-0.9701945185661316,-0.09267939627170563
1761468726788718800,8.31771875,0.31441208720207214,-0.8949013352394104,-0.11404114216566086
1761468726798675000,8.327675048828125,0.23397326469421387,-0.7667332291603088,-0.14535309374332428
1761468726808632000,8.337632080078125,0.11807969957590103,-0.5554079413414001,-0.16153259575366974
1761468726819211000,8.3482109375,-0.022697187960147858,-0.27276596426963806,-0.16101640462875366
1761468726829167000,8.3581669921875,-0.14199694991111755,-0.04170079156756401,-0.1400008648633957
1761468726839124000,8.3681240234375,-0.23677365481853485,0.12042838335037231,-0.12399149686098099
1761468726849080000,8.378080078125,-0.30249327421188354,0.2074676901102066,-0.12810370326042175
1761468726859037000,8.388036865234374,-0.33790361881256104,0.2335362583398819,-0.14260393381118774
1761468726868993000,8.397992919921874,-0.3497709333896637,0.23442281782627106,-0.16050997376441956
1761468726878950100,8.4079501953125,-0.3455408811569214,0.19916582107543945,-0.19897201657295227
1761468726888906000,8.417906005859376,-0.33129775524139404,0.11285728216171265,-0.2609352469444275
1761468726898863000,8.427863037109375,-0.3163595497608185,-0.014818916097283363,-0.32311925292015076
1761468726908819000,8.43781884765625,-0.3077058792114258,-0.14195342361927032,-0.3660496771335602
1761468726918775000,8.447775146484375,-0.31080588698387146,-0.22311894595623016,-0.3811349868774414
1761468726928732000,8.45773193359375,-0.30397701263427734,-0.2651880979537964,-0.37516552209854126
1761468726938688000,8.46768798828125,-0.29456281661987305,-0.2657839059829712,-0.35160839557647705
1761468726948645000,8.47764501953125,-0.2723179757595062,-0.1897251009941101,-0.27715545892715454
1761468726958601000,8.48760107421875,-0.23857702314853668,-0.05906764417886734,-0.16223064064979553
1761468726968558000,8.49755810546875,-0.20878131687641144,0.056792378425598145,-0.04778154566884041
1761468726978514000,8.507513916015625,-0.18872211873531342,0.1277233213186264,0.036085065454244614
1761468726988471000,8.517470947265625,-0.16571161150932312,0.15824900567531586,0.09334435313940048
1761468726998427000,8.527427001953125,-0.1443892866373062,0.1429767608642578,0.13313502073287964
1761468727008384000,8.537384033203125,-0.12590882182121277,0.0687376856803894,0.16440053284168243
1761468727018340000,8.547340087890625,-0.11048193275928497,-0.03501971438527107,0.18002362549304962
1761468727028297000,8.557296875,-0.10953917354345322,-0.14401277899742126,0.1686095893383026
1761468727038253000,8.567253173828124,-0.10503734648227692,-0.21721866726875305,0.13349395990371704
1761468727048209000,8.577208984375,-0.09862658381462097,-0.23500140011310577,0.10233418643474579
1761468727058166000,8.587166015625,-0.07431823760271072,-0.2101341187953949,0.08339401334524155
1761468727068121900,8.597121826171875,-0.03742120787501335,-0.1699797809123993,0.08099343627691269
1761468727078079000,8.607078857421875,-0.012540725991129875,-0.15027710795402527,0.09879886358976364
1761468727088035000,8.61703515625,-0.015710951760411263,-0.15923118591308594,0.1348748356103897
1761468727097992000,8.626991943359375,-0.03877757117152214,-0.22072935104370117,0.17263831198215485
1761468727107948000,8.636947998046875,-0.053897399455308914,-0.2846369445323944,0.22637371718883514
1761468727117905200,8.6469052734375,-0.12191823869943619,-0.26927220821380615,0.26819169521331787
1761468727127861000,8.656861083984374,-0.16493947803974152,-0.25544241070747375,0.32572662830352783
1761468727137818000,8.666818115234374,-0.16817599534988403,-0.160677969455719,0.41137799620628357
1761468727147774000,8.67677392578125,-0.16247603297233582,-0.0613255500793457,0.48316776752471924
1761468727157731000,8.68673095703125,-0.1850804090499878,-0.052344340831041336,0.48918551206588745
1761468727167687000,8.69668701171875,-0.24997100234031677,-0.16617582738399506,0.39467763900756836
1761468727177643000,8.70664306640625,-0.35976555943489075,-0.34751224517822266,0.24036043882369995
1761468727187600100,8.71660009765625,-0.504448413848877,-0.5058097243309021,0.09707357734441757
1761468727197556000,8.726555908203125,-0.657071590423584,-0.5868433713912964,0.012072890065610409
1761468727207513000,8.73651318359375,-0.7814872860908508,-0.5440418720245361,0.003747581737115979
1761468727217469000,8.746468994140624,-0.864818811416626,-0.3939049243927002,0.07149580866098404
1761468727227426000,8.756426025390626,-0.8838604092597961,-0.1980307400226593,0.18720190227031708
1761468727237382000,8.7663818359375,-0.8414264917373657,-0.02913542650640011,0.31504639983177185
1761468727247339000,8.776339111328125,-0.7654933929443359,0.05888417735695839,0.41113245487213135
1761468727257295000,8.786295166015625,-0.6761706471443176,0.06253837794065475,0.4518145024776459
1761468727267252000,8.796251953125,-0.6082336902618408,0.013147392310202122,0.4407336115837097
1761468727277208000,8.8062080078125,-0.5713744163513184,-0.02656909078359604,0.4141959547996521
1761468727287164000,8.816163818359374,-0.5894429087638855,-0.023707523941993713,0.377628356218338
1761468727297121000,8.82612109375,-0.6501232385635376,0.02530263178050518,0.33372554183006287
1761468727307076900,8.836076904296876,-0.7343771457672119,0.08398192375898361,0.25989845395088196
1761468727317034000,8.846033935546876,-0.8228002190589905,0.13024160265922546,0.15720990300178528
1761468727326990000,8.855989990234375,-0.8921878337860107,0.15449874103069305,0.020403306931257248
1761468727336947000,8.865947021484375,-0.9323914647102356,0.15881408751010895,-0.12849223613739014
1761468727346903000,8.875903076171875,-0.9303688406944275,0.15766307711601257,-0.26172804832458496
1761468727356860000,8.88585986328125,-0.881725013256073,0.1608651727437973,-0.360368549823761
1761468727366816000,8.89581591796875,-0.7873295545578003,0.1845441311597824,-0.41614577174186707
1761468727376773000,8.905773193359375,-0.6656678915023804,0.17201004922389984,-0.4276730716228485
1761468727386729000,8.91572900390625,-0.5428783297538757,0.10238650441169739,-0.3972741663455963
1761468727396686000,8.92568603515625,-0.4350728690624237,0.023908691480755806,-0.31910085678100586
1761468727406642000,8.935641845703126,-0.364298015832901,-0.035606566816568375,-0.22323663532733917
1761468727416599000,8.94559912109375,-0.33031484484672546,-0.07700495421886444,-0.12242250144481659
1761468727426555000,8.955554931640625,-0.28233373165130615,-0.09990547597408295,-0.019142452627420425
1761468727436511000,8.965510986328125,-0.25815215706825256,-0.04336629435420036,0.051393721252679825
1761468727446468000,8.975468017578125,-0.2646965980529785,0.017952190712094307,0.052899472415447235
1761468727456424000,8.985423828125,-0.25956329703330994,0.06047024577856064,-0.006949877832084894
1761468727466381000,8.995381103515625,-0.23724015057086945,0.11881691217422485,-0.10264924168586731
1761468727476337000,9.0053369140625,-0.2114352434873581,0.16428790986537933,-0.21708686649799347
1761468727486294000,9.0152939453125,-0.17530786991119385,0.15320943295955658,-0.33870065212249756
1761468727496249900,9.025249755859376,-0.12750343978405,0.09579631686210632,-0.4152253568172455
1761468727506207000,9.03520703125,-0.09281018376350403,0.04741493612527847,-0.4163273572921753
1761468727516163000,9.0451630859375,-0.057804517447948456,0.01839861460030079,-0.34667715430259705
1761468727526120000,9.055119873046875,-0.030780620872974396,-0.029895413666963577,-0.23488937318325043
1761468727536076500,9.06507666015625,-0.011033805087208748,-0.11725687235593796,-0.12132111191749573
1761468727546032400,9.075032470703125,0.0012729287846013904,-0.22855010628700256,-0.05133963003754616
1761468727555989500,9.084989501953125,0.002807001117616892,-0.3307882249355316,-0.029217500239610672
1761468727565945600,9.094945556640624,0.0011731518898159266,-0.40137583017349243,-0.05352284014225006
1761468727575902500,9.10490234375,0.018470995128154755,-0.42159801721572876,-0.09515287727117538
1761468727585858600,9.114858642578126,0.05847886577248573,-0.3560669422149658,-0.11253293603658676
1761468727595815400,9.1248154296875,0.10379396378993988,-0.20654425024986267,-0.09620679169893265
1761468727605771500,9.134771484375,0.1474519670009613,-0.021095035597682,-0.07076188921928406
1761468727615728600,9.144728759765625,0.19905328750610352,0.16832175850868225,-0.045853834599256516
1761468727625684500,9.1546845703125,0.24791111052036285,0.29710903763771057,-0.03876662999391556
1761468727635641600,9.1646416015625,0.2848512828350067,0.3156522810459137,-0.0505099855363369
1761468727645597400,9.174597412109375,0.3167564868927002,0.22686649858951569,-0.05413481593132019
1761468727655554600,9.184554443359374,0.3470253646373749,0.0785098522901535,-0.02706718072295189
1761468727665510400,9.194510498046874,0.37889593839645386,-0.11420181393623352,0.030804375186562538
1761468727675466500,9.204466552734376,0.4141244888305664,-0.31244736909866333,0.11267822980880737
1761468727685423600,9.214423583984376,0.4547150433063507,-0.4600312411785126,0.22757579386234283
1761468727695379500,9.22437939453125,0.4916935861110687,-0.483311265707016,0.37100085616111755
1761468727705336600,9.234336669921875,0.5130284428596497,-0.3635808527469635,0.5077965259552002
1761468727715292400,9.24429248046875,0.5185795426368713,-0.17037057876586914,0.5989449620246887
1761468727725249500,9.25424951171875,0.5221079587936401,-0.0009988625533878803,0.6230186223983765
1761468727735205400,9.264205322265624,0.5118147134780884,0.08212083578109741,0.5701091885566711
1761468727745162500,9.27416259765625,0.4735797345638275,0.08907780796289444,0.44465193152427673
1761468727755118600,9.28411865234375,0.43715691566467285,0.0468980148434639,0.27768126130104065
1761468727765075500,9.294075439453126,0.4025299847126007,-0.009600147604942322,0.10455235838890076
1761468727775031600,9.304031494140625,0.38454198837280273,-0.055492840707302094,-0.042131077498197556
1761468727784988400,9.313988525390625,0.3841278553009033,-0.07253361493349075,-0.15699641406536102
1761468727794944500,9.323944580078125,0.4070006310939789,-0.07444074004888535,-0.23825454711914062
1761468727804900400,9.333900390625,0.4404619336128235,-0.06532633304595947,-0.28953316807746887
1761468727814857500,9.343857421875,0.49246945977211,-0.042254384607076645,-0.28436997532844543
1761468727824813600,9.3538134765625,0.5267531275749207,-0.008623986504971981,-0.217094287276268
1761468727834770400,9.3637705078125,0.5194700360298157,0.021196838468313217,-0.11362296342849731
1761468727844726500,9.3737265625,0.5240054130554199,0.0016079561319202185,0.013692916370928288
1761468727854683600,9.38368359375,0.5003532767295837,-0.015149187296628952,0.12632842361927032
1761468727864639500,9.393639404296875,0.4440961480140686,-0.052301082760095596,0.1683291345834732
1761468727874596600,9.4035966796875,0.3564472496509552,-0.10125405341386795,0.1451570987701416
1761468727884552400,9.413552490234375,0.24678175151348114,-0.11438876390457153,0.07540171593427658
1761468727894509600,9.423509521484375,0.14422981441020966,-0.09771459549665451,-0.030966181308031082
1761468727904465400,9.43346533203125,0.07560840994119644,-0.07158312946557999,-0.15465402603149414
1761468727914421500,9.44342138671875,0.05024651437997818,-0.07263857871294022,-0.28492406010627747
1761468727924378600,9.453378662109374,0.0718759149312973,-0.06870242208242416,-0.3946923613548279
1761468727934334500,9.46333447265625,0.14128786325454712,-0.05619062855839729,-0.44815152883529663
1761468727944291600,9.47329150390625,0.2224666178226471,-0.04767943173646927,-0.44248777627944946
1761468727954247400,9.483247314453125,0.2949945628643036,-0.029515838250517845,-0.39875006675720215
1761468727964204500,9.49320458984375,0.3567149341106415,-0.022372707724571228,-0.3181937038898468
1761468727974160400,9.503160400390625,0.4003243148326874,-0.057851336896419525,-0.21725930273532867
1761468727984117500,9.513117431640625,0.40958383679389954,-0.10796910524368286,-0.12814539670944214
1761468727994073600,9.523073486328125,0.3842695653438568,-0.1347520649433136,-0.06951212882995605
1761468728004030500,9.533030517578124,0.31672486662864685,-0.1400618702173233,-0.050175443291664124
1761468728013986600,9.542986572265624,0.2087242156267166,-0.09206029772758484,-0.0699458122253418
1761468728023943400,9.552943359375,0.09077654033899307,-0.0016137491911649704,-0.12157571315765381
1761468728033899500,9.5628994140625,-0.013174386695027351,0.0931473821401596,-0.19309848546981812
1761468728043855400,9.57285546875,-0.081450916826725,0.19013172388076782,-0.257847398519516
1761468728053812500,9.5828125,-0.11018417030572891,0.2761588394641876,-0.30710339546203613
1761468728063768600,9.5927685546875,-0.10027960687875748,0.3438659608364105,-0.33340397477149963
1761468728073725400,9.602725341796875,-0.07007190585136414,0.35593968629837036,-0.34408244490623474
1761468728083681500,9.612681640625,-0.0075238412246108055,0.3190029561519623,-0.3350495398044586
1761468728093638400,9.622638427734374,0.07260438799858093,0.2183859795331955,-0.30312469601631165
1761468728103594500,9.632594482421876,0.15022461116313934,0.06700871884822845,-0.24999837577342987
1761468728113551600,9.642551513671876,0.20672860741615295,-0.08651664853096008,-0.17306429147720337
1761468728123507500,9.652507568359376,0.21805262565612793,-0.22879363596439362,-0.09536896646022797
1761468728133464600,9.662464599609375,0.20092026889324188,-0.34114694595336914,-0.05011356994509697
1761468728143420400,9.67242041015625,0.17572464048862457,-0.442220538854599,-0.07566206902265549
1761468728153376500,9.68237646484375,0.1935088336467743,-0.513738214969635,-0.10469342023134232
1761468728163333400,9.69233349609375,0.2220829576253891,-0.39671972393989563,-0.03166715055704117
1761468728173289500,9.70228955078125,0.2219148427248001,-0.13096670806407928,0.13369977474212646
1761468728183246600,9.71224658203125,0.20120877027511597,0.1499837338924408,0.3174280524253845
1761468728193202400,9.722202392578126,0.19608713686466217,0.3619104325771332,0.4429277181625366
1761468728203159600,9.73215966796875,0.19466954469680786,0.4520014524459839,0.5172145366668701
1761468728213115400,9.742115478515625,0.17450222373008728,0.4634913504123688,0.5522377490997314
1761468728223072500,9.752072509765625,0.12124831974506378,0.4007675349712372,0.5484331846237183
1761468728233028400,9.7620283203125,0.024189526215195656,0.23080191016197205,0.4685131311416626
1761468728242985500,9.7719853515625,-0.12099748849868774,-0.043650947511196136,0.30495429039001465
1761468728252941600,9.781941650390625,-0.2764657437801361,-0.3345171809196472,0.08434665203094482
1761468728262898400,9.7918984375,-0.4015309810638428,-0.513256311416626,-0.14483274519443512
1761468728272854500,9.8018544921875,-0.49608686566352844,-0.5562680959701538,-0.3409568965435028
1761468728282810400,9.811810302734376,-0.541943371295929,-0.4776081144809723,-0.4418922960758209
1761468728292767500,9.821767578125,-0.561673641204834,-0.3263033330440521,-0.4154796302318573
1761468728302723300,9.831723388671875,-0.5743196606636047,-0.1270112842321396,-0.27396270632743835
1761468728312680400,9.841680419921875,-0.5648242235183716,0.16807474195957184,-0.042084384709596634
1761468728322636500,9.851636474609375,-0.5257084965705872,0.47169029712677,0.21562518179416656
1761468728332593400,9.861593505859375,-0.4738560914993286,0.6567211151123047,0.4247889220714569
1761468728342549500,9.871549560546875,-0.4156782627105713,0.7193448543548584,0.5481246709823608
1761468728352506600,9.881506591796875,-0.36137279868125916,0.7245737910270691,0.5820173621177673
1761468728362462500,9.89146240234375,-0.31823545694351196,0.6610632538795471,0.5191891193389893
1761468728372419600,9.901419677734374,-0.27997544407844543,0.5238234996795654,0.3796258568763733
1761468728382375400,9.91137548828125,-0.23452860116958618,0.3439493775367737,0.21979248523712158
1761468728392331500,9.92133154296875,-0.20141495764255524,0.18899337947368622,0.08063153922557831
1761468728402288400,9.931288330078125,-0.17662225663661957,0.07754407823085785,-0.015027878805994987
1761468728412244500,9.941244384765625,-0.15112222731113434,0.008213776163756847,-0.06122765690088272
1761468728422201600,9.95120166015625,-0.1249859631061554,-0.04174739122390747,-0.06755399703979492
1761468728432157400,9.961157470703125,-0.11173609644174576,-0.07051565498113632,-0.05179598927497864
1761468728442114600,9.971114501953124,-0.1211535632610321,-0.06507615000009537,-0.030651021748781204
1761468728452070400,9.9810703125,-0.16277308762073517,-0.06148906424641609,-0.006572475656867027
1761468728462027500,9.991027587890626,-0.21587838232517242,-0.051944829523563385,0.00427298154681921
1761468728471983400,10.0009833984375,-0.2604948580265045,-0.02137109450995922,-0.011884590610861778
1761468728481940500,10.0109404296875,-0.28937017917633057,0.01931454800069332,-0.04946498945355415
1761468728491896600,10.020896484375,-0.30156996846199036,0.06956292688846588,-0.09880762547254562
1761468728501852400,10.030852294921875,-0.2999238669872284,0.11976537853479385,-0.1614512950181961
1761468728511809500,10.0408095703125,-0.2966211438179016,0.15037894248962402,-0.24698969721794128
1761468728521765400,10.050765380859374,-0.2997242510318756,0.1289444863796234,-0.35590261220932007
1761468728531722200,10.06072216796875,-0.2952772378921509,0.06395643204450607,-0.4729360342025757
1761468728541678000,10.070677978515626,-0.2748886048793793,-0.005611725617200136,-0.5627157688140869
1761468728551635200,10.08063525390625,-0.2550734877586365,-0.10531803965568542,-0.6103500127792358
1761468728561591000,10.090591064453125,-0.24193182587623596,-0.17467261850833893,-0.6030305624008179
1761468728571548200,10.100548095703125,-0.21935905516147614,-0.16115258634090424,-0.540195107460022
1761468728581504300,10.110504150390625,-0.1974167376756668,-0.12343955785036087,-0.44716769456863403
1761468728591461000,10.120461181640625,-0.17653010785579681,-0.09403026849031448,-0.35536664724349976
1761468728601417200,10.130417236328125,-0.1508689522743225,-0.07417906820774078,-0.2711167633533478
1761468728611374000,10.1403740234375,-0.11519777774810791,-0.051849864423274994,-0.17801520228385925
1761468728621330200,10.150330078125,-0.07372304052114487,-0.019230136647820473,-0.06526760756969452
1761468728631286300,10.160286376953126,-0.039255291223526,0.02335159294307232,0.031816691160202026
1761468728641243100,10.1702431640625,-0.008791926316916943,0.06620238721370697,0.0931258574128151
1761468728651199200,10.18019921875,0.014950758777558804,0.08993645012378693,0.10487067699432373
1761468728661156000,10.190156005859375,0.01453344151377678,0.09143021702766418,0.06876327842473984
1761468728671112200,10.2001123046875,-0.015165607444941998,0.08121158927679062,-0.008070670068264008
1761468728681069000,10.210069091796875,-0.05897700414061546,0.08617652207612991,-0.08729172497987747
1761468728691025200,10.220025146484375,-0.11298012733459473,0.11392319202423096,-0.1368003785610199
1761468728700982300,10.229982177734374,-0.15437710285186768,0.14354580640792847,-0.14229927957057953
1761468728710938000,10.239938232421874,-0.1804480254650116,0.166272833943367,-0.11110460758209229
1761468728720895200,10.249895263671876,-0.17905572056770325,0.23170137405395508,-0.04161874204874039
1761468728730851000,10.25985107421875,-0.1775185763835907,0.36726346611976624,0.09184278547763824
1761468728740807200,10.26980712890625,-0.21439164876937866,0.4659053683280945,0.34454110264778137
1761468728750764000,10.279763916015625,-0.23157905042171478,0.35180553793907166,0.49777114391326904
1761468728760720100,10.28972021484375,-0.18267062306404114,0.2234390377998352,0.5839444398880005
1761468728770677200,10.29967724609375,-0.10539393872022629,0.15707316994667053,0.6095163822174072
1761468728780633000,10.309633056640624,-0.01197238638997078,0.20049281418323517,0.5610532760620117
1761468728790590200,10.319590087890624,0.07323305308818817,0.21736125648021698,0.42612457275390625
1761468728800546000,10.329546142578126,0.1374272108078003,0.08690709620714188,0.20284725725650787
1761468728810503200,10.339503173828126,0.1864451766014099,-0.1378873586654663,-0.04827401041984558
1761468728820459000,10.349458984375,0.21146264672279358,-0.2756361663341522,-0.16129563748836517
1761468728830416100,10.359416015625,0.2288142889738083,-0.41603946685791016,-0.154639333486557
