time,seconds_elapsed,z,y,x
1761507714512570400,0.0815703125,0.04305822048187256,-0.10737236028648912,0.0009922898398246616
1761507714522542300,0.091542236328125,0.14388123219013213,-0.15931180636025966,-0.038883044555922966
1761507714532514300,0.101514404296875,0.20995383303463458,-0.21007665569670497,-0.05310405114004388
1761507714542486300,0.111486328125,0.22549276295006274,-0.2384231908675283,-0.0842826953310985
1761507714552458200,0.121458251953125,0.2300561253428459,-0.20356259762756526,-0.09617714039748534
1761507714562430500,0.131430419921875,0.21831717223227023,-0.1732407437957823,-0.05581096287802793
1761507714572401700,0.141401611328125,0.18789865309298037,-0.1448038269277662,0.026410927465744315
1761507714582373600,0.15137353515625,0.1325374158769846,-0.10794584932550787,0.08318333752076142
1761507714592345600,0.161345703125,0.09464636889994144,-0.060514016869291656,0.13132305338485165
1761507714602317600,0.171317626953125,0.07377016960978508,-0.017924582942947746,0.1624258101949468
1761507714612289800,0.181289794921875,0.08009235836863517,-0.001789586830511689,0.1895629695760086
1761507714622261800,0.19126171875,0.08745616513490677,0.00033288521617650985,0.21906877605086192
1761507714632234500,0.201234375,0.06402560518682003,-0.014189268872141838,0.24547608678741378
1761507714642206700,0.211206787109375,0.04361176271140575,-0.01884732381105423,0.25916047487733884
1761507714652178700,0.2211787109375,0.012169161221385002,-0.02878404980525374,0.2953687746655196
1761507714662150700,0.231150634765625,-0.0168225399851799,-0.019816388038918376,0.3446272745596245
1761507714672122600,0.24112255859375,-0.013270400461554527,-0.01612900476306677,0.3603003157161176
1761507714682094600,0.251094482421875,0.005428454789519309,-0.01302753161638975,0.40311785930991173
1761507714692066600,0.261066650390625,0.025202245795726774,-0.03143741385824978,0.44250433247648174
1761507714702038800,0.271038818359375,0.045532501640915865,-0.03235781663879752,0.49858789261765774
1761507714712010500,0.281010498046875,0.09033084378838539,-0.03259776287451386,0.5462269380837679
1761507714721982700,0.290982666015625,0.1219271745353937,-0.04684468021802604,0.5646227187350392
1761507714731954700,0.30095458984375,0.1569891355663538,-0.028757015667855736,0.5745230582416058
1761507714741926700,0.3109267578125,0.1763338875055313,-0.04331767513565719,0.570783981311135
1761507714751899000,0.32089892578125,0.17037936301529408,-0.07266695760823785,0.5398928762240335
1761507714761870600,0.33087060546875,0.1572147610157728,-0.0902823284715414,0.480884076285921
1761507714771842800,0.3408427734375,0.15287000980973242,-0.10044044213145971,0.40228513481281697
1761507714781814500,0.350814453125,0.1390150874584913,-0.12416625869907438,0.31729411768242716
1761507714791786800,0.360786865234375,0.10555354736149311,-0.1568137059342116,0.2716213125216774
1761507714801758700,0.3707587890625,0.05654255595505237,-0.19386749836951492,0.241625055648759
1761507714811730700,0.380730712890625,-0.019907061997056007,-0.20691475759968161,0.19224568758765234
1761507714821702700,0.39070263671875,-0.10753741465508937,-0.21915106577314436,0.13144432341065257
1761507714831674600,0.400674560546875,-0.18901041372716426,-0.2099485723376274,0.08572844629315658
1761507714841647600,0.410647705078125,-0.24167583598792552,-0.2080130011651665,0.06715568337347358
1761507714851619800,0.420619873046875,-0.26200433826744557,-0.2398082885503769,0.06960302172666415
1761507714861591600,0.430591552734375,-0.266057997572422,-0.27774565888717767,0.051212373908236616
1761507714871563800,0.440563720703125,-0.23742168567478655,-0.30548392596654594,-0.020297796614002436
1761507714881535700,0.45053564453125,-0.17979191900491714,-0.3535232227966189,-0.11081439049914478
1761507714891507700,0.4605078125,-0.08804945485293865,-0.4243655222609639,-0.1695583472223021
1761507714901479700,0.470479736328125,0.009602525603771209,-0.47817120059803125,-0.20413541081314907
1761507714911451600,0.48045166015625,0.09817395850419998,-0.48107408243268723,-0.24205769317867232
1761507714921423600,0.490423583984375,0.13679156619012356,-0.46135582100600003,-0.2904230436253361
1761507714931395800,0.500395751953125,0.17263503298759458,-0.42865269806087014,-0.3099890553660691
1761507714941367600,0.510367431640625,0.1697106699734926,-0.40800716572143136,-0.28584810039261355
1761507714951339800,0.52033984375,0.15542320142388344,-0.40186157563850283,-0.2529968559473753
1761507714961311500,0.5303115234375,0.1280798519462347,-0.3709255354311317,-0.2304060895579867
1761507714971283700,0.54028369140625,0.0997153427273035,-0.33054961283579465,-0.204508646306023
1761507714981255700,0.550255615234375,0.085956281965971,-0.2981432808801532,-0.1498195544642396
1761507714991227600,0.5602275390625,0.07488426833152771,-0.26170126366764307,-0.0809034829552751
1761507715001199600,0.57019970703125,0.036814357656240464,-0.23070545609705148,0.0008339209403377026
1761507715011171600,0.580171630859375,-0.05648702637553215,-0.1878393971864134,0.11176499662171117
1761507715021143600,0.5901435546875,-0.18254092545211315,-0.08851086181961,0.21670586457811294
1761507715031115800,0.60011572265625,-0.2912649195432663,0.03554134204573929,0.2928574494317174
1761507715041087700,0.610087646484375,-0.37667584258615966,0.15468341590724885,0.3495902307292446
1761507715051059700,0.620059814453125,-0.3704711427271366,0.26743936892822384,0.37732111821975556
1761507715061032700,0.63003271484375,-0.3288169438242912,0.3464373561888933,0.3887393149433657
1761507715071004700,0.640004638671875,-0.27975919066667554,0.3886993847917765,0.39039007782507684
1761507715080976600,0.6499765625,-0.23268530480265617,0.4423693809852004,0.35996030663941053
1761507715090948600,0.659948486328125,-0.17421499565541743,0.49063591069988904,0.314016191990301
1761507715100920600,0.669920654296875,-0.06592296324074268,0.5375068213377148,0.29982462156321854
1761507715110892800,0.679892822265625,0.03410159156620502,0.5659054520219564,0.34102892127409573
1761507715120864500,0.689864501953125,0.11446750617921352,0.5833833141107112,0.4416438431896269
1761507715130836700,0.699836669921875,0.13720657673180103,0.6248025352139026,0.5476134605387225
1761507715140808700,0.70980859375,0.1393903505116701,0.6708881406929343,0.5591382229093462
1761507715150780700,0.71978076171875,0.16092705953717232,0.7032371164381503,0.5589058754581958
1761507715160753000,0.7297529296875,0.2086673003554344,0.7194833178400993,0.5339726558621972
1761507715170724600,0.739724609375,0.3299602686405182,0.7441692116115242,0.48555882663130756
1761507715180696800,0.74969677734375,0.5127583837240934,0.7496755539428442,0.41018640945665535
1761507715190668500,0.75966845703125,0.740651778075099,0.684422671983391,0.34450971259456126
1761507715200640800,0.769640869140625,0.9052414517730474,0.5756717168200761,0.3089646076891571
1761507715210612700,0.77961279296875,1.0133353312671185,0.447802804210782,0.27933596028592433
1761507715220584700,0.789584716796875,1.0404150613725185,0.3200992382310331,0.24267562414761631
1761507715230556700,0.799556640625,0.9715724112927913,0.20397841188684104,0.2122594796285033
1761507715240528600,0.809528564453125,0.8113608065485953,0.061858636411279436,0.17385984380850567
1761507715250500600,0.81950048828125,0.5342863249212503,-0.09233239286914467,0.08013285477580502
1761507715260473900,0.829473876953125,0.16332243024110793,-0.27274244377240536,-0.04329907089988701
1761507715270445600,0.839445556640625,-0.23283844953775404,-0.4563767904844135,-0.12210463172784075
1761507715280417800,0.849417724609375,-0.5587690242707729,-0.5928237079553306,-0.18989503280827774
1761507715290389800,0.8593896484375,-0.7788269026905298,-0.7195852438446134,-0.21415634449208154
1761507715300361700,0.86936181640625,-0.8687871596008538,-0.8273149662014097,-0.2049497594033368
1761507715310333700,0.879333740234375,-0.793701815739274,-0.9589880933992564,-0.141531435927283
1761507715320305700,0.8893056640625,-0.6265221255481243,-1.1325766277194023,-0.009175989021081478
1761507715330277600,0.899277587890625,-0.43772623135447497,-1.3009484503045676,0.15112561382781714
1761507715340249900,0.909249755859375,-0.29663316857814787,-1.4189115435145794,0.30610883466554806
1761507715350221600,0.9192216796875,-0.19460136560201644,-1.4827198526889085,0.42338221031203865
1761507715360193800,0.92919384765625,-0.15525602816343306,-1.5227055338576436,0.4866339085169136
1761507715370165500,0.93916552734375,-0.16204641895592212,-1.5278627704903482,0.5353562191750854
1761507715380137700,0.9491376953125,-0.1991033531963825,-1.5161414991669355,0.5388328823097049
1761507715390109700,0.959109619140625,-0.18189444424211978,-1.4899965656936167,0.5403930808311328
1761507715400081700,0.96908154296875,-0.12847381969988345,-1.468919875395298,0.5214967667791992
1761507715410053600,0.9790537109375,-0.06272972015738487,-1.4696034737452863,0.5078660816378892
1761507715420025600,0.989025634765625,-0.02391103694140911,-1.4762021413579582,0.5408610636690632
1761507715429997600,0.99899755859375,-0.028964228677749632,-1.4162512382641435,0.548466862497665
1761507715439969800,1.0089697265625,-0.05165127678215503,-1.3026941249281168,0.4561750208346173
1761507715449942500,1.018942626953125,-0.0342290173381567,-1.179631224361062,0.3068611326038837
1761507715459914800,1.028914794921875,0.04374854083359241,-1.0776411416348068,0.19874241092950104
1761507715469886700,1.03888671875,0.1835883886784315,-1.0178975976813585,0.14262381600756197
1761507715479858700,1.048858642578125,0.3275117064446211,-0.9762825617451221,0.12040427581705153
1761507715489830700,1.05883056640625,0.4442039029359817,-0.9098390086963772,0.08410400516279042
1761507715499802600,1.068802734375,0.5521610043078661,-0.8362371083255856,0.055836599642783404
1761507715509774600,1.078774658203125,0.5855757826536894,-0.7686718577705324,0.03135315137458965
1761507715519746800,1.088746826171875,0.5820026003420352,-0.7079543542183935,0.018402009462658315
1761507715529718500,1.098718505859375,0.5684814399898052,-0.6513340568520128,0.03563022590558976
1761507715539690800,1.108690673828125,0.5672685570687055,-0.5825051430366933,0.07000544678140432
1761507715549662500,1.118662353515625,0.5483499215871095,-0.5139310077000409,0.12591273704022168
1761507715559634700,1.128634765625,0.5345142884582281,-0.4721941720150411,0.20368695465959608
1761507715569607200,1.138607177734375,0.551728458109498,-0.44798656327985226,0.24474965394269674
1761507715579579100,1.1485791015625,0.6044476563841105,-0.44610447586029767,0.23122853012308478
1761507715589551000,1.158551025390625,0.6703828945845365,-0.5097553294505923,0.19058310640398413
1761507715599523000,1.168523193359375,0.6984954748690128,-0.6066774612627923,0.12973440508707426
1761507715609495000,1.1784951171875,0.6349269657999277,-0.7459675662703812,0.03911393070234917
1761507715619467300,1.18846728515625,0.5251438180446625,-0.8707809637665748,-0.08315383743164129
1761507715629439200,1.198439208984375,0.43324061037302014,-0.970906202469021,-0.1961815109329298
1761507715639411200,1.2084111328125,0.39249242039918897,-1.0656862807512282,-0.26639786051865666
1761507715649384200,1.21838427734375,0.37208909931778905,-1.1667313377123325,-0.2670147137753665
1761507715659356200,1.228356201171875,0.29995091482400893,-1.2434595534101127,-0.21275820466456932
1761507715669328100,1.238328125,0.1636719743311405,-1.3293959616318345,-0.17355967355184257
1761507715679300000,1.248300048828125,0.037329321441054344,-1.3600187711715697,-0.19114612884791568
1761507715689272000,1.25827197265625,-0.11392682343125343,-1.3680623768955469,-0.23010175458285956
1761507715699244300,1.268244384765625,-0.22748715163767336,-1.3844251904144882,-0.21306184551995247
1761507715709216000,1.278216064453125,-0.33933833783864975,-1.4316089663937688,-0.2046159060727805
1761507715719188200,1.288188232421875,-0.4209861089557409,-1.4701837578512726,-0.24514955824678764
1761507715729160200,1.29816015625,-0.49992520563602444,-1.4992162294596432,-0.3112272919241339
1761507715739132200,1.308132080078125,-0.6661386811435223,-1.4492650345936418,-0.37365408361218866
1761507715749104400,1.3181044921875,-0.9616244332522154,-1.3173511574424803,-0.3747204707346856
1761507715759076000,1.328076171875,-1.3364637080609798,-1.0892313339244573,-0.37175880791749805
1761507715769048300,1.33804833984375,-1.714635926684737,-0.7455049171946942,-0.40672388444524255
1761507715779020000,1.34802001953125,-1.997637460273504,-0.39299927394278344,-0.36517953912504014
1761507715788992300,1.3579921875,-2.148278103595972,-0.10769856003355234,-0.24062424457576123
1761507715798964200,1.367964111328125,-2.0738053386747834,0.08873436837717891,-0.07693473458793014
1761507715808936200,1.377936279296875,-1.813244769474864,0.2349085338100791,0.06691986532360315
1761507715818908200,1.387908203125,-1.4054507350474594,0.3022468437414616,0.1904450679064728
1761507715828880100,1.397880126953125,-0.9062842388242482,0.29936770810857416,0.279953434597142
1761507715838853000,1.40785302734375,-0.39357378589510916,0.25639753123633563,0.2881143830904737
1761507715848825300,1.417825439453125,0.11304010372459888,0.18008783321157096,0.22422195756295696
1761507715858797000,1.427797119140625,0.5818295818626881,0.08611600257232785,0.14158302911720239
1761507715868769300,1.437769287109375,0.9457534949034452,-0.008025412480160593,0.0862861167085357
1761507715878741200,1.4477412109375,1.1804168217808007,-0.07317286130376159,-0.012384256143635138
1761507715888713200,1.457713134765625,1.27588795106709,-0.12859459653533994,-0.14481270435396582
1761507715898685200,1.467685302734375,1.2159756264179944,-0.13683723196275532,-0.26153372508101164
1761507715908657200,1.4776572265625,1.029988944426179,-0.04731171320788562,-0.3631601986592635
1761507715918629000,1.487629150390625,0.7415034264683723,0.08462276833988726,-0.4023641183331609
1761507715928601300,1.497601318359375,0.446648373478651,0.2080455882605165,-0.3741423785857856
1761507715938573000,1.507572998046875,0.19497662865519522,0.3250207664117217,-0.37195009270589796
1761507715948545300,1.517545166015625,-0.020468787533044815,0.4296927816983312,-0.32588666252605614
1761507715958517000,1.52751708984375,-0.22260814742445945,0.48966838084198533,-0.23052947847563773
1761507715968489200,1.5374892578125,-0.36036885090768334,0.5408102467972785,-0.12513623624239117
1761507715978461200,1.547461181640625,-0.41694063295722006,0.6140332308530807,-0.03214598225271329
1761507715988433200,1.55743310546875,-0.41863457739353177,0.6681625151213259,0.08259319874104112
1761507715998405000,1.567405029296875,-0.3729670511960983,0.6998337377354502,0.20248694948637858
1761507716008377000,1.577377197265625,-0.3326215968042612,0.7080452473722398,0.3359518737381324
1761507716018349000,1.58734912109375,-0.3232359288215637,0.6893454422730952,0.40976993761025365
1761507716028321300,1.5973212890625,-0.3238245423644781,0.6777719088573009,0.41477026664819566
1761507716038294000,1.6072939453125,-0.2919289364099502,0.6502704462084918,0.3917180750258267
1761507716048266200,1.617266357421875,-0.28923078336715696,0.6111816408142448,0.42620822751820087
1761507716058238200,1.62723828125,-0.25317805773317814,0.5389775514774025,0.4585252006899565
1761507716068210200,1.637210205078125,-0.10182663579285144,0.5217216615762561,0.44877106472104783
1761507716078182100,1.64718212890625,0.1249427229642868,0.527616784029454,0.406785040047951
1761507716088154000,1.657154052734375,0.430810752877593,0.5149358008284122,0.3890833060754463
1761507716098126000,1.6671259765625,0.7280681908339262,0.49308330385200677,0.3785594643756747
1761507716108098300,1.677098388671875,0.9367483506709336,0.47651320425793525,0.3779446569455787
1761507716118070000,1.687070068359375,1.0369915166646242,0.4667553419619798,0.4050312186505645
1761507716128042200,1.697042236328125,1.012304819175601,0.489226043901965,0.4460519784880802
1761507716138014000,1.707013916015625,0.8981891951739788,0.5643247587017715,0.461954700214602
1761507716147986200,1.716986083984375,0.7382488085865974,0.6378094624336809,0.44477841488830744
1761507716157958100,1.726958251953125,0.648130730766058,0.70551536356844,0.41818255930971354
1761507716167930000,1.73693017578125,0.5931020865052938,0.7186475246030837,0.41019002618584777
1761507716177902300,1.74690234375,0.5515753133744001,0.6889600231520832,0.40572990497183054
1761507716187874000,1.7568740234375,0.5082862067461014,0.6389842053014785,0.3759184118149802
1761507716197846300,1.76684619140625,0.4744944117814302,0.563657088573277,0.3269131194969639
1761507716207818200,1.776818359375,0.46989948520660396,0.5011650496292859,0.28232438324587417
1761507716217790200,1.786790283203125,0.4366857823908329,0.46311998113431035,0.19765063363742083
1761507716227762200,1.79676220703125,0.40897243055701255,0.4243292088385671,0.08604001472666858
1761507716237735200,1.806735107421875,0.34727146892547606,0.3703026542924344,0.0041861813771538435
1761507716247707100,1.81670703125,0.19129472527205943,0.3192359724652022,-0.04376178390765562
1761507716257679000,1.82667919921875,-0.00751285984814167,0.2996484247460961,-0.04917122346945107
1761507716267651000,1.836651123046875,-0.2260346147418022,0.32213651621229944,-0.0059682424883358174
1761507716277623300,1.846623291015625,-0.3960118266969919,0.3566499765150249,0.06604068960258737
1761507716287595300,1.85659521484375,-0.4832061260253191,0.3844014684021473,0.15949074312373995
1761507716297567200,1.866567138671875,-0.46383156346976756,0.3769089206896722,0.28826244979165494
1761507716307539200,1.876539306640625,-0.33743279647827146,0.3359024451058358,0.3822616798944771
1761507716317511200,1.88651123046875,-0.11555822402536868,0.2497963063403964,0.4516851255368441
1761507716327483100,1.896483154296875,0.13956161542534828,0.15232202053815125,0.525581040418148
1761507716337455400,1.906455322265625,0.35202830806374547,0.049604208059236404,0.613908216233924
1761507716347427000,1.916427001953125,0.5451239452779293,-0.00752002024129033,0.6515151855725795
1761507716357399300,1.9263994140625,0.6463759960532188,-0.02884933359380811,0.6485834429696202
1761507716367371000,1.93637109375,0.6848609172701835,-0.06438614559490233,0.6161351715683937
1761507716377343200,1.94634326171875,0.6452981376886368,-0.11634257933609186,0.600230404015258
1761507716387315200,1.956315185546875,0.5359925443172454,-0.1853126186551526,0.5542588533699512
1761507716397287200,1.966287109375,0.38662440514862534,-0.24823588862325996,0.4916416902089491
1761507716407259100,1.976259033203125,0.24473346999287604,-0.3238984113182872,0.4011684788078069
1761507716417231000,1.986231201171875,0.1704687948644161,-0.40606889113523065,0.3104023854073137
1761507716427204000,1.9962041015625,0.15654139179885387,-0.47436921449918296,0.22372473036423324
1761507716437176300,2.00617626953125,0.1586743121743202,-0.5429931437943131,0.1859452174702659
1761507716447148000,2.01614794921875,0.1300409228861332,-0.6225341518905013,0.16083759115543214
1761507716457120300,2.026120361328125,0.06031272214353084,-0.695117522868514,0.1487056384055875
1761507716467092200,2.03609228515625,-0.02210194169282913,-0.7462532513439655,0.140307337492425
1761507716477064200,2.046064208984375,-0.13396248024404048,-0.7903240098692477,0.11812725252946837
1761507716487036200,2.0560361328125,-0.2543260587245226,-0.8069966199897229,0.12534657279113307
1761507716497008000,2.066008056640625,-0.36526013008058067,-0.8375717179302126,0.12802370131220667
1761507716506980000,2.07597998046875,-0.45978725651502605,-0.8810228101871908,0.0661925008971244
1761507716516952300,2.085952392578125,-0.522197827720642,-0.9494324756771325,-0.01980825953138992
1761507716526924000,2.095924072265625,-0.5638385826200246,-1.0143826483629643,-0.132206923547294
1761507716536896300,2.105896240234375,-0.6069967563450336,-1.0674909190203994,-0.24343044283660129
1761507716546868000,2.115867919921875,-0.6031511868327856,-1.1058115895863623,-0.2897581317095086
1761507716556840200,2.125840087890625,-0.5441501318097114,-1.0858271515041589,-0.2713798136496916
1761507716566812200,2.135812255859375,-0.4367763832837343,-1.0241220982193946,-0.20645709522636607
1761507716576784100,2.1457841796875,-0.3101227647483349,-0.9788615453876555,-0.0938174985940568
1761507716586756400,2.15575634765625,-0.16040917314291,-0.9174640967473388,0.007977079826407133
1761507716596728000,2.16572802734375,-0.03625906186103821,-0.8407505671620369,0.08992693916261196
1761507716606700300,2.1757001953125,0.056636079457402226,-0.774964089782536,0.14369429478328674
1761507716616672000,2.185672119140625,0.08231821772456169,-0.7226176703430712,0.214589018554613
1761507716626645000,2.19564501953125,0.07957739458382129,-0.6870588657058775,0.2837091886677779
1761507716636617200,2.2056171875,0.17940028933882712,-0.6270112973045557,0.31088574847746636
1761507716646589000,2.2155888671875,0.36380057892203327,-0.5161653426233679,0.34601438153646885
1761507716656561200,2.22556103515625,0.47173079228699205,-0.408463823447749,0.37458372914511706
1761507716666533000,2.235533203125,0.5392524228960275,-0.2787614118009806,0.42887262442186475
1761507716676505000,2.245505126953125,0.5762725322574377,-0.1041317709300667,0.46644839490465817
1761507716686477300,2.255477294921875,0.5610995130449533,0.06835720465034247,0.4867437620995566
1761507716696449000,2.265448974609375,0.4844727849602699,0.19335750302076338,0.4266515143062919
1761507716706421200,2.275421142578125,0.35378012016713617,0.2998103373095393,0.3012301044469699
1761507716716393200,2.285393310546875,0.2259644721150398,0.3646452130526304,0.20202066541519015
1761507716726365200,2.295365234375,0.1186596971720457,0.35959837799184025,0.11366990779442712
1761507716736337200,2.305337158203125,0.033254619348049165,0.36475261894986033,0.10086038457658142
1761507716746309000,2.31530908203125,-0.017126491367816923,0.4027491721279919,0.17322342733480034
1761507716756281000,2.325281005859375,-0.07832359513044357,0.4783762581834569,0.267241544801183
1761507716766253300,2.33525341796875,-0.1466588802099228,0.5732372562147676,0.3557265780597925
1761507716776225000,2.34522509765625,-0.2075128696233034,0.6628297757912427,0.4003392614420503
1761507716786197200,2.355197265625,-0.24975217493772506,0.7162716623172164,0.3735076608788222
1761507716796169000,2.3651689453125,-0.26916005524098874,0.7002250020753592,0.30418973970385266
1761507716806142200,2.37514208984375,-0.2970686373859644,0.6219695768103003,0.2656381829914637
1761507716816114200,2.3851142578125,-0.3279629573434591,0.5318649064606056,0.23898477027304468
1761507716826086100,2.395086181640625,-0.4229109395384788,0.4623439917931333,0.23722313089538363
1761507716836058000,2.40505810546875,-0.5310474891304969,0.4511543065957725,0.22954671451598405
1761507716846030300,2.4150302734375,-0.6429378382980823,0.4685259318310767,0.23211897615678606
1761507716856002000,2.425001953125,-0.7517202845782041,0.4643699081301689,0.2328362210480496
1761507716865974300,2.434974365234375,-0.8658148657917976,0.41772502480056134,0.21853987507224082
1761507716875946000,2.444946044921875,-0.9863017783910035,0.3410277522303164,0.16145000569904222
1761507716885918200,2.454918212890625,-1.037805171135068,0.2886624819599092,0.04101826648632995
1761507716895890200,2.46489013671875,-1.0113806900680065,0.29088129052054135,-0.08868812721581197
1761507716905862100,2.474862060546875,-0.9039034811675548,0.31756413026284425,-0.1868044281154871
1761507716915834000,2.484834228515625,-0.7360486681938171,0.3478997568916529,-0.2142489729452878
1761507716925806000,2.49480615234375,-0.5244371310800313,0.38160317945312705,-0.23443514414466915
1761507716935778000,2.504778076171875,-0.27020108872652054,0.4381956389645114,-0.3117241355303675
1761507716945750300,2.514750244140625,-0.03161445092558861,0.4566302172562107,-0.4137546963974833
1761507716955722000,2.524721923828125,0.17516016755104064,0.46601365674920375,-0.5083314341273159
1761507716965694200,2.534694091796875,0.3264513837367296,0.49377296661660075,-0.639709743097052
1761507716975666000,2.544666015625,0.4581780677527189,0.5178825218047947,-0.7652357458420097
1761507716985638100,2.55463818359375,0.5669195975005626,0.5081323313586413,-0.8639587165310978
1761507716995611100,2.564611083984375,0.6318798531889915,0.4839372898440808,-0.9450394283499568
1761507717005583000,2.5745830078125,0.6426935081481934,0.4068590185996145,-0.9755823045212775
1761507717015555000,2.58455517578125,0.5953501576930285,0.2965232784628868,-0.9468469892285764
1761507717025527300,2.59452734375,0.5109375980377197,0.21623400928266345,-0.9075294896449894
1761507717035499000,2.6044990234375,0.4012064727306366,0.17086824251078067,-0.8595393657188862
1761507717045471200,2.61447119140625,0.2709861016243696,0.13212035950869322,-0.7627052044510841
1761507717055443000,2.62444287109375,0.10709317801892757,0.040402956732735036,-0.6499636452816426
1761507717065415200,2.634415283203125,-0.09049801704883575,-0.07304302437901497,-0.5113246611265465
1761507717075387100,2.64438720703125,-0.3113315560162067,-0.157648037866503,-0.39048312640339133
1761507717085359000,2.654359130859375,-0.5151210212022066,-0.2379762142850086,-0.3076657269850373
1761507717095331000,2.6643310546875,-0.6648030486255884,-0.31569092026948925,-0.2584278314875439
1761507717105303000,2.674302978515625,-0.7064572475284338,-0.36900581941492855,-0.21539558569714426
1761507717115275300,2.684275146484375,-0.641686961454153,-0.39116504425294696,-0.1157474264545366
1761507717125247200,2.694247314453125,-0.4757131399214267,-0.41630617097858336,0.0045642757082358
1761507717135219200,2.70421923828125,-0.25130641864240166,-0.43319140093643216,0.14331968931723385
1761507717145191200,2.714191162109375,-0.03175181356966495,-0.4463918779669329,0.26585076629621907
1761507717155163100,2.7241630859375,0.13326982180476188,-0.4631110306428745,0.33596889793816953
1761507717165135000,2.734135009765625,0.24040742348730562,-0.49534883763119575,0.38633141355142
1761507717175107300,2.744107421875,0.25236732587218286,-0.49464189493823796,0.40676900222860274
1761507717185080000,2.754080078125,0.2395937690168619,-0.47623913655690847,0.41525984026342627
1761507717195052000,2.764052001953125,0.22749650398790836,-0.4737395017609,0.4180839212408289
1761507717205024300,2.774024169921875,0.19350655610263345,-0.4623970371546223,0.3608852759972214
1761507717214996200,2.783996337890625,0.15454232693612574,-0.4481888078536838,0.30924963517561554
1761507717224968200,2.79396826171875,0.14622925662100314,-0.44845235416069623,0.271913664798066
1761507717234940200,2.803940185546875,0.19344635034799576,-0.45608573511596767,0.2185687723731622
1761507717244912000,2.813912109375,0.2961135286182165,-0.4872284768765792,0.11481748866066335
1761507717254884400,2.82388427734375,0.3773796069413423,-0.573930535708554,0.022802408979227765
1761507717264856000,2.83385595703125,0.4754448443740606,-0.6740139445632696,-0.048846028369385744
1761507717274828300,2.843828369140625,0.5375514641970396,-0.7551811656218022,-0.11936820163442753
1761507717284800000,2.853800048828125,0.5438198769420385,-0.8394469372175634,-0.1463815611058846
1761507717294772200,2.863772216796875,0.48361295326054093,-0.9212908154286443,-0.17779201389197258
1761507717304744200,2.873744140625,0.37693010960817336,-0.9975875809065997,-0.2255229023599997
1761507717314716200,2.883716064453125,0.23687340414226055,-1.0433497996501624,-0.2857955482214689
1761507717324688100,2.893688232421875,0.09553133504092692,-1.0737721181817352,-0.32346221185810864
1761507717334660000,2.90366015625,-0.03657937985658646,-1.1245334603868424,-0.339311742092669
1761507717344632000,2.913632080078125,-0.14891279661655424,-1.1893836798295379,-0.3227537347951904
1761507717354604300,2.923604248046875,-0.20378011283576486,-1.2452135574705898,-0.3317169030494988
1761507717364577000,2.933576904296875,-0.2025724906116724,-1.270449851666391,-0.3944933849580586
1761507717374549200,2.94354931640625,-0.09515022676885128,-1.2744197782106697,-0.4107468563510105
1761507717384521200,2.953521240234375,0.06234159762263298,-1.2915798795871436,-0.3511168192420155
1761507717394493200,2.9634931640625,0.2354723051726818,-1.2982060197286307,-0.22804034680733457
1761507717404465200,2.973465087890625,0.400759898006916,-1.2556651011191309,-0.03892755041792988
1761507717414437000,2.98343701171875,0.49622459755241866,-1.2052093177318572,0.1558800783459097
1761507717424409000,2.9934091796875,0.5265343956202269,-1.1671377996213734,0.34240342449769373
1761507717434381300,3.00338134765625,0.47256665858924385,-1.1371067454297095,0.475007950794138
1761507717444353000,3.01335302734375,0.3907663272589445,-1.1270452970772982,0.5338333935219794
1761507717454325200,3.0233251953125,0.32817104713618755,-1.1226106025654823,0.5480581720989197
1761507717464297000,3.033296875,0.2640671160161495,-1.1374009060706942,0.5551871106633917
1761507717474269200,3.043269287109375,0.2470399933695793,-1.1735530004259198,0.49893677912056444
1761507717484241200,3.0532412109375,0.2941173863649368,-1.3655410417243838,0.3223199464878067
1761507717494213000,3.063213134765625,0.3842968389838934,-1.5329977952912448,0.05057870651404373
1761507717504185000,3.07318505859375,0.4367687844991684,-1.6244225717961787,-0.2586073345066048
1761507717514157000,3.083156982421875,0.38661914445161816,-1.6993994868472218,-0.42851920787431297
1761507717524129300,3.09312939453125,0.0943780733525753,-1.6183200171373784,-0.48766332462988793
1761507717534101200,3.103101318359375,-0.5339034630835056,-1.3071082881085574,-0.3998747857354581
1761507717544074000,3.113073974609375,-1.326936585780978,-0.7423391466401517,-0.2521161823890172
1761507717554046200,3.123046142578125,-2.102348711591959,-0.12574636749736964,-0.08171466234084218
1761507717564018200,3.13301806640625,-2.6778882533997295,0.43722960694395,0.09523096385486424
1761507717573990100,3.142990234375,-2.849283515459299,0.8829872421279549,0.2535282228777185
1761507717583961900,3.1529619140625,-2.631910930600762,1.1389474779255688,0.3867870483644306
1761507717593934000,3.16293408203125,-2.1084704093426465,1.209761135817319,0.46924383430946615
1761507717603905800,3.17290576171875,-1.3981512256890534,1.1004026432149112,0.46898222423121333
1761507717613878000,3.1828779296875,-0.6293389365345239,0.8894523464888334,0.4283945951139554
1761507717623850000,3.19285009765625,0.018859598770737646,0.6859457168322056,0.3831919464819133
1761507717633822000,3.202822021484375,0.5389648381263017,0.5741605085395276,0.272879550688155
1761507717643794200,3.212794189453125,0.9124123663157224,0.5378136953298002,0.10207398901688866
1761507717653766000,3.222765869140625,1.1104659181982277,0.5533852854058147,-0.0707628044873476
1761507717663738000,3.232738037109375,1.1542390089511871,0.618664909241721,-0.23553355210693552
1761507717673710000,3.2427099609375,1.0337836605340243,0.6853648482043295,-0.41572073577344415
1761507717683682000,3.25268212890625,0.7988081989675759,0.7428664584498852,-0.6115116034209728
1761507717693654000,3.262654052734375,0.5647299785017967,0.8110265330929308,-0.8020132786191999
1761507717703626000,3.2726259765625,0.37724341334104533,0.8827445194132626,-0.9355113562218844
1761507717713598000,3.282597900390625,0.251785142070055,0.9419464307706803,-0.9945543506905435
1761507717723570200,3.292570068359375,0.12864099296033382,0.945873687217012,-0.9155722916513681
1761507717733543000,3.30254296875,0.047507601106166836,0.9568355915404856,-0.7362089733220636
1761507717743515100,3.31251513671875,-0.041968087157607074,0.965314958333224,-0.4867451868716627
1761507717753487000,3.322487060546875,-0.08987608575820923,0.996720588813722,-0.24393903167955575
1761507717763459000,3.332458984375,-0.07894786450862884,1.051822955897823,0.034722974867559965
1761507717773431000,3.34243115234375,-0.026639585122466086,1.105539494646713,0.33003081312607974
1761507717783403000,3.352403076171875,0.06746493198573589,1.1316834782719611,0.5672844487575813
1761507717793375000,3.362375,0.1767126576900482,1.133642284189537,0.6736421886414289
1761507717803347200,3.37234716796875,0.32072716087102887,1.0927761669244616,0.6864652837269007
1761507717813319000,3.38231884765625,0.4878974987119436,1.0233190382082014,0.6849424580737948
1761507717823291100,3.392291015625,0.6224520996302366,0.9187903769150376,0.680943816891685
1761507717833262800,3.402262939453125,0.7308598673790693,0.8357416529588401,0.7044168277420103
1761507717843235000,3.412235107421875,0.7920832746267318,0.7593333168651908,0.7078645570430904
1761507717853207000,3.42220703125,0.8200316042602062,0.7072584809087217,0.6523459373082965
1761507717863179000,3.432178955078125,0.8189666053771972,0.6842918121453374,0.5190598219558596
1761507717873151000,3.44215087890625,0.8434066346287726,0.6725537358175963,0.3503378707587719
1761507717883123000,3.452123046875,0.8608908533930778,0.5852673742916434,0.236239691082295
1761507717893095000,3.462094970703125,0.8412818975597619,0.48629561647325753,0.20530671961484476
1761507717903067100,3.472067138671875,0.7758803278446197,0.43359789937809107,0.1894963888795115
1761507717913040000,3.482039794921875,0.687554978659749,0.4442287451162934,0.18221238761749117
1761507717923012000,3.49201220703125,0.5665554403632879,0.4892261169672012,0.182860768523626
1761507717932984000,3.501984130859375,0.4325140496641397,0.5462622285928577,0.16183182635717094
1761507717942956000,3.5119560546875,0.33730303261876105,0.583518411732465,0.16542930285986512
1761507717952928000,3.521927978515625,0.25786826137602326,0.5774754783064127,0.155132273919601
1761507717962900000,3.53189990234375,0.17328735941648482,0.5557037184160203,0.14878058507163078
1761507717972872000,3.541871826171875,0.10820903030633926,0.517693428973481,0.11300956245586276
1761507717982844200,3.55184423828125,0.09414309555292129,0.4846688920542597,0.09918417672635987
1761507717992815900,3.56181591796875,0.1499567527115345,0.4589049207225442,0.10778448475133627
1761507718002788000,3.5717880859375,0.22728666062951086,0.4202287147171795,0.1255909942725673
1761507718012759800,3.581759765625,0.2885404630154371,0.33936639488935466,0.17060089681148527
1761507718022732000,3.59173193359375,0.26487492526769635,0.24116109139882028,0.22130342150144278
1761507718032704000,3.6017041015625,0.11741115841567516,0.16944157070852814,0.24678910561474038
1761507718042676000,3.611676025390625,-0.06379179643094539,0.135285180215165,0.24926694870404897
1761507718052648200,3.621648193359375,-0.2353670912325382,0.12739899354260414,0.25390041719097645
1761507718062620000,3.631619873046875,-0.3373223218411207,0.11675145239792764,0.2930917331116274
1761507718072592100,3.641592041015625,-0.36693010911941526,0.06187471076324582,0.33422654778286814
1761507718082564000,3.651564208984375,-0.28817630587816234,-0.011909231643565,0.4103338551033288
1761507718092536800,3.661536865234375,-0.12063187402784824,-0.09200403769761323,0.47450533503424375
1761507718102509000,3.671509033203125,0.15122984138727188,-0.1565908204311505,0.506334195895493
1761507718112481000,3.68148095703125,0.4124988511174917,-0.26168456826116887,0.5156130059702322
1761507718122453000,3.691452880859375,0.6387731198340654,-0.37904940331708636,0.5117056598007679
1761507718132425000,3.701425048828125,0.8006167096942662,-0.5068341447742656,0.5046630843454971
1761507718142397000,3.71139697265625,0.8400847967296838,-0.6408695075914264,0.5190736678181216
1761507718152369000,3.721368896484375,0.7995815214276313,-0.7384940885845571,0.5282102198779582
1761507718162341000,3.731341064453125,0.6987912429451942,-0.7775524988405406,0.5164809113785624
1761507718172313000,3.74131298828125,0.5132575654178857,-0.7664855997726321,0.5030344967629761
1761507718182285000,3.75128515625,0.2968254762798548,-0.7721919947206973,0.48249980438686907
1761507718192257000,3.761257080078125,0.0724222621321678,-0.8061503053586929,0.4426929138511419
1761507718202229000,3.77122900390625,-0.08180208489596844,-0.851345318673551,0.3933001565854996
1761507718212201200,3.781201171875,-0.1898971334338188,-0.9250115164522081,0.36808859497215596
1761507718222173000,3.7911728515625,-0.23462884008586404,-0.9584796324204653,0.3326238618265837
1761507718232145200,3.801145263671875,-0.2740297071039676,-0.9697280255351215,0.2708511501330882
1761507718242116900,3.811116943359375,-0.3393693174988031,-0.9890945509146898,0.23215647688927127
1761507718252089000,3.821089111328125,-0.4230214141756296,-1.0143380055036395,0.2649082430154085
1761507718262061000,3.83106103515625,-0.5145160410463809,-0.9935031611371785,0.260715248304978
1761507718272034000,3.841033935546875,-0.6235825649648904,-0.9399243503585457,0.230930204763636
1761507718282006000,3.851006103515625,-0.7231272273004055,-0.8839276647832244,0.17161654012743383
1761507718291978200,3.860978271484375,-0.7651122655928134,-0.8465179715823382,0.11155953717748635
1761507718301950000,3.870949951171875,-0.7806582097709178,-0.8131113034777343,0.06857237263782881
1761507718311922200,3.880922119140625,-0.743285049188137,-0.7746426027432084,0.03290651829643175
1761507718321894000,3.890893798828125,-0.6872615486711263,-0.7344366298872977,0.0036850086556747554
1761507718331866000,3.9008662109375,-0.6279974587976932,-0.685971143534407,-0.0005933810495771468
1761507718341838000,3.910838134765625,-0.5826935052156448,-0.6241616800270974,0.004309533762186765
1761507718351810000,3.92081005859375,-0.5463847589939832,-0.5527776383688673,0.008432458911091088
1761507718361782000,3.930781982421875,-0.49195057349503035,-0.4869834526069462,0.04456873464267701
1761507718371754000,3.94075390625,-0.38477673145532604,-0.39644298465587197,0.093608239757549
1761507718381726000,3.950725830078125,-0.1958458127051592,-0.28000264403373,0.11569827181687578
1761507718391698200,3.9606982421875,0.046184828069806096,-0.1577049739518203,0.12970422001136467
1761507718401670000,3.970669921875,0.2757312503248453,-0.10634977577310055,0.22649587557800113
1761507718411642000,3.98064208984375,0.4200204787939787,-0.05170611224193126,0.3717863535115495
1761507718421613800,3.99061376953125,0.43444647903144357,0.00942505014501512,0.4697200004538521
1761507718431586000,4.0005859375,0.39065994427502154,0.11812401939276605,0.549573143239133
1761507718441558000,4.01055810546875,0.2995972790807485,0.22996607243921607,0.637620296537131
1761507718451530000,4.020530029296875,0.1874444795846939,0.25787096478976307,0.660263213238865
1761507718461502000,4.030501953125,0.14694412689208983,0.23316987344920634,0.6302906843014061
1761507718471474000,4.040473876953125,0.15989596292376518,0.14119199310615657,0.6031744581105187
1761507718481446100,4.050446044921875,0.17402794865071772,0.013128178979270159,0.5918349891789257
1761507718491418000,4.060418212890625,0.14600070856213568,-0.07862506229504942,0.5942750027421861
1761507718501390000,4.07039013671875,0.02370762332379818,-0.1281167681568302,0.6165145262748003
1761507718511362000,4.080362060546875,-0.14368132570385933,-0.09834723271187394,0.6734529496796429
1761507718521334000,4.090333984375,-0.35034780763089657,-0.04040344992307946,0.7015674296602606
1761507718531306000,4.100305908203125,-0.5883604449361562,0.039587238169368356,0.7224769466981291
1761507718541279000,4.110279052734375,-0.8383347381919622,0.1042532784178853,0.7416492646798492
1761507718551251000,4.1202509765625,-1.054770918983221,0.13257955625196918,0.7736845713660121
1761507718561223000,4.130222900390625,-1.2199568050086498,0.14635175048951057,0.7633069697365165
1761507718571195000,4.14019482421875,-1.3384586812704802,0.15393895421549678,0.6897805457547307
1761507718581167000,4.1501669921875,-1.3662217174649238,0.14622845290340483,0.5951936884896829
1761507718591138800,4.160138916015625,-1.3044091121524573,0.1152062505162321,0.46622335397712883
1761507718601111000,4.170111083984375,-1.1895201656907797,0.06065701466971077,0.2927230824623257
1761507718611082800,4.180082763671875,-1.0197773470133542,-0.00409110523853451,0.10819092839406802
1761507718621055000,4.190054931640625,-0.8192927685916424,-0.06158473310703411,-0.0712856410513632
1761507718631027000,4.20002685546875,-0.5973819557815789,-0.09216976791964843,-0.23685393225681034
1761507718640999000,4.2099990234375,-0.36184944485425946,-0.08412733123945072,-0.38398514268621803
1761507718650971000,4.219970947265625,-0.14787293217480182,-0.03504665386397391,-0.47158992251157755
1761507718660942800,4.22994287109375,0.036001872229576105,0.04970178668219596,-0.5400471169376746
1761507718670914800,4.239914794921875,0.1878068831562996,0.14099921048041433,-0.6129260733287781
1761507718680887000,4.249886962890625,0.3029109336733818,0.2313494896216318,-0.7200022271476686
1761507718690858800,4.259858642578125,0.37505087173283097,0.2986936082392931,-0.8748082465212792
1761507718700831000,4.2698310546875,0.40401276232302186,0.32440299983955917,-1.0163028027705847
1761507718710802700,4.279802734375,0.39390930145978925,0.35679702030289917,-1.166438346115127
1761507718720776000,4.28977587890625,0.35161972726285456,0.3947022054031491,-1.306653822339326
1761507718730748000,4.299747802734375,0.28135961160063744,0.43200175276044755,-1.376990802630037
1761507718740719900,4.309719970703125,0.11783785939514636,0.45199152460489417,-1.4195197385407983
1761507718750691800,4.31969189453125,-0.02009293995797634,0.42785270678959786,-1.5266630393117666
1761507718760664000,4.3296640625,-0.1124853924512863,0.3626977322466671,-1.6725591184556483
1761507718770635800,4.3396357421875,-0.14936989273428916,0.29486031368672844,-1.7913114623472093
1761507718780608000,4.34960791015625,-0.14365677578449249,0.18839008987173436,-1.805691285355389
1761507718790579700,4.359579833984375,-0.1299672731280327,0.08020349059291183,-1.6624106494069097
1761507718800552000,4.369552001953125,-0.12191489957571029,0.01565510364100337,-1.4796134111061692
1761507718810524000,4.37952392578125,-0.09544891745448111,0.004807327216491103,-1.2827189661309122
1761507718820496000,4.389495849609375,-0.052988078343868254,0.04774214051440358,-1.0141215132087469
1761507718830467800,4.3994677734375,-0.005455927318334579,0.0712887280575931,-0.6955554758943617
1761507718840439800,4.409439697265625,0.07563654800355434,0.0693876436766237,-0.38828649314194913
1761507718850411800,4.419411865234375,0.1676326946556568,0.061444137326255435,-0.14034337692018597
1761507718860384000,4.429384033203125,0.299120893740654,0.04652830774523318,0.040832178462855515
1761507718870356000,4.43935595703125,0.44966099929809566,0.0071058864824473855,0.1865465808968991
1761507718880329000,4.449328857421875,0.5906909337103367,-0.08086495017632842,0.329911680258438
1761507718890301000,4.459301025390625,0.7094190199434757,-0.18013956339880824,0.4399770059559494
1761507718900273000,4.46927294921875,0.8440455170542002,-0.25944040606357155,0.5211018491774797
1761507718910244900,4.479244873046875,0.9590145430147647,-0.3260653070285916,0.5483966833382845
1761507718920216800,4.489216796875,1.0333259798943997,-0.4038827062025666,0.5780852442352101
1761507718930188800,4.499188720703125,1.06197164414227,-0.4882694007642567,0.5864925321724266
1761507718940161000,4.5091611328125,1.0846586922466754,-0.5738820569243281,0.595161137926951
1761507718950132700,4.5191328125,1.0505062472760676,-0.6459893348231911,0.6319405704002827
1761507718960105000,4.52910498046875,0.9548229365438222,-0.6988856432303786,0.6270682151235639
1761507718970076700,4.53907666015625,0.8147107014983892,-0.7405961023651063,0.5650240660775453
1761507718980049000,4.549048828125,0.6530126575887203,-0.7649499877031892,0.44240876314751804
1761507718990020900,4.559020751953125,0.5447054276049137,-0.78519556093961,0.31040333525538444
1761507718999992800,4.568992919921875,0.4924211136162281,-0.8236930493772029,0.23117269001631066
1761507719009965000,4.578965087890625,0.4724421554267406,-0.9087349199119955,0.19974910375401375
1761507719019936800,4.588936767578125,0.4707686692565679,-0.9734562522780149,0.19009108510334044
1761507719029909000,4.598908935546875,0.4413029207974672,-1.048367627812177,0.11651278480384498
1761507719039881000,4.608880859375,0.37204993635118006,-1.1425281128913163,0.044503231658414
1761507719049853700,4.618853759765625,0.289357624617219,-1.204662351373583,-0.0027282741864211855
1761507719059826000,4.628825927734375,0.18321955536603926,-1.2540632188804446,-0.02546226670509204
1761507719069798000,4.6387978515625,0.06531038430035115,-1.2989077382571994,0.05006705806432291
1761507719079769900,4.648769775390625,-0.05977554652690887,-1.3033011509105563,0.13383963931566104
1761507719089741800,4.658741943359375,-0.2097387289792299,-1.2931487363390624,0.18997724946532396
1761507719099713800,4.6687138671875,-0.3819347860276699,-1.3003104446619749,0.2214005069340579
1761507719109686000,4.67868603515625,-0.5378220978319644,-1.2944453520208596,0.19984385109907016
1761507719119658000,4.688657958984375,-0.6787357123881578,-1.2710346658170222,0.12539300574874504
1761507719129630000,4.6986298828125,-0.7589584191381931,-1.2498730737142265,0.03078154833198059
1761507719139602000,4.708601806640625,-0.7623129902631044,-1.213808000055328,-0.005275029209919739
1761507719149574000,4.718573974609375,-0.6447229681491852,-1.137068459245935,0.003931400615198072
1761507719159545900,4.7285458984375,-0.4567915818303823,-1.0435806127313525,0.0799249019803945
1761507719169518000,4.73851806640625,-0.2517588385850191,-0.9706859838470816,0.1736380177513696
1761507719179489800,4.74848974609375,-0.06978782197535037,-0.9959817531451582,0.2163436802022159
1761507719189462000,4.7584619140625,-0.06471300292909145,-1.0881167237460612,0.1327767684576567
1761507719199433700,4.768433837890625,-0.25298984168469907,-1.151031079755351,-0.040845216040941885
1761507719209406000,4.778406005859375,-0.6097843412369489,-1.105692639381811,-0.2727562531020492
1761507719219379000,4.78837890625,-1.0902128192424774,-0.959431234056875,-0.4363966267185285
1761507719229351000,4.798350830078125,-1.6020423976838587,-0.7189389818303287,-0.44017778922505674
1761507719239323000,4.808322998046875,-1.9901257694691419,-0.4025277844622731,-0.3546139406427741
1761507719249295000,4.818295166015625,-2.1325632325917483,-0.040638957445696,-0.15169937686147167
1761507719259266800,4.828266845703125,-2.0363930151253937,0.2890701859779656,0.10130418282132596
1761507719269239000,4.838239013671875,-1.7097966699600218,0.5554164989724755,0.36681598122045395
1761507719279210800,4.848210693359375,-1.1602502320647239,0.7538757090464234,0.5763156407468021
1761507719289183000,4.858182861328125,-0.5181435838937759,0.8652181420076638,0.6987038569226861
1761507719299155000,4.868155029296875,0.06693593967556953,0.8740181921221315,0.744110905553028
1761507719309127000,4.878126953125,0.4928852239966392,0.8261096089996397,0.6830025760523974
1761507719319099000,4.888098876953125,0.7592009957224131,0.7741301962416619,0.5212348279073834
1761507719329070800,4.89807080078125,0.870385242447257,0.7346419432010501,0.31582170704230667
1761507719339042800,4.908042724609375,0.8590262285649776,0.734757678535208,0.0751840184630826
1761507719349015000,4.91801513671875,0.7574158658713102,0.7826735681813209,-0.11668819616967811
1761507719358986800,4.92798681640625,0.6153302849262953,0.8426044514004141,-0.2535785830917768
1761507719368959000,4.937958984375,0.5219570047020912,0.9290964476782828,-0.32974823332503433
1761507719378932000,4.947931884765625,0.46952772928476333,0.9872084449071437,-0.36333259608410295
1761507719388904000,4.957904052734375,0.42158407484889027,1.0180484043288975,-0.3649871948907152
1761507719398876000,4.9678759765625,0.41002866161167617,1.0347080088373273,-0.39376342671569436
1761507719408848000,4.977847900390625,0.4050742540746927,1.0697851674374192,-0.33858247797004876
1761507719418819800,4.98781982421875,0.4023071274489164,1.064521401690319,-0.17108798620868473
1761507719428792000,4.9977919921875,0.40766543961167334,1.0590461120843886,0.03163317389236763
1761507719438763800,5.007763671875,0.4264157327890396,1.0820577159680425,0.14527812077547422
1761507719448736000,5.017736083984375,0.46128304803073406,1.1120724035467953,0.21060151982102543
1761507719458707700,5.027707763671875,0.581035216614604,1.146958569619432,0.30022111006751656
1761507719468680000,5.037679931640625,0.7006038453251123,1.157771274730563,0.37737898588683455
1761507719478652000,5.04765185546875,0.813911075553298,1.1520028473969548,0.42737358150314536
1761507719488623900,5.057623779296875,0.9306973800688981,1.147740440712124,0.4296267672574147
1761507719498595800,5.067595947265625,1.021392965516448,1.1170433968923985,0.3733380764655769
1761507719508567800,5.07756787109375,1.123731057962775,1.0435092279955744,0.33204755977597084
1761507719518540000,5.0875400390625,1.1994599604248999,0.9472351117633283,0.3306619506364688
1761507719528512000,5.097511962890625,1.197365618494153,0.843216811145097,0.31017935377378014
1761507719538484700,5.107484619140625,1.112539217340946,0.7591324605308473,0.2744873694772832
1761507719548457000,5.11745703125,0.9766600898206234,0.708822661485523,0.17816207104707135
1761507719558429000,5.127428955078125,0.8029998054385185,0.7024683240227401,0.027961390044447032
1761507719568401000,5.13740087890625,0.596794511282444,0.7043857019513845,-0.1397926111696288
1761507719578372900,5.147372802734375,0.3602794190585613,0.6718669956624508,-0.27630802729949355
1761507719588344800,5.1573447265625,0.1272521689504385,0.6091364717874675,-0.36698271608948707
1761507719598316800,5.16731689453125,-0.10778174480497836,0.5532588094819337,-0.41484665635265405
1761507719608289000,5.1772890625,-0.35503158153295516,0.5044316502097994,-0.417302780800499
1761507719618260700,5.1872607421875,-0.5920341650128365,0.4687574755646288,-0.3602847528208047
1761507719628233000,5.19723291015625,-0.8118290085822343,0.449994176775217,-0.2696878054421395
1761507719638205000,5.207204833984375,-0.974195161011815,0.44389914783574635,-0.1521167254907079
1761507719648177000,5.217177001953125,-1.0103262125790118,0.4565924059964716,-0.010099971998203545
1761507719658149000,5.227149169921875,-0.9045143065422773,0.4357820384841412,0.15857558277389033
1761507719668120800,5.237120849609375,-0.6910632790416479,0.38816893117688595,0.3871125174591318
1761507719678093000,5.247093017578125,-0.4339356068998575,0.3367573083695024,0.6053424497993662
1761507719688064800,5.257064697265625,-0.2018523596435785,0.28812143388576805,0.771979082622379
1761507719698037000,5.267037109375,0.0009720599025487899,0.259855416605249,0.8905904106080531
1761507719708010000,5.277010009765625,0.16926058811843395,0.25111433013640344,0.9717143039815127
1761507719717981700,5.286981689453125,0.32290158230066296,0.22782705111652612,1.007838560481742
1761507719727954000,5.296953857421875,0.4779290624052286,0.18528788607269525,1.008648561690375
1761507719737926000,5.30692578125,0.6106482645899057,0.11083017259016632,0.9520053949050604
1761507719747897900,5.31689794921875,0.7426321382373571,0.008180091585218907,0.8883233424589038
1761507719757870000,5.3268701171875,0.8274719833940267,-0.11142156261205673,0.8721491833798587
1761507719767841800,5.336841796875,0.8053881618797779,-0.21814313083961603,0.8405973493617027
1761507719777814000,5.34681396484375,0.6949503496080637,-0.2620314454700798,0.7927046213954687
1761507719787786000,5.356785888671875,0.5189741894990205,-0.27045550187900663,0.7484360752757638
1761507719797758000,5.366758056640625,0.3279652954310179,-0.2785054277459159,0.7103332852441817
1761507719807730000,5.37672998046875,0.1725438475728035,-0.3012327347954735,0.7124100184530019
1761507719817702000,5.386701904296875,0.00978022025823593,-0.3471502536986023,0.7121504907339811
1761507719827673900,5.396673828125,-0.12432897498011589,-0.3823624733878299,0.7094679005865008
1761507719837645800,5.406645751953125,-0.24251462489962577,-0.39685277103316036,0.6871043122828007
1761507719847617800,5.41661767578125,-0.3274070770263672,-0.40062845364697275,0.6557918399784713
1761507719857590000,5.426590087890625,-0.36819852162003514,-0.3913219518477097,0.6043991410672664
1761507719867562800,5.436562744140625,-0.38820495233833785,-0.4094521403653547,0.5716368718134239
1761507719877535000,5.446534912109375,-0.3664975629210472,-0.4343408997651189,0.5396294029822573
1761507719887507000,5.4565068359375,-0.35365503248274327,-0.44906047612167893,0.47794480796363203
1761507719897479000,5.46647900390625,-0.3627238896012306,-0.47230055499896406,0.4108019110064953
1761507719907451000,5.476450927734375,-0.3832318401008844,-0.48827396734151984,0.28194784155106173
1761507719917422800,5.4864228515625,-0.41572541194856166,-0.502345856911689,0.12848850581236182
1761507719927394800,5.496394775390625,-0.4215408202290535,-0.532724920823425,-0.01781032717982307
1761507719937367000,5.506366943359375,-0.39014205788075923,-0.5625215086720884,-0.1333535910980776
1761507719947338800,5.5163388671875,-0.3361164531826973,-0.5924369371274486,-0.2192743633592501
1761507719957311000,5.52631103515625,-0.26704642408788204,-0.6028039442976937,-0.23900247032651675
1761507719967282700,5.53628271484375,-0.1878372782945633,-0.5700553747756406,-0.21907754387920722
1761507719977255000,5.5462548828125,-0.10914601889550685,-0.5243354242712259,-0.13642479697065427
1761507719987227000,5.556226806640625,-0.019338322198390958,-0.4892687505325302,-0.005419339901302009
1761507719997198800,5.56619873046875,0.0637304216325283,-0.44736203817334025,0.15478112239437178
1761507720007170800,5.5761708984375,0.10785481004118919,-0.40541283837929365,0.2976708045301959
1761507720017142800,5.586142822265625,0.1536994463711977,-0.3534465773638338,0.39724765210226176
1761507720027114800,5.59611474609375,0.192485396361351,-0.30657895466163754,0.4733001239629462
1761507720037088000,5.606087890625,0.252048176920414,-0.29837789335362613,0.4757342557746917
1761507720047059700,5.616059814453125,0.35192952386438847,-0.2819256479855627,0.39911490727886556
1761507720057032000,5.626031982421875,0.4873731825768947,-0.2400642360728234,0.3256775498200208
1761507720067004000,5.63600390625,0.5230161583662033,-0.21385084047317504,0.2994609941489063
1761507720076975900,5.645975830078125,0.4422311415582895,-0.19435498962551354,0.3351668608402833
1761507720086947800,5.65594775390625,0.16441022547781467,-0.14820472141243515,0.38328061114605516
1761507720096919800,5.665919921875,-0.20606676246821878,-0.041731611520610744,0.41688861050903797
1761507720106891800,5.675891845703125,-0.5457242492586374,0.10993621942512691,0.41026933849975467
1761507720116864000,5.685864013671875,-0.8531272336542606,0.2404835209308192,0.44159291671998796
1761507720126835700,5.695835693359375,-1.0488023659676313,0.3234667419027537,0.5169293127331882
1761507720136808000,5.705807861328125,-1.0952227563589811,0.41109771561529485,0.533546283676289
1761507720146779600,5.715779541015625,-1.014311482822895,0.4858654083624482,0.4875310034871101
1761507720156752000,5.725751953125,-0.8467617902755736,0.5143634443005547,0.43788916683122514
1761507720166723800,5.735723876953125,-0.6276695420175791,0.5033253694683313,0.4241453036390245
1761507720176695800,5.74569580078125,-0.4122878387153148,0.4834924686860293,0.4323525024268776
1761507720186668000,5.75566796875,-0.2514882049500942,0.46860513454712927,0.4323102707203477
1761507720196641000,5.76564111328125,-0.18452420822381974,0.483607071509026,0.3815937540376559
1761507720206612700,5.77561279296875,-0.17005846049785614,0.5186029450338333,0.30342783368695525
1761507720216585000,5.7855849609375,-0.21682079619467257,0.5528785414600744,0.22149377470808101
1761507720226556700,5.795556640625,-0.3395762382477522,0.550453761998564,0.14631587545853109
1761507720236529000,5.80552880859375,-0.45714755566120147,0.52522890251223,0.055078502151323476
1761507720246500900,5.8155009765625,-0.5463415043741464,0.4832364846309647,-0.12765749834831802
1761507720256472800,5.825472900390625,-0.6280401288956403,0.3971217972328886,-0.3605733970364555
1761507720266444800,5.83544482421875,-0.6879653130263089,0.30356073935162275,-0.5457619509205222
1761507720276416800,5.845416748046875,-0.7175894669175148,0.246472203418985,-0.6139646225962787
1761507720286389000,5.855388916015625,-0.7611223191738128,0.24145386380031703,-0.6389918040860444
1761507720296361000,5.86536083984375,-0.8229641505807638,0.2660633678672835,-0.6894012641135603
1761507720306333000,5.8753330078125,-0.8463152155518532,0.29397658965475854,-0.8245204401120543
1761507720316305000,5.885304931640625,-0.7924579531580209,0.3481066411079839,-0.9604032208941876
1761507720326276900,5.89527685546875,-0.6108470020323992,0.3983173271603882,-1.0343427557215095
1761507720336248800,5.905248779296875,-0.3330652489185333,0.46842469994630664,-1.0460358238637446
1761507720346221000,5.915220947265625,0.020147885015606878,0.5449558952346444,-1.0157117050096391
1761507720356192800,5.92519287109375,0.41856151215732096,0.5923468111585826,-0.9521504293989389
1761507720366165800,5.935165771484375,0.7654191395848989,0.6117419781107455,-0.8959380552463233
1761507720376138000,5.945137939453125,1.0187643705785274,0.557862065493688,-0.8577151459664106
1761507720386110000,5.95510986328125,1.1271429122328758,0.4749485122244805,-0.8233684935979545
1761507720396082000,5.96508203125,1.1155541812479495,0.3889855082567781,-0.7705783489789814
1761507720406054000,5.975053955078125,1.019732923349738,0.33481194645538925,-0.7116087850727141
1761507720416025900,5.98502587890625,0.881008343270421,0.3326251770008355,-0.655191828258708
1761507720425998000,5.994998046875,0.699547029748559,0.33213571298345923,-0.5950730577846989
1761507720435969800,6.0049697265625,0.5222060110270976,0.30914427510499953,-0.5107722879407927
1761507720445942000,6.01494189453125,0.3701613461256027,0.26300145954601467,-0.40191659376136957
1761507720455913700,6.024913818359375,0.2694435483574867,0.1687924591500312,-0.35443200820460913
1761507720465886000,6.034885986328125,0.1908639326393604,0.055641077070683234,-0.35660065748058256
1761507720475858000,6.04485791015625,0.12574468699693678,-0.04008461149856448,-0.4067423334173858
1761507720485830000,6.054829833984375,0.036822540962696076,-0.14058029094859956,-0.4327387617981061
1761507720495801900,6.0648017578125,-0.08577215757071971,-0.25378990602120755,-0.4543681540757417
1761507720505773800,6.07477392578125,-0.23277415212988853,-0.34443419967293737,-0.44098329692166294
1761507720515745800,6.084745849609375,-0.3800631469368934,-0.4035429528541863,-0.40066425561271607
1761507720525718000,6.094718017578125,-0.5104056831181049,-0.4414067464981228,-0.3137119483467191
1761507720535690800,6.104690673828125,-0.5964426291048527,-0.43808169372864064,-0.20778532988913356
1761507720545663000,6.1146630859375,-0.5789654246032238,-0.39151203105971216,-0.09627757769781164
1761507720555635000,6.124635009765625,-0.4375730866193771,-0.35722952996864915,0.0508039666372817
1761507720565607000,6.13460693359375,-0.2249935812562704,-0.34687925473749637,0.2266515775963664
1761507720575579400,6.144579345703125,-0.03444645948112011,-0.3735056881174445,0.3486905419431627
1761507720585551600,6.154551513671875,0.14523206227719784,-0.3842891671340912,0.37903544785697013
1761507720595523600,6.164523681640625,0.30483751782178875,-0.363500353866443,0.3849430279329419
1761507720605495600,6.17449560546875,0.4149567656636238,-0.35430735891163345,0.4040489661475643
1761507720615467500,6.184467529296875,0.4666787695944309,-0.3674207421805709,0.4101925469364971
1761507720625439500,6.194439453125,0.44489714589715,-0.38219972057417034,0.4108637607289478
1761507720635411500,6.204411376953125,0.3571399519890547,-0.4001960535790771,0.3747643098764121
1761507720645383700,6.2143837890625,0.2644862182110548,-0.3690415483154356,0.3190051593840122
1761507720655355400,6.22435546875,0.2080143894046545,-0.33810974589176473,0.2563809454277158
1761507720665327600,6.23432763671875,0.20626374634504316,-0.3264011148542166,0.2436894408326596
1761507720675299300,6.24429931640625,0.25794015756845473,-0.32561193723790344,0.23532051214445382
1761507720685271600,6.254271484375,0.3655506374597549,-0.321914909350872,0.2626068890041672
1761507720695244500,6.26424462890625,0.49019057808518407,-0.3298853767734021,0.2809953265991993
1761507720705216500,6.274216552734375,0.5639326906442642,-0.3972663568027317,0.24009406495550645
1761507720715188500,6.2841884765625,0.5901666175752878,-0.43508265804313123,0.17980379210580139
1761507720725160700,6.29416064453125,0.5769149218142032,-0.4809619272951036,0.14492885068007744
1761507720735132400,6.30413232421875,0.5261801753550768,-0.5262403811097145,0.13710158198736608
1761507720745104600,6.314104736328125,0.4594195922464132,-0.5796220618810505,0.1490336921830196
1761507720755076400,6.324076416015625,0.38147944347560403,-0.612837299066782,0.17600639085052533
1761507720765048600,6.334048583984375,0.32485914610922334,-0.6304452903412282,0.242328253748361
1761507720775020500,6.3440205078125,0.2652180396169424,-0.6487476205553859,0.3191781047981232
1761507720784992500,6.353992431640625,0.2365823122411966,-0.6659068451490253,0.3882030891748145
1761507720794964500,6.363964599609375,0.25584523111581803,-0.7008142001401633,0.4398609052956104
1761507720804936400,6.3739365234375,0.34262276633679867,-0.8179704339466989,0.4653827019019052
1761507720814908400,6.383908447265625,0.4831693011462688,-1.006757633377239,0.40126565557196736
1761507720824880600,6.393880615234375,0.6872142023980617,-1.1826240495014935,0.3826467336893081
1761507720834852400,6.403852294921875,0.7730079872786998,-1.3178221359550952,0.4198747501803562
1761507720844824600,6.413824462890625,0.7087801375180482,-1.3827439593292772,0.5322798074044287
1761507720854796300,6.42379638671875,0.5368184737473726,-1.3568097459971904,0.7308354635901748
1761507720864769500,6.43376953125,0.2887777789026499,-1.1969622983902692,0.8981522972296923
1761507720874741500,6.443741455078125,0.010299275696277617,-1.0069660884961484,1.0300069184742868
1761507720884713500,6.45371337890625,-0.26539924140274523,-0.8538398389030247,1.0551787691317498
1761507720894685400,6.463685546875,-0.47737318208813667,-0.722384007717669,0.9372348920788616
1761507720904657700,6.47365771484375,-0.6088268943816423,-0.6936360521391034,0.6935362450264394
1761507720914629400,6.48362939453125,-0.6383423272013664,-0.7578424937855451,0.3515848020799458
1761507720924601600,6.4936015625,-0.5278869792729616,-0.8146852747961878,0.0700371570939198
1761507720934573300,6.5035732421875,-0.37174247783720493,-0.8545063399877398,-0.11167805812377482
1761507720944545500,6.513545654296875,-0.21822890942692755,-0.8872287521552294,-0.30277936144927514
1761507720954517500,6.523517578125,-0.10904314304292201,-0.8917982520278542,-0.47011035147830843
1761507720964489500,6.533489501953125,-0.11734101578891276,-0.8545062669225036,-0.6560114010132849
1761507720974461400,6.54346142578125,-0.254220844784379,-0.772100370914489,-0.8161947295110672
1761507720984433400,6.553433349609375,-0.6221756207764149,-0.6417316043134779,-0.8694258958958089
1761507720994405600,6.563405517578125,-1.167113103571534,-0.42462578063234685,-0.905578867033869
1761507721004377600,6.573377685546875,-1.6967554020792246,-0.07547638900578021,-0.9015723348062485
1761507721014349600,6.583349609375,-2.1415058329820633,0.27272724620327354,-0.8559260705925523
1761507721024321500,6.593321533203125,-2.411931962636113,0.5616225140057504,-0.809381396234408
1761507721034294500,6.60329443359375,-2.386400631016493,0.8330172694962471,-0.7532303238149732
1761507721044266500,6.6132666015625,-2.0412503920286893,1.020777171705663,-0.6588012509275227
1761507721054238500,6.623238525390625,-1.4311387185335158,1.1002465758703648,-0.4981893582867458
1761507721064210400,6.63321044921875,-0.6972691479444504,1.0632754202172159,-0.31369258605912326
1761507721074182400,6.643182373046875,0.011498714613914489,0.9652978610679507,-0.22610862982608376
1761507721084154600,6.653154541015625,0.565287027862668,0.8142839274536818,-0.24598116849903015
1761507721094126300,6.663126220703125,0.9214297855079173,0.6651584379345178,-0.34959245921894905
1761507721104098600,6.6730986328125,1.137422314184904,0.5787603304851799,-0.5398877251248806
1761507721114070500,6.683070556640625,1.2629115651160479,0.5415752398204058,-0.7700386891443282
1761507721124042500,6.69304248046875,1.3076467788994313,0.47535460880734026,-0.9636585694283246
1761507721134014700,6.7030146484375,1.2896066798180341,0.4000052802473306,-1.0798648090336471
1761507721143986400,6.712986328125,1.2432009024739266,0.39557650401964783,-1.0682383033215999
1761507721153958700,6.722958740234375,1.1765677451372145,0.47008638608083125,-0.9460333347581327
1761507721163930400,6.732930419921875,1.0622498765617607,0.5831139956500381,-0.7299280664216726
1761507721173902600,6.742902587890625,0.9025649260401726,0.6988594858758151,-0.5219946332987397
1761507721183874600,6.75287451171875,0.6963982103288173,0.8039089561726898,-0.3875845554176718
1761507721193846500,6.762846435546875,0.4758545942187309,0.8975466594867407,-0.2683038402704522
1761507721203819500,6.772819580078125,0.24398411293029784,0.9336996306248009,-0.0948746429641731
1761507721213791500,6.78279150390625,0.08024550310373306,0.9567859071798622,0.11308003387618809
1761507721223763500,6.792763427734375,0.011713818669319151,0.9702521224744617,0.2944390925999731
1761507721233735700,6.802735595703125,-0.00525543631017208,0.9719191058386116,0.4281975381718948
1761507721243707400,6.812707275390625,0.03599544248878955,0.9853856133941561,0.5306446074180304
1761507721253679600,6.8226796875,0.1125163721114397,0.9936079366859047,0.5655682194242253
1761507721263651600,6.832651611328125,0.23464169956743716,0.958902680138126,0.529587061189115
1761507721273623600,6.84262353515625,0.3366179729640484,0.9024350160501897,0.48309448234438895
1761507721283595500,6.852595458984375,0.41418168963789936,0.8493537795301527,0.38690910384152083
1761507721293567500,6.8625673828125,0.4450952988177538,0.7838837476886809,0.22022967305639757
1761507721303539500,6.87253955078125,0.4398182351976633,0.700922921211645,0.07915711421198211
1761507721313511700,6.88251171875,0.4015302978575229,0.6355894482966512,-0.04736758984727785
1761507721323483400,6.8924833984375,0.311407543861866,0.573494884237647,-0.14450121811884453
1761507721333455600,6.90245556640625,0.19428397021591662,0.5242741225380451,-0.22048200384965166
1761507721343427300,6.91242724609375,0.06521160010099411,0.48526612729504703,-0.27919004900921135
1761507721353399600,6.922399658203125,-0.09698153384923934,0.46964463366270065,-0.32920937720797955
1761507721363372500,6.93237255859375,-0.23424013302922247,0.4384432205174118,-0.35686179263480006
1761507721373344500,6.942344482421875,-0.2685807940483093,0.4309964116428047,-0.3520547576792538
1761507721383316500,6.95231640625,-0.23656185397505758,0.40080176438726484,-0.2760544178646058
1761507721393288700,6.962288818359375,-0.15815116508305072,0.32782851730883117,-0.0889300736123696
1761507721403260400,6.972260498046875,-0.07680676082670689,0.25690058538764715,0.12111872596303
1761507721413232600,6.982232666015625,-0.0292009600430727,0.19033852052576838,0.24115047867326064
1761507721423204400,6.992204345703125,0.008158756536245346,0.14406732934676109,0.2829899710151367
1761507721433176600,7.002176513671875,0.05432955608069896,0.1091052484937012,0.29425447501437735
1761507721443148500,7.0121484375,0.13684943385720252,0.0660129065465182,0.3489070342380553
1761507721453120500,7.02212060546875,0.2884299883782863,0.03183072402477264,0.42125630419924853
1761507721463092500,7.032092529296875,0.45290801839530465,0.011534078188240527,0.47662506713457403
1761507721473064400,7.042064453125,0.4954208799540996,0.04990070678777993,0.5318642123408616
1761507721483036400,7.052036376953125,0.4030038775414228,0.13222316229604184,0.5892406983694062
1761507721493008600,7.062008544921875,0.24599253014326095,0.22944873403422533,0.672599401590228
1761507721502980400,7.07198046875,0.11514613609313964,0.2817064157443121,0.7869195351880043
1761507721512952600,7.08195263671875,0.012999766826629637,0.27104499220475553,0.8369880728233605
1761507721522924500,7.091924560546875,0.0065641808211803435,0.23362116088066248,0.9015725540019571
1761507721532897500,7.1018974609375,0.01561784037053585,0.1873269176196307,0.9323507732991129
1761507721542869500,7.111869384765625,-0.0032680618852376935,0.11530903503727168,0.8954070171095431
1761507721552841500,7.121841552734375,-0.02313946804702282,0.0903031885964796,0.7980567960783839
1761507721562813400,7.1318134765625,-0.05532499685883522,0.06916516003236174,0.6656199910316616
1761507721572785400,7.141785400390625,-0.04140811518728733,0.024286884516477585,0.600925985063985
1761507721582757000,7.151757080078125,-0.0040939913153648375,-0.03565561607517302,0.6333916459914296
1761507721592729300,7.161729248046875,0.025825346130132674,-0.07073145950101316,0.6931162660486996
1761507721602701300,7.171701416015625,0.07264554949402809,-0.11310403580628335,0.7232783262088894
1761507721612673300,7.18167333984375,0.11427344491183757,-0.1467327491637319,0.7075569523986428
1761507721622645500,7.1916455078125,0.0943470936924219,-0.1937509410514496,0.6051046589881182
1761507721632617200,7.2016171875,0.07515081031322479,-0.26478695472329855,0.46814405637402084
1761507721642589400,7.21158935546875,0.010924714118242264,-0.3308823884541169,0.3423645537920296
1761507721652561200,7.22156103515625,-0.08066577434241771,-0.4062919593013823,0.2316557242929004
1761507721662533400,7.231533447265625,-0.16116145281493663,-0.4888724081587046,0.1838284262456931
1761507721672505300,7.24150537109375,-0.21815467514693737,-0.5062134921252727,0.1878861589375883
1761507721682477300,7.251477294921875,-0.24818916340470312,-0.5075920870020986,0.17187409508507698
1761507721692449300,7.26144921875,-0.28316461519598957,-0.5368003535687923,0.1708778505893424
1761507721702422300,7.27142236328125,-0.2991682400137186,-0.5660790550231933,0.15868061405094339
1761507721712394200,7.281394287109375,-0.30851883668303487,-0.5845522848248481,0.12080332160461693
1761507721722366200,7.2913662109375,-0.31199148122966286,-0.5857127799715847,0.051498296443838625
1761507721732338200,7.301338134765625,-0.28041443970501423,-0.5902315360376611,-0.044114232340827585
1761507721742310400,7.311310302734375,-0.18414076186418532,-0.5984175459070131,-0.13772371420739218
1761507721752282400,7.321282470703125,-0.05905249294936656,-0.6078706896353513,-0.2165162054912187
1761507721762254300,7.33125439453125,0.10477613324820995,-0.6453738332733512,-0.27647297207023946
1761507721772226300,7.341226318359375,0.24425416204333303,-0.658262760136649,-0.27708927733767774
1761507721782198300,7.3511982421875,0.34909167008996006,-0.6497862428881228,-0.21357558546205982
1761507721792170200,7.361170166015625,0.38847207884192464,-0.610201616800949,-0.1343440269075334
1761507721802142500,7.371142578125,0.3853063082873821,-0.56465625567846,-0.039771545227710155
1761507721812114200,7.3811142578125,0.37458559230864047,-0.5145266720382496,0.08607884889971465
1761507721822086400,7.39108642578125,0.342183790397644,-0.47354014326389876,0.2127898053792305
1761507721832058000,7.40105810546875,0.2593207982718944,-0.45108778069820255,0.2792030728875659
1761507721842030300,7.4110302734375,0.1557166314125061,-0.4181995104445144,0.28370438462849706
1761507721852002000,7.421001953125,0.034302667096257206,-0.4035018901914358,0.2996695953982882
1761507721861975300,7.430975341796875,-0.05677928732037544,-0.39582375677898524,0.3425677482139319
1761507721871947300,7.440947265625,-0.10645078846216201,-0.3865358500823378,0.3877635652463883
1761507721881919200,7.450919189453125,-0.09029226534366608,-0.3986547424212098,0.4342055829476565
1761507721891891200,7.46089111328125,-0.09906126273274421,-0.4368702355796471,0.5169581004362553
1761507721901863400,7.470863525390625,-0.11067629720270633,-0.4227303222745657,0.5437963864685967
1761507721911835100,7.480835205078125,-0.06313128669559956,-0.3803790079530328,0.548647077902779
1761507721921807400,7.490807373046875,-0.05263268903493881,-0.331351686466299,0.4998511905517429
1761507721931779000,7.500779052734375,-0.12168050629794597,-0.32133703639768063,0.4272224460620433
1761507721941751300,7.510751220703125,-0.2570534378618002,-0.3668181731775403,0.3640024216370657
1761507721951723300,7.52072314453125,-0.4527461058318615,-0.38753556517679244,0.2718632315187715
1761507721961695200,7.5306953125,-0.6112929922342301,-0.34701358517426995,0.2739082544150762
1761507721971667200,7.540667236328125,-0.7652496282368898,-0.2893715800773352,0.3873923573138192
1761507721981639200,7.55063916015625,-0.8726730611234903,-0.18304682914763687,0.4775078413184732
1761507721991611100,7.560611083984375,-0.8635498434692621,-0.06245594471730292,0.5356974338281899
1761507722001583400,7.570583251953125,-0.7349129421621561,0.0652352001722902,0.5804204822497442
1761507722011555000,7.58055517578125,-0.49972471462786194,0.17948741963300852,0.6758231128770857
1761507722021528300,7.5905283203125,-0.17990706981718538,0.2794705829836428,0.8042946675546467
1761507722031500300,7.600500244140625,0.1526098975688219,0.3567075884537771,0.9437534071274101
1761507722041472300,7.61047216796875,0.40333354788720605,0.4269348612923175,1.07529245961681
1761507722051444200,7.6204443359375,0.5601292067080735,0.44108708608970043,1.1920621783237904
1761507722061416200,7.630416259765625,0.6481669711232185,0.42251408570799975,1.2432457645289599
1761507722071388200,7.64038818359375,0.6656412530153989,0.46911323019973933,1.2207764508284629
1761507722081360400,7.6503603515625,0.6125029525458813,0.5365396933386102,1.1612676654789595
1761507722091332000,7.66033203125,0.47191783929169173,0.561615828536637,1.1136472516480833
1761507722101304300,7.67030419921875,0.31758360214829445,0.581379390409775,1.0753529576323926
1761507722111276000,7.680276123046875,0.16173545331060885,0.572029560925439,0.9846789994947611
1761507722121248300,7.690248291015625,-0.027509353694319724,0.5411084990914911,0.8514498019613325
1761507722131220200,7.70022021484375,-0.22292554281055926,0.47970893155932426,0.6642180883444845
1761507722141192200,7.710192138671875,-0.37587329403162,0.3810483585819602,0.4370451537551358
1761507722151164400,7.720164306640625,-0.5045809224873781,0.25799550448488445,0.21704532566554843
1761507722161136000,7.73013623046875,-0.5507832862138747,0.13528412076923996,-0.012422734123654662
1761507722171108400,7.7401083984375,-0.5687473974496126,0.006210472012683749,-0.2025597041953355
1761507722181081300,7.750081298828125,-0.5669745425581931,-0.11919427897278219,-0.348479602606222
1761507722191053000,7.760052978515625,-0.5977163023024797,-0.24245171573124824,-0.488822285406664
1761507722201025300,7.770025390625,-0.6509697535842657,-0.3467047749534249,-0.5942810671567916
1761507722210997200,7.779997314453125,-0.6678805563747883,-0.4006318511804566,-0.6983068934943527
1761507722220969200,7.78996923828125,-0.6427922923475503,-0.3887964519580826,-0.7788648235481231
1761507722230941200,7.799941162109375,-0.5809434466779232,-0.32123353949058797,-0.793241212490201
1761507722240913200,7.8099130859375,-0.47654959074556824,-0.21919176310971378,-0.7391418119035661
1761507722250885400,7.819885498046875,-0.33755496155321596,-0.09583784370683134,-0.6317748584445566
1761507722260857300,7.829857421875,-0.20909633942246436,0.03673299951571971,-0.5037005594562739
1761507722270829300,7.839829345703125,-0.10513210707902908,0.18578746962528675,-0.39647538908813146
1761507722280801300,7.84980126953125,-0.047431028738617896,0.30068719320930537,-0.3335204088075086
1761507722290773200,7.859773193359375,-0.10097089574635028,0.38809108016770333,-0.33835089770387855
1761507722300745200,7.8697451171875,-0.14823416670262812,0.4422377539621666,-0.36879743736125525
1761507722310717400,7.879717529296875,-0.1359668058037758,0.4832610345503315,-0.4365001601582393
1761507722320689200,7.889689208984375,-0.08119652021825313,0.5179618706513196,-0.5208301195640117
1761507722330661400,7.899661376953125,0.01987549781501293,0.5460599840190261,-0.5803216980503871
1761507722340633000,7.909633056640625,0.10536065513789653,0.570537568802014,-0.5851486067501828
1761507722350606000,7.919606201171875,0.17964169687926768,0.5624613029174507,-0.553509496307373
1761507722360578300,7.929578369140625,0.32637130423784255,0.5224292983889579,-0.5527540748301893
1761507722370550300,7.93955029296875,0.42462943389415736,0.44913438160810615,-0.591421951398626
1761507722380522200,7.949522216796875,0.5060036487668752,0.2991980506300926,-0.5839801840253174
1761507722390494500,7.959494384765625,0.47962534492909903,0.1072338285986334,-0.5229288819415494
1761507722400466200,7.969466064453125,0.3358101637125015,-0.06131557904314249,-0.4122171480992809
1761507722410438400,7.9794384765625,0.13480126915574073,-0.18019838091395796,-0.3417535822868347
1761507722420410000,7.98941015625,-0.10509294411242008,-0.27496399227939544,-0.3177472317447886
1761507722430382300,7.99938232421875,-0.3412321887612343,-0.32873580487947907,-0.3022013606319204
1761507722440354300,8.009354248046876,-0.4900187286496162,-0.35688049733527005,-0.26067192061990496
1761507722450326300,8.019326171875,-0.5313444262504577,-0.39224129518233236,-0.19628796698208897
1761507722460298200,8.02929833984375,-0.49771629741489887,-0.42995884875599294,-0.09718930398155934
1761507722470270200,8.039270263671876,-0.3913514336705208,-0.4906842798862606,0.006401461115205893
1761507722480242200,8.0492421875,-0.3135124071866274,-0.5384342018483206,0.06460493031158111
1761507722490214400,8.05921435546875,-0.18765666103065012,-0.548484909611009,0.09512304650098084
1761507722500186000,8.06918603515625,-0.04424363087415695,-0.5396295856453478,0.12643072389918378
1761507722510159400,8.079159423828125,0.10418751970529555,-0.5544144457904622,0.1778324555002153
1761507722520131300,8.08913134765625,0.22532617421150206,-0.5607449639862403,0.18442840143283828
1761507722530103300,8.099103271484376,0.27600772917866706,-0.5100239903241396,0.1625938237056136
1761507722540075300,8.1090751953125,0.2670914322733879,-0.4500346549160778,0.10631158092087134
1761507722550047200,8.119047119140625,0.29061376215815543,-0.47708267470896243,0.07177841127067804
1761507722560019200,8.129019287109376,0.387083839353919,-0.5624946206651628,0.02986080990800401
1761507722569991400,8.138991455078125,0.5440712213546037,-0.6541419538795947,-0.022752891298674513
1761507722579963100,8.148963134765625,0.6679068598598241,-0.699666272214055,-0.11139905851930379
1761507722589935000,8.15893505859375,0.7730348752856254,-0.7247970602087677,-0.15990871280748395
1761507722599907000,8.168906982421875,0.8319821542948483,-0.735030065735802,-0.17324081686101853
1761507722609879300,8.17887939453125,0.854476894697547,-0.736670380288735,-0.13674856729861348
1761507722619851000,8.18885107421875,0.8235106785476207,-0.7405352390233427,-0.09760088045713491
1761507722629823200,8.1988232421875,0.7742869211733341,-0.7218950551569462,-0.09904388233968056
1761507722639795000,8.208794921875,0.6751373956352472,-0.6639926820907741,-0.16793301104279235
1761507722649767200,8.21876708984375,0.5909317567288875,-0.5975550473261624,-0.22046052267020566
1761507722659739100,8.2287392578125,0.518070518657565,-0.5160331676110625,-0.1964413674455136
1761507722669711000,8.238711181640625,0.4473977305412292,-0.525876662363857,-0.10848998440587893
1761507722679684000,8.24868408203125,0.37124972588419913,-0.5861288134265691,-0.0009474186516366898
1761507722689656000,8.258656005859375,0.2810124055981636,-0.7008593544561416,0.07975214836252853
1761507722699628000,8.2686279296875,0.1815834785968065,-0.7858373659744858,0.1005540129079949
1761507722709600300,8.278600341796874,0.08398468963205814,-0.8418510026846081,0.06125298040201887
1761507722719572000,8.288572021484375,0.02954816604554653,-0.8679032894384116,-0.014584572349640074
1761507722729544200,8.298544189453125,0.03409691539108753,-0.8660694250747561,-0.050523030804051086
1761507722739516000,8.308515869140624,0.06319207697212696,-0.8662192818742245,0.00895505002157879
1761507722749488000,8.318488037109375,0.08286649925708771,-0.8655405788950622,0.15191116558178328
1761507722759460000,8.328460205078125,0.08150339421033859,-0.8549147015929222,0.3548110341174528
1761507722769432000,8.33843212890625,0.08048223446905613,-0.8026154822960495,0.5091522489909083
1761507722779404300,8.348404296875,0.09563537993729114,-0.7060767237782478,0.6735456694643944
1761507722789376000,8.3583759765625,0.07097790854275227,-0.6433668773651122,0.821877378257364
1761507722799348200,8.36834814453125,-0.03044014644920826,-0.6121624685451388,0.9069085082024335
1761507722809320200,8.3783203125,-0.1610024628609419,-0.6375037574853748,0.8936654341392218
1761507722819292200,8.388292236328125,-0.34972821442782875,-0.7553172861568629,0.7779680208388715
1761507722829264100,8.39826416015625,-0.530980269113183,-0.8865412813477218,0.6394832408647984
1761507722839238100,8.408238037109374,-0.6555149957984685,-0.9081638420257717,0.380812978923507
1761507722849210000,8.418210205078125,-0.859196908956766,-0.9062008713897317,0.04424178597694262
1761507722859182000,8.42818212890625,-1.0816484045147896,-0.8648168677303939,-0.16058909628707915
1761507722869154300,8.438154296875,-1.3222206631749867,-0.737190239444375,-0.2675509760765359
1761507722879126000,8.4481259765625,-1.6032967816591261,-0.5244228833589702,-0.3469914464076981
1761507722889098200,8.45809814453125,-1.8599737874239681,-0.1839326720714569,-0.40925354905333367
1761507722899070000,8.468070068359374,-1.901535631868243,0.2546529525913298,-0.3885907733181491
1761507722909042200,8.478042236328125,-1.7506722857058048,0.6097633715141564,-0.2828790397202596
1761507722919014100,8.48801416015625,-1.3652058184206486,0.8238225940410048,-0.11796188763361423
1761507722928986000,8.497986083984374,-0.8305383852273225,0.9141051417082547,0.031453433411289006
1761507722938958000,8.5079580078125,-0.26964579293131824,0.9427239910144358,0.05754035308705643
1761507722948930000,8.517929931640625,0.23907763618826866,0.9002866058446466,-0.04967159247333183
1761507722958902000,8.527902099609374,0.6727396868437528,0.810292519729957,-0.17786717975372449
1761507722968874200,8.537874267578125,1.0088163925379514,0.7085132302101701,-0.22557441335152834
1761507722978846000,8.547845947265625,1.2695873896181582,0.6368243238538503,-0.31480321418214585
1761507722988818200,8.557818115234374,1.4434814827561377,0.6017389819473028,-0.37440190630480646
1761507722998791200,8.567791259765626,1.5725141053825615,0.6846848300509154,-0.4386784175127744
1761507723008763100,8.57776318359375,1.6142361088246107,0.810841166588664,-0.4807242826143279
1761507723018735000,8.587735107421874,1.5357833343565463,0.9464078671589493,-0.539617858674936
1761507723028707000,8.59770703125,1.3208037821143865,1.0556908103071152,-0.6253710558168589
1761507723038679000,8.607678955078125,1.0228355655401944,1.1528490158975124,-0.7102142619743943
1761507723048651300,8.6176513671875,0.6292676248639821,1.1913386132895947,-0.7615963664263486
1761507723058623000,8.627623046875,0.27180677035748957,1.1826213460877537,-0.7363853528022766
1761507723068595200,8.63759521484375,-0.0013332944303750991,1.1760111341677606,-0.6307379896774887
1761507723078567000,8.64756689453125,-0.19548399365544317,1.1812847637217492,-0.46731370649710297
1761507723088539100,8.6575390625,-0.3236106073528528,1.1863451889164744,-0.2756568699143827
1761507723098511000,8.667510986328125,-0.3554997835665941,1.1861701976757495,-0.06630425417590886
1761507723108483000,8.677483154296874,-0.31623627919256686,1.1771170495830476,0.11377703969702124
1761507723118455300,8.687455322265626,-0.2508037298172712,1.1314425821881742,0.22798596800528464
1761507723128427000,8.697427001953125,-0.09711831197142601,1.040521298225969,0.280667355020158
1761507723138399200,8.707399169921874,0.17248071920871733,0.9212922767333686,0.30233998365132136
1761507723148371200,8.71737109375,0.4660784656137228,0.7631687303096055,0.3188545719321817
1761507723158344000,8.727343994140625,0.718957832661271,0.5837548508368432,0.3565769843440503
1761507723168316200,8.737316162109375,0.8802309291571379,0.4323505296654999,0.39480456979908046
1761507723178288000,8.7472880859375,0.9397872799754142,0.3591034340817481,0.39892048068530855
1761507723188260000,8.757260009765625,0.9651689739912748,0.32219599131457505,0.4083852052535861
1761507723198232000,8.767232177734375,0.9216197551220655,0.27333580655567347,0.47183019754085687
1761507723208204000,8.7772041015625,0.7537082435250282,0.256447215596959,0.5057226398684084
1761507723218176000,8.787176025390625,0.5682464621901512,0.23483254596441983,0.5021679430615157
1761507723228148200,8.797148193359375,0.3950497036665678,0.2549804309800267,0.42141595174036917
1761507723238120200,8.8071201171875,0.24020517891347407,0.310308569644019,0.3329441432895139
1761507723248092200,8.817092041015625,0.09048048139214515,0.37084231412708757,0.2424899653824046
1761507723258064100,8.827064208984375,-0.09694353992640972,0.40184228641614317,0.11144406670480966
1761507723268036000,8.8370361328125,-0.2469832947462797,0.39293366136066615,-0.0481945969896391
1761507723278008300,8.84700830078125,-0.392552041631937,0.36345205774530764,-0.21963051985315976
1761507723287980000,8.85697998046875,-0.5316483776330948,0.3413619526207447,-0.307046645238623
1761507723297952300,8.8669521484375,-0.5644125831156969,0.30879005483984945,-0.31578349392376837
1761507723307924000,8.876924072265625,-0.6032154842406511,0.23904033638518302,-0.2672955034781247
1761507723317897000,8.88689697265625,-0.6185878254175186,0.13704484683144838,-0.17456640290897338
1761507723327869200,8.896869140625,-0.6375713428288697,0.08105627149734645,-0.07231858256198466
1761507723337841200,8.906841064453126,-0.6872597951054573,0.10247450524233281,-0.015580248306505382
1761507723347813000,8.916813232421875,-0.6862474031925201,0.12482914305459707,0.08588343592546879
1761507723357785300,8.926785400390624,-0.6620961277544498,0.16178959465064108,0.28136253421008584
1761507723367757000,8.936757080078126,-0.5820651441842317,0.1667138627776876,0.47887642625793814
1761507723377729300,8.946729248046875,-0.42418169012665746,0.13008121836390346,0.6571537759814411
1761507723387701000,8.956700927734374,-0.23799685521423816,0.038761473136022684,0.7796268208965659
1761507723397673200,8.966673095703126,-0.011205284625291823,-0.05843180376775563,0.8585120684977621
1761507723407645200,8.976645263671875,0.19429273804426192,-0.14598876239601521,0.9389346086688339
1761507723417617200,8.9866171875,0.3738718910813331,-0.2541458798520267,0.9669363489899784
1761507723427589000,8.996589111328126,0.543472086417675,-0.32760011538043615,0.9520240265402943
1761507723437561000,9.00656103515625,0.6757482210099697,-0.38520737795755267,0.94665139359124
1761507723447533000,9.016532958984374,0.7579109559118747,-0.4539985901109874,0.9714992729913443
1761507723457505300,9.02650537109375,0.798517107066512,-0.5009002612132579,1.0311878718871623
1761507723467477000,9.03647705078125,0.7839917381078004,-0.5454899290461093,1.0909607880655676
1761507723477450200,9.0464501953125,0.7014502330213784,-0.5821052935315296,1.1321591329596936
1761507723487422200,9.056422119140626,0.5204939464122057,-0.65899991530478,1.1216944375686346
1761507723497394200,9.066394287109375,0.3213414933770895,-0.6926268020313233,1.0448992941144852
1761507723507366100,9.0763662109375,0.1472936709821224,-0.6976097780756652,0.92161369070746
1761507723517338000,9.086338134765626,0.01796878741085529,-0.7177761485960334,0.8415881870299577
1761507723527310000,9.09631005859375,-0.07427168939113617,-0.7568666344907135,0.7687431694410741
1761507723537282300,9.1062822265625,-0.13528466875851153,-0.8206050202339887,0.746658544209227
1761507723547254000,9.11625390625,-0.1944376994729042,-0.8839031879290938,0.7872364191174507
1761507723557226200,9.126226318359375,-0.25161738428771496,-0.8648165024042129,0.7473612856511026
1761507723567198000,9.136197998046875,-0.3441150507211685,-0.8697373729977756,0.6874835208587348
1761507723577170200,9.146170166015626,-0.5301408956795931,-0.8885415883194655,0.5584143656142055
1761507723587142000,9.156141845703125,-0.6785878283500671,-0.854963874496892,0.3694744598399847
1761507723597114000,9.166114013671875,-0.7262573420196771,-0.8016315858252346,0.22875233100159093
1761507723607085800,9.1760859375,-0.704556382343173,-0.7397685654997825,0.1064574008660391
1761507723617058000,9.18605810546875,-0.6525485472083091,-0.6782897952515632,0.06000981194050982
1761507723627030000,9.196030029296875,-0.6171937407106161,-0.6099878279197961,0.1058539185475558
1761507723637003000,9.2060029296875,-0.5722223800837993,-0.5083951470132917,0.181622111840453
1761507723646975000,9.21597509765625,-0.47354690179824827,-0.3983355204042047,0.24881418170155956
1761507723656947200,9.225947265625,-0.32331600832045077,-0.2752240862539969,0.28802451284993436
1761507723666919000,9.2359189453125,-0.10546353099048138,-0.15380517176799474,0.31513935080133376
1761507723676891100,9.24589111328125,0.09815525380373001,-0.0908274864652194,0.35002847601603715
1761507723686862800,9.25586279296875,0.26556816822886464,-0.013294585054740309,0.29669377619158477
1761507723696835000,9.2658349609375,0.3804740658253431,0.04087545134900138,0.2203467235648073
1761507723706807000,9.27580712890625,0.4488613733530044,0.08681618673093616,0.1388513665304519
1761507723716779000,9.285779052734375,0.4104600387662649,0.13679600490322336,0.06150450747767463
1761507723726751000,9.2957509765625,0.27525895663797856,0.14612512039309367,-0.010013481024838983
1761507723736723000,9.305722900390625,0.04953881467282772,0.09237909982139245,-0.047911633596103634
1761507723746695200,9.315695068359375,-0.24955577558279035,-0.0025399302737787364,-0.08529343414306641
1761507723756667100,9.325667236328124,-0.47359541711509223,0.011100655207037924,-0.08678403802700341
1761507723766639000,9.33563916015625,-0.6018862814635038,0.0906458828206174,0.012148593357391655
1761507723776611000,9.345611083984375,-0.6802899560928344,0.12130668628318235,0.1331293904207647
1761507723786584000,9.355583984375,-0.7283417470782995,0.161825268752221,0.21136768188793212
1761507723796556000,9.36555615234375,-0.6620078649491071,0.2722091954122297,0.2000098735820502
1761507723806528000,9.375528076171875,-0.43430794734358785,0.3544516262205317,0.25437879355875775
1761507723816500000,9.3855,-0.11646949365139007,0.33218715090975165,0.39022505998909474
1761507723826472000,9.395471923828126,0.22578151676356792,0.19664797766720876,0.5740997547956184
1761507723836444200,9.405444091796875,0.5115437472373247,0.10096910564806312,0.6592299977336078
1761507723846416000,9.415415771484374,0.6826373960018157,0.08161231621121988,0.6130936849806458
1761507723856388000,9.42538818359375,0.7506886034429073,0.06028482948960736,0.6032273938741535
1761507723866360000,9.435360107421875,0.7288964583516121,0.025907233993615955,0.6663166680589317
1761507723876332000,9.44533203125,0.6369266151845455,0.058257031722739334,0.7148210981827229
1761507723886304300,9.45530419921875,0.4853980831116438,0.13243475008695385,0.7379292212434112
1761507723896276000,9.46527587890625,0.2537269237875938,0.18761786339022218,0.7133587705451995
1761507723906248200,9.475248291015625,-0.005382862082123756,0.2163056680130772,0.688545451001823
1761507723916220000,9.485219970703126,-0.249056593888998,0.2580966998370364,0.636342823947221
1761507723926192000,9.495192138671875,-0.498113187777996,0.3122756319332868,0.5226822502367198
1761507723936164000,9.5051640625,-0.7761486233919859,0.3422754507364705,0.3657419222481549
1761507723946136000,9.515135986328126,-1.0025666844934225,0.35670605408381667,0.2438752822609618
1761507723956109000,9.525109130859375,-1.1532166801661252,0.3854604028705507,0.14094720629854127
1761507723966081000,9.5350810546875,-1.2291320451110601,0.41169264930114147,0.02045505126863718
1761507723976053000,9.545052978515624,-1.2048913378238677,0.45032150903344154,-0.10200359979495406
1761507723986025200,9.555025146484375,-1.06987964078784,0.4705612735835835,-0.22449005218092352
1761507723995997000,9.564996826171875,-0.8770902930438518,0.4970390557404607,-0.38277905483208596
1761507724005969200,9.57496923828125,-0.6732505589753389,0.5242936674887314,-0.5879581842781976
1761507724015941000,9.584941162109375,-0.5056757319867611,0.49967594358269124,-0.7896527595441788
1761507724025913000,9.5949130859375,-0.370170113953948,0.493959867490828,-0.9862263020019978
1761507724035885000,9.604885009765624,-0.24742928494811056,0.5295695255324244,-1.1356366728771476
1761507724045857000,9.61485693359375,-0.061792731568217275,0.5967305061355233,-1.1752288246836513
1761507724055829000,9.6248291015625,0.134867904651165,0.652556803580001,-1.1617683084774761
1761507724065801200,9.63480126953125,0.29658056160807605,0.648374403328821,-1.1641514772869646
1761507724075773000,9.64477294921875,0.42384032934308047,0.5863903869722038,-1.1645520209118723
1761507724085745200,9.6547451171875,0.46005438301861284,0.4828339682446792,-1.1667264423415065
1761507724095716900,9.664716796875,0.41264439706802364,0.38400980220343917,-1.1041919524952768
1761507724105689000,9.674689208984375,0.37021629118323324,0.3073389061834663,-1.0357640937615185
1761507724115662000,9.684662109375,0.3451736198633909,0.24530823767352847,-0.9953111604072153
1761507724125634000,9.694634033203124,0.36965748825669287,0.2000497306684032,-0.9685310708355158
1761507724135606000,9.70460595703125,0.3820721486717462,0.1746589400306344,-0.9264708484150469
1761507724145578200,9.714578125,0.318509484821558,0.11647911999626084,-0.857409587148577
1761507724155550000,9.724550048828124,0.2776888141334057,0.011965048917452804,-0.7545788158144802
1761507724165522200,9.734522216796876,0.24941782841682433,-0.09653550711479038,-0.6611833968237042
1761507724175494000,9.744493896484375,0.23686112918257712,-0.162147577775456,-0.6106867699693888
1761507724185466000,9.754466064453124,0.24109949740469455,-0.1607119737480767,-0.5724920273380354
1761507724195438000,9.76443798828125,0.19952128634750843,-0.13882493518125266,-0.5056478210665285
1761507724205410000,9.77441015625,0.11299860267043113,-0.13175859525790437,-0.38770251924153415
1761507724215382000,9.784382080078124,0.0670329703092575,-0.12602172297318465,-0.22587482107020912
1761507724225354000,9.79435400390625,0.09172843562662601,-0.09161060880008152,-0.11663414616119115
1761507724235326000,9.804325927734375,0.1587228274911642,-0.06198609871584922,-0.027232107655517757
1761507724245298200,9.814298095703125,0.25175708501935,-0.0630801501634065,0.06170227680578828
1761507724255270000,9.824269775390626,0.34474633436203,-0.10333515892596914,0.09360931746978313
1761507724265242000,9.8342421875,0.3974801456838846,-0.16126144259069114,0.08842073585074395
1761507724275215000,9.844215087890625,0.41394846540391445,-0.2159630103215575,0.07480765943136065
1761507724285187000,9.85418701171875,0.3890525090783834,-0.27996647674180564,0.10332224464546888
1761507724295159000,9.864158935546875,0.3390063294053077,-0.2986180953176692,0.10188296908997
1761507724305131000,9.874131103515625,0.2635240951806307,-0.35042748527098444,0.0995073625324294
1761507724315103000,9.88410302734375,0.2205763493359089,-0.39347847229447214,0.140024885555543
1761507724325075200,9.8940751953125,0.2686684723317623,-0.35150771825574334,0.15717472126632928
1761507724335047000,9.904046875,0.3119330290406942,-0.26244923249073326,0.2720402503198013
1761507724345019100,9.91401904296875,0.33446225623488424,-0.16057546962052582,0.2804664986858144
