time,seconds_elapsed,z,y,x
1761507714512570400,0.0815703125,0.05703486129641533,-0.07335088402032852,0.13771763443946838
1761507714522542300,0.091542236328125,0.03413105010986328,-0.07644405961036682,0.10685457289218903
1761507714532514300,0.101514404296875,0.00685149384662509,-0.061423033475875854,0.07730547338724136
1761507714542486300,0.111486328125,-0.024759113788604736,-0.033250242471694946,0.039353106170892715
1761507714552458200,0.121458251953125,-0.051707107573747635,-0.011202197521924973,0.0024129324592649937
1761507714562430500,0.131430419921875,-0.06914550811052322,0.004083755426108837,-0.021224696189165115
1761507714572401700,0.141401611328125,-0.07658105343580246,-0.001599696814082563,-0.032179076224565506
1761507714582373600,0.15137353515625,-0.08148211240768433,-0.00910411961376667,-0.03365753963589668
1761507714592345600,0.161345703125,-0.0818949043750763,-0.0171657744795084,-0.028986886143684387
1761507714602317600,0.171317626953125,-0.0762787014245987,-0.03322961926460266,-0.02667635679244995
1761507714612289800,0.181289794921875,-0.0715973973274231,-0.040528010576963425,-0.026387937366962433
1761507714622261800,0.19126171875,-0.072957843542099,-0.050811562687158585,-0.03040694259107113
1761507714632234500,0.201234375,-0.07401219010353088,-0.057187434285879135,-0.034001946449279785
1761507714642206700,0.211206787109375,-0.07896731048822403,-0.05357300117611885,-0.036352526396512985
1761507714652178700,0.2211787109375,-0.07911751419305801,-0.037350092083215714,-0.039238061755895615
1761507714662150700,0.231150634765625,-0.07858134061098099,-0.011278740130364895,-0.041237011551856995
1761507714672122600,0.24112255859375,-0.07498607784509659,0.011665724217891693,-0.04529007524251938
1761507714682094600,0.251094482421875,-0.066275954246521,0.032809674739837646,-0.04482696205377579
1761507714692066600,0.261066650390625,-0.055738624185323715,0.039055321365594864,-0.042399756610393524
1761507714702038800,0.271038818359375,-0.040153633803129196,0.03691289573907852,-0.0377197340130806
1761507714712010500,0.281010498046875,-0.02315600775182247,0.017251843586564064,-0.03443312644958496
1761507714721982700,0.290982666015625,0.003618319984525442,0.0054555791430175304,-0.03670128434896469
1761507714731954700,0.30095458984375,0.027980118989944458,-0.014762341044843197,-0.040817465633153915
1761507714741926700,0.3109267578125,0.04648132249712944,-0.0349668487906456,-0.04504884034395218
1761507714751899000,0.32089892578125,0.06297401338815689,-0.04972129315137863,-0.04475882276892662
1761507714761870600,0.33087060546875,0.06969702243804932,-0.06001071259379387,-0.043367691338062286
1761507714771842800,0.3408427734375,0.06838541477918625,-0.06850938498973846,-0.05115237832069397
1761507714781814500,0.350814453125,0.061291832476854324,-0.07769228518009186,-0.06534568965435028
1761507714791786800,0.360786865234375,0.060623377561569214,-0.0792132169008255,-0.08762196451425552
1761507714801758700,0.3707587890625,0.052090585231781006,-0.07767929881811142,-0.10384535044431686
1761507714811730700,0.380730712890625,0.04474771395325661,-0.06665513664484024,-0.11325403302907944
1761507714821702700,0.39070263671875,0.031355634331703186,-0.04458751529455185,-0.11159750819206238
1761507714831674600,0.400674560546875,0.020946137607097626,-0.017952710390090942,-0.10365596413612366
1761507714841647600,0.410647705078125,0.02017832174897194,-0.001520531834103167,-0.08715735375881195
1761507714851619800,0.420619873046875,0.02584606036543846,0.006165084894746542,-0.06671120226383209
1761507714861591600,0.430591552734375,0.03631903603672981,0.010691411793231964,-0.03955492004752159
1761507714871563800,0.440563720703125,0.029412394389510155,0.011707940138876438,-0.01048172265291214
1761507714881535700,0.45053564453125,0.008400121703743935,0.006511274725198746,0.011016198433935642
1761507714891507700,0.4605078125,-0.0195406973361969,-0.0016262800199910998,0.023265672847628593
1761507714901479700,0.470479736328125,-0.0530269555747509,-0.004846188239753246,0.026434579864144325
1761507714911451600,0.48045166015625,-0.08790930360555649,-0.0026251119561493397,0.010072384029626846
1761507714921423600,0.490423583984375,-0.12574100494384766,0.016972843557596207,-0.010466685518622398
1761507714931395800,0.500395751953125,-0.16415497660636902,0.03869970887899399,-0.03429851308465004
1761507714941367600,0.510367431640625,-0.19541436433792114,0.07265885174274445,-0.06743576377630234
1761507714951339800,0.52033984375,-0.22454401850700378,0.10318693518638611,-0.10094498097896576
1761507714961311500,0.5303115234375,-0.25287559628486633,0.1359230875968933,-0.12358792126178741
1761507714971283700,0.54028369140625,-0.27605172991752625,0.15609972178936005,-0.14081218838691711
1761507714981255700,0.550255615234375,-0.2980315685272217,0.15724334120750427,-0.15366479754447937
1761507714991227600,0.5602275390625,-0.31562522053718567,0.1383625864982605,-0.16325803101062775
1761507715001199600,0.57019970703125,-0.32769155502319336,0.09107128530740738,-0.15736348927021027
1761507715011171600,0.580171630859375,-0.3262779414653778,0.02765582874417305,-0.14085082709789276
1761507715021143600,0.5901435546875,-0.31207776069641113,-0.03259096294641495,-0.10283707082271576
1761507715031115800,0.60011572265625,-0.2979835271835327,-0.07234317064285278,-0.06136179715394974
1761507715041087700,0.610087646484375,-0.27740252017974854,-0.08820755034685135,-0.019729113206267357
1761507715051059700,0.620059814453125,-0.25757503509521484,-0.07692746818065643,0.015542590990662575
1761507715061032700,0.63003271484375,-0.24659110605716705,-0.05360014736652374,0.034070394933223724
1761507715071004700,0.640004638671875,-0.24589894711971283,-0.026786107569932938,0.0467451773583889
1761507715080976600,0.6499765625,-0.2579442262649536,-0.006460824515670538,0.053223371505737305
1761507715090948600,0.659948486328125,-0.28352922201156616,0.012476912699639797,0.043964095413684845
1761507715100920600,0.669920654296875,-0.3050503730773926,0.03348112478852272,0.015564230270683765
1761507715110892800,0.679892822265625,-0.3176380693912506,0.05838913843035698,-0.019967397674918175
1761507715120864500,0.689864501953125,-0.31703484058380127,0.09786257147789001,-0.045922089368104935
1761507715130836700,0.699836669921875,-0.3064767122268677,0.14611266553401947,-0.0484161414206028
1761507715140808700,0.70980859375,-0.2918436527252197,0.1938168704509735,-0.026081254705786705
1761507715150780700,0.71978076171875,-0.27383697032928467,0.2356410175561905,0.020795706659555435
1761507715160753000,0.7297529296875,-0.24954532086849213,0.2591035068035126,0.08408956229686737
1761507715170724600,0.739724609375,-0.22100740671157837,0.2656937539577484,0.14642511308193207
1761507715180696800,0.74969677734375,-0.18793930113315582,0.23117101192474365,0.18640373647212982
1761507715190668500,0.75966845703125,-0.1468784064054489,0.157735675573349,0.1993485689163208
1761507715200640800,0.769640869140625,-0.098753422498703,0.061620403081178665,0.1834561675786972
1761507715210612700,0.77961279296875,-0.040387846529483795,-0.05242947116494179,0.14957623183727264
1761507715220584700,0.789584716796875,0.03003121167421341,-0.17274847626686096,0.09978284686803818
1761507715230556700,0.799556640625,0.1035728007555008,-0.2882758677005768,0.04346524551510811
1761507715240528600,0.809528564453125,0.17124968767166138,-0.37994542717933655,-0.002847580472007394
1761507715250500600,0.81950048828125,0.21743077039718628,-0.4313896894454956,-0.028881045058369637
1761507715260473900,0.829473876953125,0.23564419150352478,-0.43985050916671753,-0.035618413239717484
1761507715270445600,0.839445556640625,0.22741742432117462,-0.4094185531139374,-0.025155922397971153
1761507715280417800,0.849417724609375,0.20708027482032776,-0.3457832932472229,0.002568403724581003
1761507715290389800,0.8593896484375,0.18193469941616058,-0.2488626390695572,0.03762651979923248
1761507715300361700,0.86936181640625,0.15455473959445953,-0.1355854570865631,0.05750761926174164
1761507715310333700,0.879333740234375,0.12491960823535919,-0.04255937039852142,0.0490824431180954
1761507715320305700,0.8893056640625,0.10935316979885101,0.02990763820707798,0.010140370577573776
1761507715330277600,0.899277587890625,0.09968562424182892,0.07456591725349426,-0.04352658614516258
1761507715340249900,0.909249755859375,0.10063152760267258,0.09135250747203827,-0.08959676325321198
1761507715350221600,0.9192216796875,0.10461428016424179,0.09186010807752609,-0.1232902780175209
1761507715360193800,0.92919384765625,0.10213662683963776,0.07444491982460022,-0.1377096027135849
1761507715370165500,0.93916552734375,0.10837721079587936,0.05377000570297241,-0.12827375531196594
1761507715380137700,0.9491376953125,0.11417815834283829,0.04137273505330086,-0.10614600032567978
1761507715390109700,0.959109619140625,0.1200307235121727,0.036972127854824066,-0.0780579075217247
1761507715400081700,0.96908154296875,0.12727101147174835,0.03380977362394333,-0.0685066282749176
1761507715410053600,0.9790537109375,0.1306934356689453,0.02678515389561653,-0.05549335852265358
1761507715420025600,0.989025634765625,0.1401381939649582,0.0047894930467009544,-0.03995737060904503
1761507715429997600,0.99899755859375,0.14922170341014862,-0.012515993788838387,-0.011791778728365898
1761507715439969800,1.0089697265625,0.1542687863111496,-0.015481878072023392,0.03198762983083725
1761507715449942500,1.018942626953125,0.14543108642101288,-0.005332305561751127,0.06914032250642776
1761507715459914800,1.028914794921875,0.13413497805595398,0.0011172238737344742,0.08771904557943344
1761507715469886700,1.03888671875,0.12159708142280579,0.007622261065989733,0.09407254308462143
1761507715479858700,1.048858642578125,0.11003020405769348,0.01489152293652296,0.08003237843513489
1761507715489830700,1.05883056640625,0.09627950936555862,0.02844967693090439,0.05702213570475578
1761507715499802600,1.068802734375,0.08026420325040817,0.0412168987095356,0.02140192687511444
1761507715509774600,1.078774658203125,0.06518618762493134,0.06562930345535278,-0.01158025674521923
1761507715519746800,1.088746826171875,0.05405622348189354,0.09215991199016571,-0.035844068974256516
1761507715529718500,1.098718505859375,0.03917660936713219,0.11841414868831635,-0.06310179084539413
1761507715539690800,1.108690673828125,0.03502604365348816,0.13696876168251038,-0.0822475403547287
1761507715549662500,1.118662353515625,0.04494791477918625,0.15261243283748627,-0.0851043164730072
1761507715559634700,1.128634765625,0.06582100689411163,0.17048640549182892,-0.08331704884767532
1761507715569607200,1.138607177734375,0.09227578341960907,0.16973859071731567,-0.07358506321907043
1761507715579579100,1.1485791015625,0.1292267143726349,0.1437448263168335,-0.06346303224563599
1761507715589551000,1.158551025390625,0.16587580740451813,0.09571125358343124,-0.058325789868831635
1761507715599523000,1.168523193359375,0.18917156755924225,0.02699616365134716,-0.054384104907512665
1761507715609495000,1.1784951171875,0.20194195210933685,-0.022456606850028038,-0.04069945216178894
1761507715619467300,1.18846728515625,0.20263418555259705,-0.0463997982442379,-0.028723396360874176
1761507715629439200,1.198439208984375,0.19755926728248596,-0.055758412927389145,-0.020905686542391777
1761507715639411200,1.2084111328125,0.1954052597284317,-0.06581946462392807,-0.025445986539125443
1761507715649384200,1.21838427734375,0.19869905710220337,-0.11064445972442627,-0.023847557604312897
1761507715659356200,1.228356201171875,0.2026141732931137,-0.1464877426624298,-0.018821364268660545
1761507715669328100,1.238328125,0.1968580186367035,-0.1689123511314392,-0.011613785289227962
1761507715679300000,1.248300048828125,0.18957270681858063,-0.16901333630084991,-0.0026606363244354725
1761507715689272000,1.25827197265625,0.18583256006240845,-0.15709781646728516,0.0044571938924491405
1761507715699244300,1.268244384765625,0.18820400536060333,-0.13684342801570892,-0.00044997461372986436
1761507715709216000,1.278216064453125,0.19134308397769928,-0.13143934309482574,-0.015390041284263134
1761507715719188200,1.288188232421875,0.18522779643535614,-0.16132664680480957,-0.052550479769706726
1761507715729160200,1.29816015625,0.1497180163860321,-0.23259256780147552,-0.10467199981212616
1761507715739132200,1.308132080078125,0.09510213881731033,-0.2980617582798004,-0.1541793793439865
1761507715749104400,1.3181044921875,0.03148800879716873,-0.32526540756225586,-0.18252260982990265
1761507715759076000,1.328076171875,-0.02799205295741558,-0.2928493916988373,-0.1759699583053589
1761507715769048300,1.33804833984375,-0.07258216291666031,-0.18955524265766144,-0.13040992617607117
1761507715779020000,1.34802001953125,-0.097320556640625,-0.033309608697891235,-0.04476721212267876
1761507715788992300,1.3579921875,-0.09637939929962158,0.15915438532829285,0.052375584840774536
1761507715798964200,1.367964111328125,-0.06008340045809746,0.34338441491127014,0.15109358727931976
1761507715808936200,1.377936279296875,-0.0000064801424741744995,0.47852304577827454,0.2497868686914444
1761507715818908200,1.387908203125,0.07614007592201233,0.554000198841095,0.3508947491645813
1761507715828880100,1.397880126953125,0.1409084051847458,0.5462583899497986,0.44957712292671204
1761507715838853000,1.40785302734375,0.1976243257522583,0.4839285910129547,0.5217632055282593
1761507715848825300,1.417825439453125,0.23784443736076355,0.3781971037387848,0.5596495866775513
1761507715858797000,1.427797119140625,0.2671259343624115,0.24006550014019012,0.5611389875411987
1761507715868769300,1.437769287109375,0.2756541967391968,0.07845023274421692,0.518600344657898
1761507715878741200,1.4477412109375,0.2674486041069031,-0.06394486129283905,0.4436459541320801
1761507715888713200,1.457713134765625,0.2314615696668625,-0.17621280252933502,0.343011736869812
1761507715898685200,1.467685302734375,0.1832287311553955,-0.24430952966213226,0.22796043753623962
1761507715908657200,1.4776572265625,0.13621409237384796,-0.2696455121040344,0.12357677519321442
1761507715918629000,1.487629150390625,0.09203069657087326,-0.2503960430622101,0.04002690687775612
1761507715928601300,1.497601318359375,0.05363377556204796,-0.20255450904369354,-0.03899148106575012
1761507715938573000,1.507572998046875,0.019335990771651268,-0.12838014960289001,-0.10865817964076996
1761507715948545300,1.517545166015625,-0.009438132867217064,-0.040709421038627625,-0.162791445851326
1761507715958517000,1.52751708984375,-0.018862474709749222,0.04069170728325844,-0.19658716022968292
1761507715968489200,1.5374892578125,-0.022199947386980057,0.10517402738332748,-0.2112092524766922
1761507715978461200,1.547461181640625,-0.015439923852682114,0.13013377785682678,-0.20341740548610687
1761507715988433200,1.55743310546875,0.0031966110691428185,0.10946045815944672,-0.19002223014831543
1761507715998405000,1.567405029296875,0.031160226091742516,0.05965522676706314,-0.17756898701190948
1761507716008377000,1.577377197265625,0.0729667991399765,0.013266155496239662,-0.16010716557502747
1761507716018349000,1.58734912109375,0.11491373926401138,0.002939168829470873,-0.1335739642381668
1761507716028321300,1.5973212890625,0.14839793741703033,0.015733793377876282,-0.1023595780134201
1761507716038294000,1.6072939453125,0.17050853371620178,0.02621273882687092,-0.06794308125972748
1761507716048266200,1.617266357421875,0.19027237594127655,0.05798078700900078,-0.025166859850287437
1761507716058238200,1.62723828125,0.20276089012622833,0.12340136617422104,0.01894797571003437
1761507716068210200,1.637210205078125,0.20870772004127502,0.19879119098186493,0.045460544526576996
1761507716078182100,1.64718212890625,0.21257056295871735,0.2517186403274536,0.060222625732421875
1761507716088154000,1.657154052734375,0.20942804217338562,0.2536134719848633,0.05194658786058426
1761507716098126000,1.6671259765625,0.20380933582782745,0.20972411334514618,0.03160116821527481
1761507716108098300,1.677098388671875,0.1934107542037964,0.1457323431968689,0.004144510719925165
1761507716118070000,1.687070068359375,0.1849893033504486,0.06892624497413635,-0.022714924067258835
1761507716128042200,1.697042236328125,0.1867765486240387,0.009221632033586502,-0.039453424513339996
1761507716138014000,1.707013916015625,0.19204264879226685,-0.016920655965805054,-0.04161592945456505
1761507716147986200,1.716986083984375,0.20125292241573334,-0.011913911439478397,-0.032928165048360825
1761507716157958100,1.726958251953125,0.2187081277370453,-0.007827389054000378,-0.026022711768746376
1761507716167930000,1.73693017578125,0.24030236899852753,-0.01828695461153984,-0.01846945472061634
1761507716177902300,1.74690234375,0.2596001625061035,-0.04176325350999832,-0.004697841592133045
1761507716187874000,1.7568740234375,0.26971113681793213,-0.0708865150809288,0.0077393874526023865
1761507716197846300,1.76684619140625,0.2788885235786438,-0.11584389209747314,0.0067726317793130875
1761507716207818200,1.776818359375,0.28590595722198486,-0.15895727276802063,-0.007913902401924133
1761507716217790200,1.786790283203125,0.2778943181037903,-0.20088860392570496,-0.03692878782749176
1761507716227762200,1.79676220703125,0.25789982080459595,-0.2393220067024231,-0.09163304418325424
1761507716237735200,1.806735107421875,0.22153183817863464,-0.25577229261398315,-0.15682873129844666
1761507716247707100,1.81670703125,0.17862138152122498,-0.23720818758010864,-0.21757009625434875
1761507716257679000,1.82667919921875,0.13769160211086273,-0.17822548747062683,-0.26354077458381653
1761507716267651000,1.836651123046875,0.10689134895801544,-0.08795230835676193,-0.28731587529182434
1761507716277623300,1.846623291015625,0.0876118615269661,0.007899955846369267,-0.28664299845695496
1761507716287595300,1.85659521484375,0.08512580394744873,0.10090606659650803,-0.26345857977867126
1761507716297567200,1.866567138671875,0.09819421917200089,0.17218898236751556,-0.22315242886543274
1761507716307539200,1.876539306640625,0.10925193130970001,0.20436635613441467,-0.18054690957069397
1761507716317511200,1.88651123046875,0.11948736011981964,0.19507034122943878,-0.14855791628360748
1761507716327483100,1.896483154296875,0.1294877976179123,0.15762017667293549,-0.13210250437259674
1761507716337455400,1.906455322265625,0.1401928812265396,0.10823003947734833,-0.13040435314178467
1761507716347427000,1.916427001953125,0.16322708129882812,0.05726219713687897,-0.14357075095176697
1761507716357399300,1.9263994140625,0.18852175772190094,0.01510003861039877,-0.1666078418493271
1761507716367371000,1.93637109375,0.21011866629123688,-0.01459340937435627,-0.1945374757051468
1761507716377343200,1.94634326171875,0.22969292104244232,-0.02725343592464924,-0.21184435486793518
1761507716387315200,1.956315185546875,0.2460194230079651,-0.03044150397181511,-0.20510150492191315
1761507716397287200,1.966287109375,0.2506416141986847,-0.021531207486987114,-0.18612895905971527
1761507716407259100,1.976259033203125,0.24508731067180634,-0.01922464370727539,-0.15858414769172668
1761507716417231000,1.986231201171875,0.23717674612998962,-0.01715599000453949,-0.1351647526025772
1761507716427204000,1.9962041015625,0.22076581418514252,-0.03135037422180176,-0.11984703689813614
1761507716437176300,2.00617626953125,0.21413478255271912,-0.05157405510544777,-0.11062651872634888
1761507716447148000,2.01614794921875,0.21045055985450745,-0.06779403984546661,-0.10131397843360901
1761507716457120300,2.026120361328125,0.20589232444763184,-0.08543714880943298,-0.08768077939748764
1761507716467092200,2.03609228515625,0.21032941341400146,-0.09765120595693588,-0.06969539076089859
1761507716477064200,2.046064208984375,0.2290446013212204,-0.0982581228017807,-0.04531784728169441
1761507716487036200,2.0560361328125,0.24812588095664978,-0.09171313792467117,-0.016891799867153168
1761507716497008000,2.066008056640625,0.2679018974304199,-0.08841787278652191,0.02724200300872326
1761507716506980000,2.07597998046875,0.2785332500934601,-0.09566646069288254,0.06733588874340057
1761507716516952300,2.085952392578125,0.2775305509567261,-0.101223886013031,0.10399531573057175
1761507716526924000,2.095924072265625,0.26206880807876587,-0.09959004074335098,0.13978952169418335
1761507716536896300,2.105896240234375,0.2231944501399994,-0.08895852416753769,0.1711595356464386
1761507716546868000,2.115867919921875,0.17276376485824585,-0.07111773639917374,0.1938544660806656
1761507716556840200,2.125840087890625,0.12746934592723846,-0.05205145850777626,0.19940496981143951
1761507716566812200,2.135812255859375,0.09507625550031662,-0.02479853294789791,0.19081227481365204
1761507716576784100,2.1457841796875,0.06724486500024796,-0.0017693316331133246,0.1671725958585739
1761507716586756400,2.15575634765625,0.0476653054356575,0.03133056312799454,0.14320814609527588
1761507716596728000,2.16572802734375,0.024985581636428833,0.0440596267580986,0.12429264187812805
1761507716606700300,2.1757001953125,-0.0034149009734392166,0.029919039458036423,0.13164696097373962
1761507716616672000,2.185672119140625,-0.040682606399059296,0.007388066966086626,0.16026756167411804
1761507716626645000,2.19564501953125,-0.09905430674552917,-0.00972806941717863,0.19571822881698608
1761507716636617200,2.2056171875,-0.14546416699886322,-0.059484124183654785,0.1991988569498062
1761507716646589000,2.2155888671875,-0.18723691999912262,-0.11606750637292862,0.17084364593029022
1761507716656561200,2.22556103515625,-0.2262853980064392,-0.1352248340845108,0.11105149984359741
1761507716666533000,2.235533203125,-0.25402194261550903,-0.1123804971575737,0.034648869186639786
1761507716676505000,2.245505126953125,-0.27793461084365845,-0.06627970933914185,-0.0447901152074337
1761507716686477300,2.255477294921875,-0.2938496470451355,-0.023080578073859215,-0.11169484257698059
1761507716696449000,2.265448974609375,-0.3098905682563782,0.013019705191254616,-0.15586335957050323
1761507716706421200,2.275421142578125,-0.32197439670562744,0.04077383875846863,-0.16532796621322632
1761507716716393200,2.285393310546875,-0.3521382212638855,0.05344275385141373,-0.15520721673965454
1761507716726365200,2.295365234375,-0.4062515199184418,0.05009835585951805,-0.13485588133335114
1761507716736337200,2.305337158203125,-0.4546225070953369,0.052622124552726746,-0.12977464497089386
1761507716746309000,2.31530908203125,-0.4860621988773346,0.06429129838943481,-0.13608179986476898
1761507716756281000,2.325281005859375,-0.49019697308540344,0.10473897308111191,-0.15007631480693817
1761507716766253300,2.33525341796875,-0.4692743718624115,0.1697230339050293,-0.16413646936416626
1761507716776225000,2.34522509765625,-0.43216410279273987,0.23170962929725647,-0.16794346272945404
1761507716786197200,2.355197265625,-0.4017721116542816,0.26982560753822327,-0.1683884859085083
1761507716796169000,2.3651689453125,-0.3771708905696869,0.2696041762828827,-0.1722962111234665
1761507716806142200,2.37514208984375,-0.3655445873737335,0.23123149573802948,-0.17591358721256256
1761507716816114200,2.3851142578125,-0.34897342324256897,0.17180612683296204,-0.17457962036132812
1761507716826086100,2.395086181640625,-0.32529765367507935,0.11063358187675476,-0.16630305349826813
1761507716836058000,2.40505810546875,-0.2933441996574402,0.06366635113954544,-0.1443934142589569
1761507716846030300,2.4150302734375,-0.24867366254329681,0.029819970950484276,-0.12060872465372086
1761507716856002000,2.425001953125,-0.19436495006084442,-0.006973532028496265,-0.08163764327764511
1761507716865974300,2.434974365234375,-0.14566372334957123,-0.03537800908088684,-0.03016246296465397
1761507716875946000,2.444946044921875,-0.11569416522979736,-0.04551614075899124,0.030627574771642685
1761507716885918200,2.454918212890625,-0.10118020325899124,-0.04412996396422386,0.10430552065372467
1761507716895890200,2.46489013671875,-0.0958481878042221,-0.03504180163145065,0.17855201661586761
1761507716905862100,2.474862060546875,-0.09388303756713867,-0.027122890576720238,0.24912524223327637
1761507716915834000,2.484834228515625,-0.08203593641519547,-0.02518484741449356,0.31239351630210876
1761507716925806000,2.49480615234375,-0.06414135545492172,-0.021715015172958374,0.3615991473197937
1761507716935778000,2.504778076171875,-0.05062466487288475,-0.022939734160900116,0.3903442621231079
1761507716945750300,2.514750244140625,-0.04214196652173996,-0.026226075366139412,0.3911477327346802
1761507716955722000,2.524721923828125,-0.046010926365852356,-0.04035407304763794,0.3706163465976715
1761507716965694200,2.534694091796875,-0.04888447746634483,-0.047433022409677505,0.33430761098861694
1761507716975666000,2.544666015625,-0.058928173035383224,-0.038529783487319946,0.2852592468261719
1761507716985638100,2.55463818359375,-0.08276212960481644,-0.030974125489592552,0.21206198632717133
1761507716995611100,2.564611083984375,-0.10930021107196808,-0.03590778261423111,0.13073424994945526
1761507717005583000,2.5745830078125,-0.13158155977725983,-0.045922599732875824,0.0443815253674984
1761507717015555000,2.58455517578125,-0.1552296280860901,-0.050203628838062286,-0.04491479694843292
1761507717025527300,2.59452734375,-0.18200264871120453,-0.05082201585173607,-0.12769730389118195
1761507717035499000,2.6044990234375,-0.19332581758499146,-0.043378736823797226,-0.19969578087329865
1761507717045471200,2.61447119140625,-0.1838470995426178,-0.04118562489748001,-0.25933220982551575
1761507717055443000,2.62444287109375,-0.16253186762332916,-0.044108796864748,-0.30478188395500183
1761507717065415200,2.634415283203125,-0.13919831812381744,-0.051591213792562485,-0.3226354420185089
1761507717075387100,2.64438720703125,-0.12271422892808914,-0.044005267322063446,-0.3184289038181305
1761507717085359000,2.654359130859375,-0.11248848587274551,-0.006815822329372168,-0.2902902066707611
1761507717095331000,2.6643310546875,-0.12466498464345932,0.05524435266852379,-0.2545175552368164
1761507717105303000,2.674302978515625,-0.13827641308307648,0.13272902369499207,-0.22267279028892517
1761507717115275300,2.684275146484375,-0.1526242345571518,0.20748750865459442,-0.19101260602474213
1761507717125247200,2.694247314453125,-0.15479923784732819,0.26808640360832214,-0.18069764971733093
1761507717135219200,2.70421923828125,-0.15013544261455536,0.300788551568985,-0.1825578510761261
1761507717145191200,2.714191162109375,-0.1345255970954895,0.3090725839138031,-0.20016402006149292
1761507717155163100,2.7241630859375,-0.12019813805818558,0.2908838987350464,-0.20919269323349
1761507717165135000,2.734135009765625,-0.10180314630270004,0.2609071135520935,-0.20199576020240784
1761507717175107300,2.744107421875,-0.08234080672264099,0.20776277780532837,-0.17932762205600739
1761507717185080000,2.754080078125,-0.0655815377831459,0.1550082117319107,-0.1329159140586853
1761507717195052000,2.764052001953125,-0.050626490265131,0.1035027951002121,-0.07817621529102325
1761507717205024300,2.774024169921875,-0.03631093353033066,0.05689295008778572,-0.020172566175460815
1761507717214996200,2.783996337890625,-0.023265864700078964,0.029782894998788834,0.03253508359193802
1761507717224968200,2.79396826171875,-0.010566049255430698,0.032231405377388,0.07433339953422546
1761507717234940200,2.803940185546875,0.0055046649649739265,0.05453556403517723,0.09149657189846039
1761507717244912000,2.813912109375,0.014739176258444786,0.07939111441373825,0.08987816423177719
1761507717254884400,2.82388427734375,0.023555781692266464,0.11004132032394409,0.07648444920778275
1761507717264856000,2.83385595703125,0.03568781167268753,0.1182987168431282,0.05161505192518234
1761507717274828300,2.843828369140625,0.05047484114766121,0.10004585236310959,0.022284546867012978
1761507717284800000,2.853800048828125,0.07871659845113754,0.059354349970817566,0.003809399902820587
1761507717294772200,2.863772216796875,0.10389703512191772,0.006857743952423334,0.00006985524669289589
1761507717304744200,2.873744140625,0.13586562871932983,-0.055544380098581314,0.012029312551021576
1761507717314716200,2.883716064453125,0.16209620237350464,-0.11572036147117615,0.0408763587474823
1761507717324688100,2.893688232421875,0.17917107045650482,-0.16518379747867584,0.0801025852560997
1761507717334660000,2.90366015625,0.18457628786563873,-0.19621406495571136,0.13170428574085236
1761507717344632000,2.913632080078125,0.17383550107479095,-0.18888504803180695,0.18319010734558105
1761507717354604300,2.923604248046875,0.14442193508148193,-0.14101654291152954,0.21920350193977356
1761507717364577000,2.933576904296875,0.09906511008739471,-0.053255267441272736,0.21936407685279846
1761507717374549200,2.94354931640625,0.04955783486366272,0.04533763974905014,0.19511044025421143
1761507717384521200,2.953521240234375,-0.004917655140161514,0.13858157396316528,0.1499301791191101
1761507717394493200,2.9634931640625,-0.04266782104969025,0.19728794693946838,0.08551473170518875
1761507717404465200,2.973465087890625,-0.05346933379769325,0.22925733029842377,0.03148452192544937
1761507717414437000,2.98343701171875,-0.029312677681446075,0.2304890751838684,-0.005835629068315029
1761507717424409000,2.9934091796875,0.013224398717284203,0.19842541217803955,-0.012285805307328701
1761507717434381300,3.00338134765625,0.07107241451740265,0.15180131793022156,0.013132240623235703
1761507717444353000,3.01335302734375,0.140198215842247,0.0897989422082901,0.06287609785795212
1761507717454325200,3.0233251953125,0.2251109629869461,0.012044653296470642,0.13502812385559082
1761507717464297000,3.033296875,0.32750949263572693,-0.09312011301517487,0.21756960451602936
1761507717474269200,3.043269287109375,0.41659632325172424,-0.19881881773471832,0.290230393409729
1761507717484241200,3.0532412109375,0.4442492723464966,-0.32210293412208557,0.30163484811782837
1761507717494213000,3.063213134765625,0.38800615072250366,-0.4620155990123749,0.22824116051197052
1761507717504185000,3.07318505859375,0.25736716389656067,-0.5889325737953186,0.0752236470580101
1761507717514157000,3.083156982421875,0.08045585453510284,-0.6962342858314514,-0.1318688839673996
1761507717524129300,3.09312939453125,-0.09454658627510071,-0.7541436553001404,-0.34062981605529785
1761507717534101200,3.103101318359375,-0.22099006175994873,-0.7265281081199646,-0.4746716618537903
1761507717544074000,3.113073974609375,-0.2930954098701477,-0.6020165085792542,-0.5077646374702454
1761507717554046200,3.123046142578125,-0.3082103729248047,-0.4035952687263489,-0.41625478863716125
1761507717564018200,3.13301806640625,-0.25376445055007935,-0.12453271448612213,-0.23465223610401154
1761507717573990100,3.142990234375,-0.15284425020217896,0.1760711669921875,-0.008954151533544064
1761507717583961900,3.1529619140625,-0.03572376072406769,0.4143918454647064,0.20921678841114044
1761507717593934000,3.16293408203125,0.06877929717302322,0.5333109498023987,0.386654257774353
1761507717603905800,3.17290576171875,0.14676570892333984,0.5245701670646667,0.5158452987670898
1761507717613878000,3.1828779296875,0.1925676316022873,0.4095592498779297,0.5962051153182983
1761507717623850000,3.19285009765625,0.2262427657842636,0.23209205269813538,0.63044273853302
1761507717633822000,3.202822021484375,0.2553752362728119,0.034702472388744354,0.6294793486595154
1761507717643794200,3.212794189453125,0.283917099237442,-0.1577244997024536,0.6021550297737122
1761507717653766000,3.222765869140625,0.3000085651874542,-0.35042932629585266,0.5626624822616577
1761507717663738000,3.232738037109375,0.3036147356033325,-0.5231795310974121,0.5125188827514648
1761507717673710000,3.2427099609375,0.28640180826187134,-0.6459908485412598,0.46700048446655273
1761507717683682000,3.25268212890625,0.25026699900627136,-0.6898515224456787,0.4171719551086426
1761507717693654000,3.262654052734375,0.19142544269561768,-0.6712282299995422,0.3571518659591675
1761507717703626000,3.2726259765625,0.12369194626808167,-0.5957406759262085,0.27754226326942444
1761507717713598000,3.282597900390625,0.04847763851284981,-0.47075894474983215,0.1820829212665558
1761507717723570200,3.292570068359375,-0.01902896910905838,-0.30431804060935974,0.0784931480884552
1761507717733543000,3.30254296875,-0.07187973707914352,-0.12081672996282578,-0.012779935263097286
1761507717743515100,3.31251513671875,-0.1002727672457695,0.06884560734033585,-0.09593261778354645
1761507717753487000,3.322487060546875,-0.10132883489131927,0.23075240850448608,-0.15530069172382355
1761507717763459000,3.332458984375,-0.07098398357629776,0.33967968821525574,-0.1738767772912979
1761507717773431000,3.34243115234375,-0.00876535102725029,0.3933791220188141,-0.1465173214673996
1761507717783403000,3.352403076171875,0.058292511850595474,0.4155760407447815,-0.10061933845281601
1761507717793375000,3.362375,0.12367697060108185,0.4163017272949219,-0.06191359460353851
1761507717803347200,3.37234716796875,0.17269989848136902,0.40820810198783875,-0.03288513794541359
1761507717813319000,3.38231884765625,0.22076205909252167,0.37477949261665344,-0.011570308357477188
1761507717823291100,3.392291015625,0.2587461769580841,0.32797685265541077,0.007020686287432909
1761507717833262800,3.402262939453125,0.2936617434024811,0.2788781225681305,0.02125185914337635
1761507717843235000,3.412235107421875,0.3172149956226349,0.2179599404335022,0.031688254326581955
1761507717853207000,3.42220703125,0.33005958795547485,0.1783025562763214,0.029011882841587067
1761507717863179000,3.432178955078125,0.32744330167770386,0.1594870686531067,0.011715982109308243
1761507717873151000,3.44215087890625,0.31502971053123474,0.149624302983284,-0.0244681965559721
1761507717883123000,3.452123046875,0.288714200258255,0.1321939080953598,-0.06752964854240417
1761507717893095000,3.462094970703125,0.2533758282661438,0.09668926894664764,-0.12304025888442993
1761507717903067100,3.472067138671875,0.22007113695144653,0.05352848768234253,-0.17031458020210266
1761507717913040000,3.482039794921875,0.1924150288105011,0.009324758313596249,-0.19937138259410858
1761507717923012000,3.49201220703125,0.16820476949214935,-0.030322251841425896,-0.2137860208749771
1761507717932984000,3.501984130859375,0.14748793840408325,-0.06178522855043411,-0.2166731059551239
1761507717942956000,3.5119560546875,0.12797041237354279,-0.07970750331878662,-0.2174704521894455
1761507717952928000,3.521927978515625,0.10721541196107864,-0.08779716491699219,-0.2185654491186142
1761507717962900000,3.53189990234375,0.08222776651382446,-0.09032557159662247,-0.21573159098625183
1761507717972872000,3.541871826171875,0.05267494544386864,-0.08007814735174179,-0.20791342854499817
1761507717982844200,3.55184423828125,0.023039022460579872,-0.05983812361955643,-0.21683740615844727
1761507717992815900,3.56181591796875,0.0012745968997478485,-0.05157380551099777,-0.24572724103927612
1761507718002788000,3.5717880859375,-0.01971244439482689,-0.05770999565720558,-0.30074015259742737
1761507718012759800,3.581759765625,-0.03681955859065056,-0.0626644417643547,-0.36674928665161133
1761507718022732000,3.59173193359375,-0.05050341412425041,-0.05872855335474014,-0.4317932724952698
1761507718032704000,3.6017041015625,-0.0629068985581398,-0.020182829350233078,-0.47267305850982666
1761507718042676000,3.611676025390625,-0.07335741072893143,0.044231582432985306,-0.47876396775245667
1761507718052648200,3.621648193359375,-0.07542414963245392,0.11088163405656815,-0.4572196304798126
1761507718062620000,3.631619873046875,-0.06714385002851486,0.1760939359664917,-0.40960073471069336
1761507718072592100,3.641592041015625,-0.05596892535686493,0.22142162919044495,-0.3444897532463074
1761507718082564000,3.651564208984375,-0.04319320619106293,0.24936990439891815,-0.27659884095191956
1761507718092536800,3.661536865234375,-0.02604914829134941,0.25812408328056335,-0.2283790111541748
1761507718102509000,3.671509033203125,-0.005144929978996515,0.25757840275764465,-0.20538952946662903
1761507718112481000,3.68148095703125,0.007774840574711561,0.25722503662109375,-0.22113721072673798
1761507718122453000,3.691452880859375,0.018157972022891045,0.23845189809799194,-0.2708533704280853
1761507718132425000,3.701425048828125,0.03037620522081852,0.2053036242723465,-0.33045923709869385
1761507718142397000,3.71139697265625,0.032699547708034515,0.1634962558746338,-0.3756197988986969
1761507718152369000,3.721368896484375,0.03118225187063217,0.10751935839653015,-0.40502533316612244
1761507718162341000,3.731341064453125,0.04249189794063568,0.056258562952280045,-0.4084261655807495
1761507718172313000,3.74131298828125,0.05914051830768585,0.02691604010760784,-0.3838871121406555
1761507718182285000,3.75128515625,0.06306575238704681,0.009995912201702595,-0.3415098488330841
1761507718192257000,3.761257080078125,0.05454475060105324,-0.002574037993326783,-0.29428958892822266
1761507718202229000,3.77122900390625,0.041176747530698776,-0.012561424635350704,-0.25472140312194824
1761507718212201200,3.781201171875,0.024062717333436012,-0.022396165877580643,-0.2159736007452011
1761507718222173000,3.7911728515625,0.0016271821223199368,-0.03367864713072777,-0.18811826407909393
1761507718232145200,3.801145263671875,-0.022659581154584885,-0.05806490778923035,-0.16811323165893555
1761507718242116900,3.811116943359375,-0.04283755272626877,-0.10208376497030258,-0.14389950037002563
1761507718252089000,3.821089111328125,-0.056961484253406525,-0.14338482916355133,-0.11501528322696686
1761507718262061000,3.83106103515625,-0.0685741975903511,-0.18196392059326172,-0.07131654024124146
1761507718272034000,3.841033935546875,-0.07469936460256577,-0.20182602107524872,-0.024048740044236183
1761507718282006000,3.851006103515625,-0.086123526096344,-0.20691904425621033,0.029541252180933952
1761507718291978200,3.860978271484375,-0.1043851375579834,-0.20246092975139618,0.07075705379247665
1761507718301950000,3.870949951171875,-0.13548393547534943,-0.19754792749881744,0.11157558858394623
1761507718311922200,3.880922119140625,-0.16422317922115326,-0.19240812957286835,0.1407708376646042
1761507718321894000,3.890893798828125,-0.19071364402770996,-0.18462185561656952,0.15725553035736084
1761507718331866000,3.9008662109375,-0.21857593953609467,-0.17465832829475403,0.1741669923067093
1761507718341838000,3.910838134765625,-0.23550938069820404,-0.15134795010089874,0.1976049393415451
1761507718351810000,3.92081005859375,-0.25764915347099304,-0.11343451589345932,0.22096383571624756
1761507718361782000,3.930781982421875,-0.28513777256011963,-0.04936525598168373,0.2538818120956421
1761507718371754000,3.94075390625,-0.3303709924221039,0.027279512956738472,0.2685645818710327
1761507718381726000,3.950725830078125,-0.3752188980579376,0.056537531316280365,0.26142382621765137
1761507718391698200,3.9606982421875,-0.40631911158561707,0.04440809786319733,0.23282599449157715
1761507718401670000,3.970669921875,-0.42318010330200195,-0.02195681259036064,0.1883341670036316
1761507718411642000,3.98064208984375,-0.4254695773124695,-0.11136417835950851,0.14707495272159576
1761507718421613800,3.99061376953125,-0.4192359149456024,-0.1876741200685501,0.11674288660287857
1761507718431586000,4.0005859375,-0.3912279009819031,-0.2466275542974472,0.10587847232818604
1761507718441558000,4.01055810546875,-0.3550099730491638,-0.2532564401626587,0.10419455170631409
1761507718451530000,4.020530029296875,-0.33303043246269226,-0.20459675788879395,0.09059877693653107
1761507718461502000,4.030501953125,-0.33280885219573975,-0.12253250926733017,0.03026273101568222
1761507718471474000,4.040473876953125,-0.34587937593460083,-0.03178950771689415,-0.056565918028354645
1761507718481446100,4.050446044921875,-0.3731251060962677,0.061934854835271835,-0.1512785702943802
1761507718491418000,4.060418212890625,-0.39816898107528687,0.11881507188081741,-0.23908984661102295
1761507718501390000,4.07039013671875,-0.4161788821220398,0.15071947872638702,-0.31064102053642273
1761507718511362000,4.080362060546875,-0.41863301396369934,0.16506175696849823,-0.3504796326160431
1761507718521334000,4.090333984375,-0.39853331446647644,0.15334118902683258,-0.3575652241706848
1761507718531306000,4.100305908203125,-0.36164340376853943,0.1238374263048172,-0.3241163194179535
1761507718541279000,4.110279052734375,-0.31012001633644104,0.08252274245023727,-0.25013449788093567
1761507718551251000,4.1202509765625,-0.2532155513763428,0.04323263838887215,-0.15019987523555756
1761507718561223000,4.130222900390625,-0.195445716381073,0.010072289034724236,-0.04882744699716568
1761507718571195000,4.14019482421875,-0.14367923140525818,0.0026502637192606926,0.04763511195778847
1761507718581167000,4.1501669921875,-0.10514967143535614,0.014139406383037567,0.12908229231834412
1761507718591138800,4.160138916015625,-0.08062783628702164,0.04565717279911041,0.20329925417900085
1761507718601111000,4.170111083984375,-0.07871968299150467,0.08591191470623016,0.26110583543777466
1761507718611082800,4.180082763671875,-0.09406249970197678,0.1268579512834549,0.3047049641609192
1761507718621055000,4.190054931640625,-0.12418577820062637,0.17081502079963684,0.33685436844825745
1761507718631027000,4.20002685546875,-0.15899045765399933,0.20352457463741302,0.35568028688430786
1761507718640999000,4.2099990234375,-0.19328556954860687,0.2209102213382721,0.358357310295105
1761507718650971000,4.219970947265625,-0.21647033095359802,0.22847072780132294,0.3583948016166687
1761507718660942800,4.22994287109375,-0.22927001118659973,0.22344107925891876,0.35667917132377625
1761507718670914800,4.239914794921875,-0.23020601272583008,0.20253247022628784,0.35900139808654785
1761507718680887000,4.249886962890625,-0.23031866550445557,0.15997302532196045,0.3580711781978607
1761507718690858800,4.259858642578125,-0.22900865972042084,0.11282867193222046,0.3491128087043762
1761507718700831000,4.2698310546875,-0.21918931603431702,0.0500800684094429,0.3273635804653168
1761507718710802700,4.279802734375,-0.19926998019218445,-0.03141613304615021,0.29593873023986816
1761507718720776000,4.28977587890625,-0.1655769944190979,-0.15456576645374298,0.28217631578445435
1761507718730748000,4.299747802734375,-0.11652328073978424,-0.2995518445968628,0.283936470746994
1761507718740719900,4.309719970703125,-0.06941702216863632,-0.42028915882110596,0.30499914288520813
1761507718750691800,4.31969189453125,-0.0510573573410511,-0.49902790784835815,0.31428584456443787
1761507718760664000,4.3296640625,-0.08013081550598145,-0.5250826478004456,0.3000909388065338
1761507718770635800,4.3396357421875,-0.14447525143623352,-0.48708653450012207,0.261914998292923
1761507718780608000,4.34960791015625,-0.21833322942256927,-0.40452319383621216,0.19384564459323883
1761507718790579700,4.359579833984375,-0.2967612147331238,-0.2961695194244385,0.10580979287624359
1761507718800552000,4.369552001953125,-0.36786550283432007,-0.16332359611988068,0.016958747059106827
1761507718810524000,4.37952392578125,-0.42683345079421997,-0.03389710187911987,-0.06350787729024887
1761507718820496000,4.389495849609375,-0.4631240963935852,0.07082158327102661,-0.11479849368333817
1761507718830467800,4.3994677734375,-0.4782736599445343,0.15025511384010315,-0.14152966439723969
1761507718840439800,4.409439697265625,-0.48706236481666565,0.2181106060743332,-0.1527029573917389
1761507718850411800,4.419411865234375,-0.48598942160606384,0.2808508276939392,-0.14332479238510132
1761507718860384000,4.429384033203125,-0.4805475175380707,0.32830917835235596,-0.13557100296020508
1761507718870356000,4.43935595703125,-0.459077924489975,0.3424987494945526,-0.12535564601421356
1761507718880329000,4.449328857421875,-0.4360700845718384,0.32656294107437134,-0.10438032448291779
1761507718890301000,4.459301025390625,-0.40895283222198486,0.28626853227615356,-0.08700308948755264
1761507718900273000,4.46927294921875,-0.38826459646224976,0.24403665959835052,-0.07015673071146011
1761507718910244900,4.479244873046875,-0.3665893077850342,0.1941562443971634,-0.06186336278915405
1761507718920216800,4.489216796875,-0.34728777408599854,0.1559326946735382,-0.06476487964391708
1761507718930188800,4.499188720703125,-0.3278144598007202,0.11103756725788116,-0.07408233731985092
1761507718940161000,4.5091611328125,-0.2983361780643463,0.05201339349150658,-0.08546122908592224
1761507718950132700,4.5191328125,-0.25751230120658875,-0.010669849812984467,-0.09642978757619858
1761507718960105000,4.52910498046875,-0.21123507618904114,-0.06448327749967575,-0.08338083326816559
1761507718970076700,4.53907666015625,-0.17713184654712677,-0.08813858032226562,-0.05783947929739952
1761507718980049000,4.549048828125,-0.15928441286087036,-0.08629753440618515,-0.02643095701932907
1761507718990020900,4.559020751953125,-0.14099417626857758,-0.0719243586063385,-0.002044485416263342
1761507718999992800,4.568992919921875,-0.11844811588525772,-0.048307184129953384,0.0074297101236879826
1761507719009965000,4.578965087890625,-0.09319251030683517,-0.034991633147001266,0.003081909380853176
1761507719019936800,4.588936767578125,-0.06751377880573273,-0.034921057522296906,-0.0018824889557436109
1761507719029909000,4.598908935546875,-0.054273609071969986,-0.02322445623576641,-0.007947837933897972
1761507719039881000,4.608880859375,-0.060759738087654114,-0.007670262828469276,-0.005908922292292118
1761507719049853700,4.618853759765625,-0.06908119469881058,0.0042489515617489815,-0.012537368573248386
1761507719059826000,4.628825927734375,-0.0744919404387474,0.020923802629113197,-0.019430426880717278
1761507719069798000,4.6387978515625,-0.06001325696706772,0.02691727504134178,-0.024569425731897354
1761507719079769900,4.648769775390625,-0.03136616200208664,0.029778573662042618,-0.021764051169157028
1761507719089741800,4.658741943359375,0.0028662714175879955,0.03668493032455444,-0.010687052272260189
1761507719099713800,4.6687138671875,0.024762248620390892,0.051852431148290634,0.008497294969856739
1761507719109686000,4.67868603515625,0.03256170079112053,0.07989975064992905,0.048008114099502563
1761507719119658000,4.688657958984375,0.019165469333529472,0.10929784923791885,0.10719926655292511
1761507719129630000,4.6986298828125,-0.003909648396074772,0.13794614374637604,0.16614456474781036
1761507719139602000,4.708601806640625,-0.03390083461999893,0.16640707850456238,0.20803475379943848
1761507719149574000,4.718573974609375,-0.03612479194998741,0.17484638094902039,0.2291070967912674
1761507719159545900,4.7285458984375,0.0023799906484782696,0.16506405174732208,0.2260732203722
1761507719169518000,4.73851806640625,0.0765407457947731,0.08750101923942566,0.19649115204811096
1761507719179489800,4.74848974609375,0.1361878216266632,-0.07185747474431992,0.14319704473018646
1761507719189462000,4.7584619140625,0.14713943004608154,-0.26223990321159363,0.07628495991230011
1761507719199433700,4.768433837890625,0.1126706674695015,-0.4223155975341797,0.002998495474457741
1761507719209406000,4.778406005859375,0.048349253833293915,-0.5097199082374573,-0.05047230049967766
1761507719219379000,4.78837890625,-0.0306270532310009,-0.5079811215400696,-0.06306719034910202
1761507719229351000,4.798350830078125,-0.12036173045635223,-0.41689223051071167,-0.02576216123998165
1761507719239323000,4.808322998046875,-0.18867526948451996,-0.2456890493631363,0.040415260940790176
1761507719249295000,4.818295166015625,-0.20646092295646667,-0.036280158907175064,0.12418153882026672
1761507719259266800,4.828266845703125,-0.17666921019554138,0.17434285581111908,0.21372739970684052
1761507719269239000,4.838239013671875,-0.10097929835319519,0.3376803696155548,0.2931816577911377
1761507719279210800,4.848210693359375,0.006995372474193573,0.4099268615245819,0.34248101711273193
1761507719289183000,4.858182861328125,0.11854419857263565,0.37105903029441833,0.36508896946907043
1761507719299155000,4.868155029296875,0.21485847234725952,0.24812886118888855,0.3762606680393219
1761507719309127000,4.878126953125,0.29709160327911377,0.06602062284946442,0.37649044394493103
1761507719319099000,4.888098876953125,0.347402960062027,-0.13540144264698029,0.3755069375038147
1761507719329070800,4.89807080078125,0.3587459921836853,-0.31954142451286316,0.36983418464660645
1761507719339042800,4.908042724609375,0.3412940204143524,-0.4463249444961548,0.34857070446014404
1761507719349015000,4.91801513671875,0.3046436011791229,-0.48833099007606506,0.31636908650398254
1761507719358986800,4.92798681640625,0.2608391344547272,-0.428297221660614,0.2524329721927643
1761507719368959000,4.937958984375,0.2196054458618164,-0.2949507534503937,0.15651623904705048
1761507719378932000,4.947931884765625,0.18458408117294312,-0.1150134801864624,0.04465894401073456
1761507719388904000,4.957904052734375,0.14461003243923187,0.0965387150645256,-0.06768837571144104
1761507719398876000,4.9678759765625,0.09947055578231812,0.27207741141319275,-0.15879032015800476
1761507719408848000,4.977847900390625,0.06454029679298401,0.36534494161605835,-0.20626461505889893
1761507719418819800,4.98781982421875,0.0463826023042202,0.38408029079437256,-0.20853576064109802
1761507719428792000,4.9977919921875,0.046795524656772614,0.3488216996192932,-0.16675812005996704
1761507719438763800,5.007763671875,0.047158513218164444,0.2983390986919403,-0.09199519455432892
1761507719448736000,5.017736083984375,0.05863061547279358,0.24750371277332306,-0.01428754162043333
1761507719458707700,5.027707763671875,0.07948370277881622,0.19469189643859863,0.05023152753710747
1761507719468680000,5.037679931640625,0.11160199344158173,0.14918625354766846,0.0920323058962822
1761507719478652000,5.04765185546875,0.14866386353969574,0.11658225208520889,0.12190951406955719
1761507719488623900,5.057623779296875,0.18249987065792084,0.1057526171207428,0.1365981101989746
1761507719498595800,5.067595947265625,0.21040154993534088,0.09987901896238327,0.13045953214168549
1761507719508567800,5.07756787109375,0.22606870532035828,0.07681071758270264,0.10392799973487854
1761507719518540000,5.0875400390625,0.23932085931301117,0.015161203220486641,0.06534092873334885
1761507719528512000,5.097511962890625,0.25279369950294495,-0.05284811556339264,0.01680978201329708
1761507719538484700,5.107484619140625,0.25955280661582947,-0.11786147207021713,-0.028641855344176292
1761507719548457000,5.11745703125,0.2607361972332001,-0.17861172556877136,-0.07164987176656723
1761507719558429000,5.127428955078125,0.24964413046836853,-0.22323991358280182,-0.116759292781353
1761507719568401000,5.13740087890625,0.22771161794662476,-0.25247037410736084,-0.15842752158641815
1761507719578372900,5.147372802734375,0.1962338536977768,-0.2614457607269287,-0.20958897471427917
1761507719588344800,5.1573447265625,0.15615062415599823,-0.2711530029773712,-0.2520240247249603
1761507719598316800,5.16731689453125,0.11255520582199097,-0.2770737409591675,-0.29178130626678467
1761507719608289000,5.1772890625,0.0646127387881279,-0.25741341710090637,-0.31802788376808167
1761507719618260700,5.1872607421875,0.025850163772702217,-0.22331351041793823,-0.330440878868103
1761507719628233000,5.19723291015625,-0.009847408160567284,-0.14750483632087708,-0.31794607639312744
1761507719638205000,5.207204833984375,-0.03165629878640175,-0.046096183359622955,-0.29120126366615295
1761507719648177000,5.217177001953125,-0.048724234104156494,0.04804709181189537,-0.2629435360431671
1761507719658149000,5.227149169921875,-0.05287450551986694,0.12178202718496323,-0.23507516086101532
1761507719668120800,5.237120849609375,-0.04452790319919586,0.15941505134105682,-0.21316340565681458
1761507719678093000,5.247093017578125,-0.02334192395210266,0.16593340039253235,-0.19685660302639008
1761507719688064800,5.257064697265625,0.005001192446798086,0.1618029773235321,-0.17751455307006836
1761507719698037000,5.267037109375,0.04013760760426521,0.14914470911026,-0.15135513246059418
1761507719708010000,5.277010009765625,0.07781098783016205,0.12835997343063354,-0.12583523988723755
1761507719717981700,5.286981689453125,0.11600364744663239,0.09920607507228851,-0.09623367339372635
1761507719727954000,5.296953857421875,0.14514516294002533,0.06395373493432999,-0.07580306380987167
1761507719737926000,5.30692578125,0.16160961985588074,0.025298751890659332,-0.07475164532661438
1761507719747897900,5.31689794921875,0.1636994481086731,-0.02275771275162697,-0.10215310007333755
1761507719757870000,5.3268701171875,0.15911588072776794,-0.06706951558589935,-0.14390480518341064
1761507719767841800,5.336841796875,0.14891228079795837,-0.09532783180475235,-0.19810080528259277
1761507719777814000,5.34681396484375,0.13648784160614014,-0.09914014488458633,-0.23542021214962006
1761507719787786000,5.356785888671875,0.12859229743480682,-0.07425851374864578,-0.25832775235176086
1761507719797758000,5.366758056640625,0.11642272770404816,-0.046170949935913086,-0.2667798101902008
1761507719807730000,5.37672998046875,0.11089904606342316,-0.02955240197479725,-0.25636571645736694
1761507719817702000,5.386701904296875,0.09992895275354385,-0.030324453487992287,-0.23034822940826416
1761507719827673900,5.396673828125,0.09667110443115234,-0.034496936947107315,-0.1923014372587204
1761507719837645800,5.406645751953125,0.09409742057323456,-0.03583970293402672,-0.15250103175640106
1761507719847617800,5.41661767578125,0.09818107634782791,-0.033939704298973083,-0.10908260196447372
1761507719857590000,5.426590087890625,0.10382404923439026,-0.029511401429772377,-0.07366415858268738
1761507719867562800,5.436562744140625,0.10901563614606857,-0.03343944996595383,-0.042089659720659256
1761507719877535000,5.446534912109375,0.11909383535385132,-0.04761678725481033,-0.007648061960935593
1761507719887507000,5.4565068359375,0.1321924775838852,-0.06624775379896164,0.022544842213392258
1761507719897479000,5.46647900390625,0.14318574965000153,-0.08340969681739807,0.060151875019073486
1761507719907451000,5.476450927734375,0.14321407675743103,-0.08900071680545807,0.09848902374505997
1761507719917422800,5.4864228515625,0.13637028634548187,-0.08129752427339554,0.12568363547325134
1761507719927394800,5.496394775390625,0.1141228899359703,-0.0641595795750618,0.14590372145175934
1761507719937367000,5.506366943359375,0.07757632434368134,-0.045002132654190063,0.15810418128967285
1761507719947338800,5.5163388671875,0.03472314774990082,-0.01978428289294243,0.15190374851226807
1761507719957311000,5.52631103515625,-0.012483511120080948,0.006782879587262869,0.14349429309368134
1761507719967282700,5.53628271484375,-0.052757881581783295,0.034299690276384354,0.13819082081317902
1761507719977255000,5.5462548828125,-0.09167971462011337,0.048510316759347916,0.13064076006412506
1761507719987227000,5.556226806640625,-0.11937525868415833,0.055339034646749496,0.1259203851222992
1761507719997198800,5.56619873046875,-0.14400950074195862,0.05597526207566261,0.1272682100534439
1761507720007170800,5.5761708984375,-0.1618959903717041,0.0593058280646801,0.135718435049057
1761507720017142800,5.586142822265625,-0.1802012324333191,0.07304534316062927,0.15114134550094604
1761507720027114800,5.59611474609375,-0.20657116174697876,0.09295090287923813,0.1482042521238327
1761507720037088000,5.606087890625,-0.2548089921474457,0.11746450513601303,0.11598318815231323
1761507720047059700,5.616059814453125,-0.3102797269821167,0.11323657631874084,0.03590879589319229
1761507720057032000,5.626031982421875,-0.35976019501686096,0.07093839347362518,-0.07400412857532501
1761507720067004000,5.63600390625,-0.4010404348373413,-0.004915342666208744,-0.1857740432024002
1761507720076975900,5.645975830078125,-0.4366338551044464,-0.1015915498137474,-0.28129842877388
1761507720086947800,5.65594775390625,-0.4619734585285187,-0.16823139786720276,-0.3331283926963806
1761507720096919800,5.665919921875,-0.47180983424186707,-0.18105290830135345,-0.3434947431087494
1761507720106891800,5.675891845703125,-0.4632459878921509,-0.1623004823923111,-0.31847843527793884
1761507720116864000,5.685864013671875,-0.43362924456596375,-0.10462360829114914,-0.26205509901046753
1761507720126835700,5.695835693359375,-0.3911727964878082,-0.017791233956813812,-0.19463668763637543
1761507720136808000,5.705807861328125,-0.34982535243034363,0.08871550858020782,-0.1325107365846634
1761507720146779600,5.715779541015625,-0.31606432795524597,0.1755167841911316,-0.08997276425361633
1761507720156752000,5.725751953125,-0.28824469447135925,0.23002396523952484,-0.0620226189494133
1761507720166723800,5.735723876953125,-0.265645831823349,0.24842242896556854,-0.04470698535442352
1761507720176695800,5.74569580078125,-0.24490110576152802,0.23111508786678314,-0.03525036573410034
1761507720186668000,5.75566796875,-0.22889110445976257,0.2051921784877777,-0.03978816419839859
1761507720196641000,5.76564111328125,-0.20741909742355347,0.1986141800880432,-0.05969129875302315
1761507720206612700,5.77561279296875,-0.17561209201812744,0.1906275749206543,-0.07451756298542023
1761507720216585000,5.7855849609375,-0.13848017156124115,0.16719920933246613,-0.07375883311033249
1761507720226556700,5.795556640625,-0.09946902096271515,0.13505364954471588,-0.04437993839383125
1761507720236529000,5.80552880859375,-0.07224885374307632,0.10171620547771454,-0.00030462327413260937
1761507720246500900,5.8155009765625,-0.06997747719287872,0.07890206575393677,0.03753635659813881
1761507720256472800,5.825472900390625,-0.08797139674425125,0.05845937877893448,0.05390147864818573
1761507720266444800,5.83544482421875,-0.10410922020673752,0.029713565483689308,0.06020208075642586
1761507720276416800,5.845416748046875,-0.10742246359586716,-0.010065272450447083,0.07952917367219925
1761507720286389000,5.855388916015625,-0.10535068064928055,-0.025542106479406357,0.11510204523801804
1761507720296361000,5.86536083984375,-0.10461298376321793,-0.006982270162552595,0.16750799119472504
1761507720306333000,5.8753330078125,-0.11730416119098663,0.04795658215880394,0.22536081075668335
1761507720316305000,5.885304931640625,-0.13781343400478363,0.11815564334392548,0.2869325578212738
1761507720326276900,5.89527685546875,-0.16435390710830688,0.18433557450771332,0.3353481888771057
1761507720336248800,5.905248779296875,-0.1762760877609253,0.2343289703130722,0.3673876225948334
1761507720346221000,5.915220947265625,-0.17526623606681824,0.2585383951663971,0.3737342357635498
1761507720356192800,5.92519287109375,-0.1650833785533905,0.2499704658985138,0.34734922647476196
1761507720366165800,5.935165771484375,-0.14950481057167053,0.19622671604156494,0.30024340748786926
1761507720376138000,5.945137939453125,-0.14302879571914673,0.11990239471197128,0.23286810517311096
1761507720386110000,5.95510986328125,-0.15008392930030823,0.043656859546899796,0.16331875324249268
1761507720396082000,5.96508203125,-0.17144860327243805,-0.01704324036836624,0.0983852818608284
1761507720406054000,5.975053955078125,-0.18178947269916534,-0.05890047922730446,0.0502193346619606
1761507720416025900,5.98502587890625,-0.17707568407058716,-0.07109242677688599,0.009511854499578476
1761507720425998000,5.994998046875,-0.15358246862888336,-0.06321530044078827,-0.007455839309841394
1761507720435969800,6.0049697265625,-0.11424676328897476,-0.07080184668302536,-0.01177122537046671
1761507720445942000,6.01494189453125,-0.07383113354444504,-0.10501924902200699,-0.009174918755888939
1761507720455913700,6.024913818359375,-0.038232654333114624,-0.15805263817310333,-0.00831019040197134
1761507720465886000,6.034885986328125,-0.012351405806839466,-0.21578510105609894,-0.004183384124189615
1761507720475858000,6.04485791015625,-0.008114582858979702,-0.27058547735214233,-0.012158220633864403
1761507720485830000,6.054829833984375,-0.010908929631114006,-0.3106866180896759,-0.022722940891981125
1761507720495801900,6.0648017578125,-0.02874438464641571,-0.31506434082984924,-0.033854689449071884
1761507720505773800,6.07477392578125,-0.056410059332847595,-0.2834399938583374,-0.043619900941848755
1761507720515745800,6.084745849609375,-0.08786998689174652,-0.21669934689998627,-0.04971640929579735
1761507720525718000,6.094718017578125,-0.1139804944396019,-0.12160858511924744,-0.04205717891454697
1761507720535690800,6.104690673828125,-0.12972883880138397,-0.018224665895104408,-0.02493012137711048
1761507720545663000,6.1146630859375,-0.12751656770706177,0.0689622163772583,0.0025895191356539726
1761507720555635000,6.124635009765625,-0.10932904481887817,0.11177998781204224,0.03153035789728165
1761507720565607000,6.13460693359375,-0.09003978222608566,0.11537545919418335,0.057842303067445755
1761507720575579400,6.144579345703125,-0.07734902203083038,0.10480377823114395,0.07540478557348251
1761507720585551600,6.154551513671875,-0.0629197359085083,0.0875292420387268,0.07704617083072662
1761507720595523600,6.164523681640625,-0.05081939697265625,0.05860491469502449,0.07218856364488602
1761507720605495600,6.17449560546875,-0.0293588824570179,0.028025532141327858,0.05898261070251465
1761507720615467500,6.184467529296875,-0.008138016797602177,-0.0065313782542943954,0.03894871473312378
1761507720625439500,6.194439453125,0.01522861048579216,-0.03156082332134247,0.02235144004225731
1761507720635411500,6.204411376953125,0.037931524217128754,-0.03956841677427292,0.031586483120918274
1761507720645383700,6.2143837890625,0.04778369143605232,-0.019844282418489456,0.05140448361635208
1761507720655355400,6.22435546875,0.05023246631026268,0.001222918275743723,0.07832743972539902
1761507720665327600,6.23432763671875,0.05149751901626587,0.027907801792025566,0.10731576383113861
1761507720675299300,6.24429931640625,0.05668935179710388,0.0615248866379261,0.11959373205900192
1761507720685271600,6.254271484375,0.061344023793935776,0.06953620165586472,0.11060929298400879
1761507720695244500,6.26424462890625,0.06264445185661316,0.0765184760093689,0.08338885754346848
1761507720705216500,6.274216552734375,0.060854777693748474,0.08824271708726883,0.041821762919425964
1761507720715188500,6.2841884765625,0.05459155514836311,0.1013561263680458,-0.006509017664939165
1761507720725160700,6.29416064453125,0.053117215633392334,0.1130603477358818,-0.038346245884895325
1761507720735132400,6.30413232421875,0.05029000714421272,0.12269992381334305,-0.06512726098299026
1761507720745104600,6.314104736328125,0.04158022254705429,0.13359136879444122,-0.07648500800132751
1761507720755076400,6.324076416015625,0.04204867035150528,0.1429569125175476,-0.07741392403841019
1761507720765048600,6.334048583984375,0.05770071595907211,0.15540091693401337,-0.06515530496835709
1761507720775020500,6.3440205078125,0.08506841957569122,0.17166990041732788,-0.0395391583442688
1761507720784992500,6.353992431640625,0.11533001810312271,0.1934220939874649,-0.005789688788354397
1761507720794964500,6.363964599609375,0.13918901979923248,0.23695412278175354,0.016473272815346718
1761507720804936400,6.3739365234375,0.13977918028831482,0.3072241246700287,-0.0036552317906171083
1761507720814908400,6.383908447265625,0.11977990716695786,0.3925536870956421,-0.0778767317533493
1761507720824880600,6.393880615234375,0.08642078191041946,0.4536263346672058,-0.1931920349597931
1761507720834852400,6.403852294921875,0.0652712881565094,0.4890975058078766,-0.30594998598098755
1761507720844824600,6.413824462890625,0.05985153838992119,0.46169599890708923,-0.3765558898448944
1761507720854796300,6.42379638671875,0.08300746232271194,0.36621901392936707,-0.39159664511680603
1761507720864769500,6.43376953125,0.1555318385362625,0.24653197824954987,-0.34252163767814636
1761507720874741500,6.443741455078125,0.26780563592910767,0.1246393695473671,-0.24651174247264862
1761507720884713500,6.45371337890625,0.4066263735294342,0.019908050075173378,-0.1165454089641571
1761507720894685400,6.463685546875,0.5393298268318176,-0.05704239010810852,0.021051064133644104
1761507720904657700,6.47365771484375,0.6294456720352173,-0.09057300537824631,0.13970230519771576
1761507720914629400,6.48362939453125,0.6692322492599487,-0.09565378725528717,0.2161821722984314
1761507720924601600,6.4936015625,0.6819013357162476,-0.10885722935199738,0.252756804227829
1761507720934573300,6.5035732421875,0.6890729665756226,-0.13452796638011932,0.24564215540885925
1761507720944545500,6.513545654296875,0.6817044615745544,-0.17977674305438995,0.19262458384037018
1761507720954517500,6.523517578125,0.6538448929786682,-0.2437719702720642,0.10503268986940384
1761507720964489500,6.533489501953125,0.596649169921875,-0.3112984001636505,-0.030686192214488983
1761507720974461400,6.54346142578125,0.5203799605369568,-0.36712437868118286,-0.16247963905334473
1761507720984433400,6.553433349609375,0.4442031979560852,-0.3961832821369171,-0.2553136348724365
1761507720994405600,6.563405517578125,0.3733058571815491,-0.39077892899513245,-0.27113601565361023
1761507721004377600,6.573377685546875,0.31461217999458313,-0.3471300005912781,-0.20215481519699097
1761507721014349600,6.583349609375,0.27002501487731934,-0.2301197499036789,-0.0707363411784172
1761507721024321500,6.593321533203125,0.23482519388198853,-0.053798314183950424,0.09230883419513702
1761507721034294500,6.60329443359375,0.2267102748155594,0.1506195366382599,0.24981217086315155
1761507721044266500,6.6132666015625,0.26166918873786926,0.329569011926651,0.373896986246109
1761507721054238500,6.623238525390625,0.3291268050670624,0.4257061779499054,0.44518980383872986
1761507721064210400,6.63321044921875,0.4152212142944336,0.41039344668388367,0.47847068309783936
1761507721074182400,6.643182373046875,0.5046520233154297,0.3064441680908203,0.4850665330886841
1761507721084154600,6.653154541015625,0.5726496577262878,0.1538459211587906,0.48085862398147583
1761507721094126300,6.663126220703125,0.6018714904785156,-0.01805313490331173,0.4807734191417694
1761507721104098600,6.6730986328125,0.5928184986114502,-0.1863710582256317,0.4775276482105255
1761507721114070500,6.683070556640625,0.551956295967102,-0.3366662859916687,0.4667527675628662
1761507721124042500,6.69304248046875,0.4592892527580261,-0.4443497359752655,0.43241873383522034
1761507721134014700,6.7030146484375,0.3331685960292816,-0.4882732629776001,0.3583815395832062
1761507721143986400,6.712986328125,0.20593057572841644,-0.47944653034210205,0.24503083527088165
1761507721153958700,6.722958740234375,0.11511971056461334,-0.41179102659225464,0.10169844329357147
1761507721163930400,6.732930419921875,0.06013348698616028,-0.3054766058921814,-0.04882679879665375
1761507721173902600,6.742902587890625,0.02499467507004738,-0.17204241454601288,-0.18086019158363342
1761507721183874600,6.75287451171875,-0.0047776163555681705,-0.037279482930898666,-0.2803468406200409
1761507721193846500,6.762846435546875,-0.020743532106280327,0.06983791291713715,-0.32546132802963257
1761507721203819500,6.772819580078125,-0.021904751658439636,0.13176539540290833,-0.31286540627479553
1761507721213791500,6.78279150390625,-0.009367121383547783,0.1524735987186432,-0.26256468892097473
1761507721223763500,6.792763427734375,0.013705400750041008,0.1466272622346878,-0.188277006149292
1761507721233735700,6.802735595703125,0.0439423993229866,0.13386939465999603,-0.11359531432390213
1761507721243707400,6.812707275390625,0.08299704641103745,0.12864872813224792,-0.04042791575193405
1761507721253679600,6.8226796875,0.12633439898490906,0.11780699342489243,0.01245287898927927
1761507721263651600,6.832651611328125,0.16472017765045166,0.08397447317838669,0.05618419125676155
1761507721273623600,6.84262353515625,0.20035408437252045,0.019330767914652824,0.08795596659183502
1761507721283595500,6.852595458984375,0.22683928906917572,-0.0608232282102108,0.11340149492025375
1761507721293567500,6.8625673828125,0.23156027495861053,-0.14826279878616333,0.12537932395935059
1761507721303539500,6.87253955078125,0.2144412398338318,-0.2280992567539215,0.12126947939395905
1761507721313511700,6.88251171875,0.18912363052368164,-0.28867897391319275,0.09246712923049927
1761507721323483400,6.8924833984375,0.15612439811229706,-0.30923697352409363,0.045926522463560104
1761507721333455600,6.90245556640625,0.11005011200904846,-0.29878857731819153,-0.003600551513954997
1761507721343427300,6.91242724609375,0.0576024167239666,-0.26311343908309937,-0.05529109016060829
1761507721353399600,6.922399658203125,0.006238830741494894,-0.20523126423358917,-0.10570792853832245
1761507721363372500,6.93237255859375,-0.04970688372850418,-0.11825095862150192,-0.14285506308078766
1761507721373344500,6.942344482421875,-0.10064703226089478,-0.030208181589841843,-0.1796754002571106
1761507721383316500,6.95231640625,-0.14223699271678925,0.021004583686590195,-0.2243928462266922
1761507721393288700,6.962288818359375,-0.1670539230108261,0.03667116165161133,-0.26028773188591003
1761507721403260400,6.972260498046875,-0.18202894926071167,0.02526477351784706,-0.28973913192749023
1761507721413232600,6.982232666015625,-0.19866226613521576,0.0071861702017486095,-0.3066834807395935
1761507721423204400,6.992204345703125,-0.217946395277977,-0.01633426547050476,-0.3027031123638153
1761507721433176600,7.002176513671875,-0.2490963190793991,-0.04877503216266632,-0.2999081313610077
1761507721443148500,7.0121484375,-0.2901655435562134,-0.07569198310375214,-0.3041324317455292
1761507721453120500,7.02212060546875,-0.3342973291873932,-0.10584110021591187,-0.3248544931411743
1761507721463092500,7.032092529296875,-0.3741702735424042,-0.12383349239826202,-0.35714900493621826
1761507721473064400,7.042064453125,-0.38967466354370117,-0.10677248239517212,-0.39703091979026794
1761507721483036400,7.052036376953125,-0.37097886204719543,-0.03421607241034508,-0.4235294759273529
1761507721493008600,7.062008544921875,-0.3242241442203522,0.061359185725450516,-0.43924105167388916
1761507721502980400,7.07198046875,-0.2641637325286865,0.1550876498222351,-0.4429418444633484
1761507721512952600,7.08195263671875,-0.1991053819656372,0.21867221593856812,-0.4380219280719757
1761507721522924500,7.091924560546875,-0.14533518254756927,0.23728716373443604,-0.41219326853752136
1761507721532897500,7.1018974609375,-0.11392639577388763,0.21774861216545105,-0.3772669732570648
1761507721542869500,7.111869384765625,-0.09429636597633362,0.19116619229316711,-0.33389565348625183
1761507721552841500,7.121841552734375,-0.07510189712047577,0.16626083850860596,-0.28334805369377136
1761507721562813400,7.1318134765625,-0.057158760726451874,0.1596183031797409,-0.22638121247291565
1761507721572785400,7.141785400390625,-0.03510352596640587,0.14495573937892914,-0.17444796860218048
1761507721582757000,7.151757080078125,-0.015863822773098946,0.10239026695489883,-0.13048358261585236
1761507721592729300,7.161729248046875,0.00926443375647068,0.049796562641859055,-0.0957929864525795
1761507721602701300,7.171701416015625,0.03942618519067764,-0.005741029046475887,-0.07282572239637375
1761507721612673300,7.18167333984375,0.0642780065536499,-0.05357779189944267,-0.06636995077133179
1761507721622645500,7.1916455078125,0.08341649174690247,-0.08896322548389435,-0.06398916244506836
1761507721632617200,7.2016171875,0.08975614607334137,-0.10464844852685928,-0.07620108872652054
1761507721642589400,7.21158935546875,0.07901408523321152,-0.10053443163633347,-0.08736683428287506
1761507721652561200,7.22156103515625,0.060185275971889496,-0.09102801233530045,-0.09499146789312363
1761507721662533400,7.231533447265625,0.04655133932828903,-0.0806955099105835,-0.10266999900341034
1761507721672505300,7.24150537109375,0.036934129893779755,-0.05654064193367958,-0.1032809317111969
1761507721682477300,7.251477294921875,0.037619296461343765,-0.03357376530766487,-0.10014354437589645
1761507721692449300,7.26144921875,0.042603667825460434,-0.02419118396937847,-0.0921466052532196
1761507721702422300,7.27142236328125,0.05392508581280708,-0.02595232054591179,-0.07165350764989853
1761507721712394200,7.281394287109375,0.06346213072538376,-0.03614317253232002,-0.03673573583364487
1761507721722366200,7.2913662109375,0.06621423363685608,-0.036232657730579376,0.014249826781451702
1761507721732338200,7.301338134765625,0.05410430580377579,-0.030460257083177567,0.0659087598323822
1761507721742310400,7.311310302734375,0.027473201975226402,-0.025394126772880554,0.10386510193347931
1761507721752282400,7.321282470703125,-0.01273360662162304,-0.022529365494847298,0.11774097383022308
1761507721762254300,7.33125439453125,-0.058027900755405426,-0.02294435165822506,0.10657547414302826
1761507721772226300,7.341226318359375,-0.10599489510059357,-0.01898076944053173,0.08098356425762177
1761507721782198300,7.3511982421875,-0.1476585865020752,-0.01260710321366787,0.05419538915157318
1761507721792170200,7.361170166015625,-0.18818336725234985,-0.00013658544048666954,0.02976514771580696
1761507721802142500,7.371142578125,-0.21337389945983887,0.021585920825600624,0.0018660147907212377
1761507721812114200,7.3811142578125,-0.22619116306304932,0.013632657937705517,-0.014818955212831497
1761507721822086400,7.39108642578125,-0.2212342470884323,0.0042454893700778484,-0.020568929612636566
1761507721832058000,7.40105810546875,-0.20231488347053528,-0.0037586414255201817,-0.0008024154230952263
1761507721842030300,7.4110302734375,-0.1916009485721588,-0.007883603684604168,0.038181155920028687
1761507721852002000,7.421001953125,-0.1904086470603943,-0.016921840608119965,0.09546174854040146
1761507721861975300,7.430975341796875,-0.1973489373922348,-0.030547654256224632,0.149886354804039
1761507721871947300,7.440947265625,-0.20325742661952972,-0.0419052392244339,0.1944223940372467
1761507721881919200,7.450919189453125,-0.2119162529706955,-0.04928972199559212,0.21384242177009583
1761507721891891200,7.46089111328125,-0.21494905650615692,-0.05233371630311012,0.2128751575946808
1761507721901863400,7.470863525390625,-0.21225605905056,-0.051286980509757996,0.1920049488544464
1761507721911835100,7.480835205078125,-0.20272566378116608,-0.08002941310405731,0.1515294313430786
1761507721921807400,7.490807373046875,-0.19082117080688477,-0.14403782784938812,0.0989479050040245
1761507721931779000,7.500779052734375,-0.18287962675094604,-0.19156032800674438,0.046521708369255066
1761507721941751300,7.510751220703125,-0.19256581366062164,-0.2091236114501953,-0.004275159444659948
1761507721951723300,7.52072314453125,-0.2197084277868271,-0.20537550747394562,-0.038167137652635574
1761507721961695200,7.5306953125,-0.2334335893392563,-0.20534415543079376,-0.0390244759619236
1761507721971667200,7.540667236328125,-0.24743834137916565,-0.1702282428741455,-0.011977944523096085
1761507721981639200,7.55063916015625,-0.2588193416595459,-0.0840754583477974,0.032483331859111786
1761507721991611100,7.560611083984375,-0.27706199884414673,0.030494265258312225,0.06941285729408264
1761507722001583400,7.570583251953125,-0.2939010262489319,0.1682632863521576,0.09390371292829514
1761507722011555000,7.58055517578125,-0.29920047521591187,0.29222652316093445,0.0903657004237175
1761507722021528300,7.5905283203125,-0.29488447308540344,0.3730165958404541,0.07205948978662491
1761507722031500300,7.600500244140625,-0.2719882130622864,0.4117347002029419,0.03505220636725426
1761507722041472300,7.61047216796875,-0.24336987733840942,0.4094845950603485,-0.015597655437886715
1761507722051444200,7.6204443359375,-0.22153940796852112,0.3787679672241211,-0.06936980783939362
1761507722061416200,7.630416259765625,-0.19863423705101013,0.3318486213684082,-0.13103140890598297
1761507722071388200,7.64038818359375,-0.16791175305843353,0.2764711081981659,-0.1772250086069107
1761507722081360400,7.6503603515625,-0.12574774026870728,0.2165491133928299,-0.19993869960308075
1761507722091332000,7.66033203125,-0.08182768523693085,0.14137579500675201,-0.1957647204399109
1761507722101304300,7.67030419921875,-0.0288558229804039,0.05218721926212311,-0.1670781522989273
1761507722111276000,7.680276123046875,0.021523993462324142,-0.033693332225084305,-0.12218817323446274
1761507722121248300,7.690248291015625,0.0722426101565361,-0.10831323266029358,-0.07477398216724396
1761507722131220200,7.70022021484375,0.11709530651569366,-0.1581529676914215,-0.027868254110217094
1761507722141192200,7.710192138671875,0.15694043040275574,-0.17760740220546722,0.011462164111435413
1761507722151164400,7.720164306640625,0.18414781987667084,-0.18535080552101135,0.038331061601638794
1761507722161136000,7.73013623046875,0.19997632503509521,-0.19113865494728088,0.04430906102061272
1761507722171108400,7.7401083984375,0.20589599013328552,-0.20247280597686768,0.037623461335897446
1761507722181081300,7.750081298828125,0.206934854388237,-0.21435894072055817,0.026866810396313667
1761507722191053000,7.760052978515625,0.18301859498023987,-0.2266307920217514,0.024973569437861443
1761507722201025300,7.770025390625,0.13633356988430023,-0.21363450586795807,0.0336063876748085
1761507722210997200,7.779997314453125,0.06710471212863922,-0.16216306388378143,0.037282347679138184
1761507722220969200,7.78996923828125,-0.0126059390604496,-0.06738076359033585,0.03457022085785866
1761507722230941200,7.799941162109375,-0.08130057901144028,0.04141203314065933,0.0027129570953547955
1761507722240913200,7.8099130859375,-0.12868180871009827,0.15138228237628937,-0.04294697195291519
1761507722250885400,7.819885498046875,-0.15409955382347107,0.25122418999671936,-0.09252597391605377
1761507722260857300,7.829857421875,-0.1613723635673523,0.32667773962020874,-0.13267825543880463
1761507722270829300,7.839829345703125,-0.1498374044895172,0.37744423747062683,-0.1362687200307846
1761507722280801300,7.84980126953125,-0.12308486551046371,0.3806459605693817,-0.09750287979841232
1761507722290773200,7.859773193359375,-0.1015915498137474,0.35060521960258484,-0.011391695588827133
1761507722300745200,7.8697451171875,-0.08159921318292618,0.2991888225078583,0.10402365028858185
1761507722310717400,7.879717529296875,-0.07177720963954926,0.2120339274406433,0.22327733039855957
1761507722320689200,7.889689208984375,-0.07030674070119858,0.10474468022584915,0.3264715373516083
1761507722330661400,7.899661376953125,-0.0668712630867958,-0.006875597406178713,0.3987705111503601
1761507722340633000,7.909633056640625,-0.046023815870285034,-0.08559651672840118,0.44212788343429565
1761507722350606000,7.919606201171875,-0.030492793768644333,-0.11461858451366425,0.45089074969291687
1761507722360578300,7.929578369140625,-0.018903296440839767,-0.11352845281362534,0.41279128193855286
1761507722370550300,7.93955029296875,-0.011039248667657375,-0.09669141471385956,0.32592350244522095
1761507722380522200,7.949522216796875,0.002365410327911377,-0.07882987707853317,0.2045736163854599
1761507722390494500,7.959494384765625,0.004082350060343742,-0.07572436332702637,0.06425432115793228
1761507722400466200,7.969466064453125,0.0074245501309633255,-0.06565012037754059,-0.05185745656490326
1761507722410438400,7.9794384765625,0.011754583567380905,-0.041213490068912506,-0.1310787796974182
1761507722420410000,7.98941015625,0.021772807464003563,-0.029411805793642998,-0.159221351146698
1761507722430382300,7.99938232421875,0.03299430385231972,-0.01293562725186348,-0.1457257717847824
1761507722440354300,8.009354248046876,0.039757829159498215,-0.0014918862143531442,-0.10582359880208969
1761507722450326300,8.019326171875,0.0571136474609375,0.005260026082396507,-0.04590221121907234
1761507722460298200,8.02929833984375,0.07006753981113434,0.0015941339079290628,0.0053402129560709
1761507722470270200,8.039270263671876,0.08074948191642761,-0.0018472028896212578,0.05731659382581711
1761507722480242200,8.0492421875,0.09002240747213364,0.002379992511123419,0.09070552885532379
1761507722490214400,8.05921435546875,0.10428284108638763,0.02623605728149414,0.117439404129982
1761507722500186000,8.06918603515625,0.11475832015275955,0.04257965087890625,0.1277894228696823
1761507722510159400,8.079159423828125,0.12549111247062683,0.046641238033771515,0.13337913155555725
1761507722520131300,8.08913134765625,0.13919509947299957,0.05337266996502876,0.14414213597774506
1761507722530103300,8.099103271484376,0.15068557858467102,0.07168163359165192,0.16722428798675537
1761507722540075300,8.1090751953125,0.16530805826187134,0.08927375823259354,0.1943373680114746
1761507722550047200,8.119047119140625,0.1703622043132782,0.09045113623142242,0.21109157800674438
1761507722560019200,8.129019287109376,0.15949615836143494,0.07194066792726517,0.20256857573986053
1761507722569991400,8.138991455078125,0.12950895726680756,0.04223097115755081,0.17686747014522552
1761507722579963100,8.148963134765625,0.09586280584335327,0.02458896115422249,0.136091411113739
1761507722589935000,8.15893505859375,0.06207341328263283,0.009961281903088093,0.09135722368955612
1761507722599907000,8.168906982421875,0.03906182572245598,-0.020631888881325722,0.03670789301395416
1761507722609879300,8.17887939453125,0.028275491669774055,-0.04854288324713707,-0.003853381145745516
1761507722619851000,8.18885107421875,0.01826534792780876,-0.06813173741102219,-0.033541932702064514
1761507722629823200,8.1988232421875,0.012679634615778923,-0.06068500503897667,-0.045573294162750244
1761507722639795000,8.208794921875,0.0071869813837111,-0.02484991028904915,-0.04971708357334137
1761507722649767200,8.21876708984375,0.010139361955225468,0.02881092205643654,-0.04718734696507454
1761507722659739100,8.2287392578125,0.030843481421470642,0.06726305931806564,-0.041681479662656784
1761507722669711000,8.238711181640625,0.07130994647741318,0.06743829697370529,-0.033322617411613464
1761507722679684000,8.24868408203125,0.11939869821071625,0.03895963355898857,-0.015028679743409157
1761507722689656000,8.258656005859375,0.15977436304092407,-0.00048444466665387154,0.014237862080335617
1761507722699628000,8.2686279296875,0.1884383261203766,-0.03527931496500969,0.050536975264549255
1761507722709600300,8.278600341796874,0.19840627908706665,-0.03806045278906822,0.08534395694732666
1761507722719572000,8.288572021484375,0.184801384806633,-0.014230409637093544,0.11307874321937561
1761507722729544200,8.298544189453125,0.15516680479049683,0.02418968454003334,0.11863729357719421
1761507722739516000,8.308515869140624,0.1238253116607666,0.06264230608940125,0.09971198439598083
1761507722749488000,8.318488037109375,0.10530569404363632,0.1011044830083847,0.07137595117092133
1761507722759460000,8.328460205078125,0.10750146210193634,0.1499454230070114,0.04038321599364281
1761507722769432000,8.33843212890625,0.12913857400417328,0.17465315759181976,0.01053371001034975
1761507722779404300,8.348404296875,0.18496234714984894,0.17110095918178558,-0.002646027598530054
1761507722789376000,8.3583759765625,0.2688758671283722,0.1381043940782547,0.006581292953342199
1761507722799348200,8.36834814453125,0.3751417398452759,0.09713467210531235,0.04037157818675041
1761507722809320200,8.3783203125,0.4929884970188141,0.018040120601654053,0.08892553299665451
1761507722819292200,8.388292236328125,0.6004189252853394,-0.11153382807970047,0.16018547117710114
1761507722829264100,8.39826416015625,0.6526200771331787,-0.28232210874557495,0.2225322127342224
1761507722839238100,8.408238037109374,0.6412060260772705,-0.46195900440216064,0.26111796498298645
1761507722849210000,8.418210205078125,0.5740205645561218,-0.6056488156318665,0.26312705874443054
1761507722859182000,8.42818212890625,0.4844723343849182,-0.6676504015922546,0.23599131405353546
1761507722869154300,8.438154296875,0.373235821723938,-0.6298473477363586,0.18874098360538483
1761507722879126000,8.4481259765625,0.26989883184432983,-0.4659462869167328,0.1447468400001526
1761507722889098200,8.45809814453125,0.19055208563804626,-0.19365404546260834,0.11450716853141785
1761507722899070000,8.468070068359374,0.1602628380060196,0.11497638374567032,0.11520715802907944
1761507722909042200,8.478042236328125,0.1800123006105423,0.38311249017715454,0.14638319611549377
1761507722919014100,8.48801416015625,0.24163134396076202,0.5514733195304871,0.20092830061912537
1761507722928986000,8.497986083984374,0.31801319122314453,0.6034834980964661,0.280271053314209
1761507722938958000,8.5079580078125,0.3860284686088562,0.553845226764679,0.35921746492385864
1761507722948930000,8.517929931640625,0.4233076870441437,0.4304841458797455,0.43885451555252075
1761507722958902000,8.527902099609374,0.42613986134529114,0.23408062756061554,0.49321526288986206
1761507722968874200,8.537874267578125,0.4072745442390442,0.002815448911860585,0.5172052979469299
1761507722978846000,8.547845947265625,0.37122270464897156,-0.20202012360095978,0.499326229095459
1761507722988818200,8.557818115234374,0.32555481791496277,-0.3609863221645355,0.4280245900154114
1761507722998791200,8.567791259765626,0.28421807289123535,-0.4812331199645996,0.3098735213279724
1761507723008763100,8.57776318359375,0.25477710366249084,-0.5533363223075867,0.16747935116291046
1761507723018735000,8.587735107421874,0.2289334237575531,-0.5629867315292358,0.019772768020629883
1761507723028707000,8.59770703125,0.19927167892456055,-0.5316381454467773,-0.11855049431324005
1761507723038679000,8.607678955078125,0.15374571084976196,-0.44761374592781067,-0.23871950805187225
1761507723048651300,8.6176513671875,0.09872081130743027,-0.328304648399353,-0.34160327911376953
1761507723058623000,8.627623046875,0.04188532382249832,-0.1970187872648239,-0.4226006269454956
1761507723068595200,8.63759521484375,-0.006243325304239988,-0.06261438876390457,-0.4752047061920166
1761507723078567000,8.64756689453125,-0.029077230021357536,0.05649033561348915,-0.4939364790916443
1761507723088539100,8.6575390625,-0.02578875608742237,0.16742244362831116,-0.4700218141078949
1761507723098511000,8.667510986328125,-0.007719781715422869,0.25952982902526855,-0.41315358877182007
1761507723108483000,8.677483154296874,0.020673243328928947,0.3279150128364563,-0.32596781849861145
1761507723118455300,8.687455322265626,0.04625125229358673,0.38070353865623474,-0.2339557707309723
1761507723128427000,8.697427001953125,0.06255326420068741,0.4095271825790405,-0.15384921431541443
1761507723138399200,8.707399169921874,0.07341469079256058,0.39056432247161865,-0.10425257682800293
1761507723148371200,8.71737109375,0.0788121148943901,0.32344919443130493,-0.08685974031686783
1761507723158344000,8.727343994140625,0.06782279163599014,0.23178867995738983,-0.09498439729213715
1761507723168316200,8.737316162109375,0.04182075336575508,0.1447800099849701,-0.1276872158050537
1761507723178288000,8.7472880859375,0.005264142528176308,0.059497397392988205,-0.17139752209186554
1761507723188260000,8.757260009765625,-0.0326177254319191,-0.04335228353738785,-0.21654103696346283
1761507723198232000,8.767232177734375,-0.06310717761516571,-0.16504372656345367,-0.25691938400268555
1761507723208204000,8.7772041015625,-0.08744394779205322,-0.2659863233566284,-0.27783718705177307
1761507723218176000,8.787176025390625,-0.11487364768981934,-0.3453696370124817,-0.2846367657184601
1761507723228148200,8.797148193359375,-0.1458025425672531,-0.40280789136886597,-0.28219544887542725
1761507723238120200,8.8071201171875,-0.16568878293037415,-0.4360977113246918,-0.2822979688644409
1761507723248092200,8.817092041015625,-0.173300638794899,-0.4286421835422516,-0.2859036326408386
1761507723258064100,8.827064208984375,-0.16625216603279114,-0.37830257415771484,-0.28475433588027954
1761507723268036000,8.8370361328125,-0.16301801800727844,-0.3308061361312866,-0.2835513949394226
1761507723278008300,8.84700830078125,-0.17132076621055603,-0.27437064051628113,-0.27741602063179016
1761507723287980000,8.85697998046875,-0.19952790439128876,-0.21207743883132935,-0.26408106088638306
1761507723297952300,8.8669521484375,-0.24523119628429413,-0.17422091960906982,-0.2694509029388428
1761507723307924000,8.876924072265625,-0.29122263193130493,-0.1558094173669815,-0.2868642508983612
1761507723317897000,8.88689697265625,-0.3350963294506073,-0.1387471854686737,-0.3048064708709717
1761507723327869200,8.896869140625,-0.36184805631637573,-0.09617789089679718,-0.3187907338142395
1761507723337841200,8.906841064453126,-0.3708055317401886,-0.0076401797123253345,-0.3270620107650757
1761507723347813000,8.916813232421875,-0.35712701082229614,0.10753993690013885,-0.3219655156135559
1761507723357785300,8.926785400390624,-0.3224794864654541,0.21179050207138062,-0.30463868379592896
1761507723367757000,8.936757080078126,-0.2660790681838989,0.2936353087425232,-0.28013333678245544
1761507723377729300,8.946729248046875,-0.20633037388324738,0.34654563665390015,-0.24901388585567474
1761507723387701000,8.956700927734374,-0.1617778241634369,0.377375990152359,-0.2142612338066101
1761507723397673200,8.966673095703126,-0.12628862261772156,0.37518465518951416,-0.17804689705371857
1761507723407645200,8.976645263671875,-0.10124744474887848,0.33848655223846436,-0.1504027545452118
1761507723417617200,8.9866171875,-0.09151318669319153,0.298179030418396,-0.13228817284107208
1761507723427589000,8.996589111328126,-0.08512373268604279,0.2525755763053894,-0.1269802302122116
1761507723437561000,9.00656103515625,-0.08031541854143143,0.1962435394525528,-0.13584689795970917
1761507723447533000,9.016532958984374,-0.06279315054416656,0.13722816109657288,-0.15579797327518463
1761507723457505300,9.02650537109375,-0.05033303424715996,0.08775211125612259,-0.17820973694324493
1761507723467477000,9.03647705078125,-0.04010516405105591,0.04051721841096878,-0.20809440314769745
1761507723477450200,9.0464501953125,-0.030107365921139717,-0.005486540496349335,-0.22258053719997406
1761507723487422200,9.056422119140626,-0.01893087849020958,-0.03217913582921028,-0.21963746845722198
1761507723497394200,9.066394287109375,-0.015374278649687767,-0.023877808824181557,-0.201753631234169
1761507723507366100,9.0763662109375,-0.015546053647994995,0.006863858550786972,-0.16900606453418732
1761507723517338000,9.086338134765626,-0.010965017601847649,0.028611311689019203,-0.1487145572900772
1761507723527310000,9.09631005859375,-0.002537976484745741,0.03622928634285927,-0.1275634616613388
1761507723537282300,9.1062822265625,0.002674468792974949,0.02097509056329727,-0.1054920107126236
1761507723547254000,9.11625390625,-0.0024238871410489082,-0.021779829636216164,-0.09182573109865189
1761507723557226200,9.126226318359375,-0.008562886156141758,-0.0795249193906784,-0.0689772441983223
1761507723567198000,9.136197998046875,-0.02057613804936409,-0.13376790285110474,-0.02760743722319603
1761507723577170200,9.146170166015626,-0.04289063438773155,-0.17135265469551086,0.030376143753528595
1761507723587142000,9.156141845703125,-0.06559248268604279,-0.1777370423078537,0.09225175529718399
1761507723597114000,9.166114013671875,-0.08887109905481339,-0.16533873975276947,0.14284497499465942
1761507723607085800,9.1760859375,-0.12118243426084518,-0.1506684422492981,0.19187963008880615
1761507723617058000,9.18605810546875,-0.15609857439994812,-0.1329977810382843,0.22749602794647217
1761507723627030000,9.196030029296875,-0.18611612915992737,-0.09912797063589096,0.2503296732902527
1761507723637003000,9.2060029296875,-0.213316410779953,-0.04427836835384369,0.2550024688243866
1761507723646975000,9.21597509765625,-0.2386060506105423,0.022107576951384544,0.2312457412481308
1761507723656947200,9.225947265625,-0.24774017930030823,0.09489911794662476,0.18875479698181152
1761507723666919000,9.2359189453125,-0.23845426738262177,0.16396820545196533,0.12954820692539215
1761507723676891100,9.24589111328125,-0.21536827087402344,0.21505959331989288,0.07359881699085236
1761507723686862800,9.25586279296875,-0.20046548545360565,0.21329258382320404,0.019954223185777664
1761507723696835000,9.2658349609375,-0.2036375254392624,0.14548344910144806,-0.027774464339017868
1761507723706807000,9.27580712890625,-0.21903325617313385,0.005409426521509886,-0.06810137629508972
1761507723716779000,9.285779052734375,-0.24554970860481262,-0.15953470766544342,-0.10710940510034561
1761507723726751000,9.2957509765625,-0.27619656920433044,-0.29759857058525085,-0.1394508332014084
1761507723736723000,9.305722900390625,-0.30817654728889465,-0.3770703673362732,-0.1695353388786316
1761507723746695200,9.315695068359375,-0.3473018407821655,-0.3822843134403229,-0.19163665175437927
1761507723756667100,9.325667236328124,-0.37548545002937317,-0.33344629406929016,-0.19355498254299164
1761507723766639000,9.33563916015625,-0.3803614377975464,-0.20650696754455566,-0.15984708070755005
1761507723776611000,9.345611083984375,-0.3745284676551819,0.024853719398379326,-0.09153705090284348
1761507723786584000,9.355583984375,-0.36576321721076965,0.32499411702156067,-0.01248829998075962
1761507723796556000,9.36555615234375,-0.3626317083835602,0.5957688093185425,0.06227407231926918
1761507723806528000,9.375528076171875,-0.3530709445476532,0.7315085530281067,0.11839033663272858
1761507723816500000,9.3855,-0.3325144052505493,0.766595721244812,0.14272333681583405
1761507723826472000,9.395471923828126,-0.33271467685699463,0.7667667269706726,0.1306895762681961
1761507723836444200,9.405444091796875,-0.3596420884132385,0.7183899879455566,0.06742141395807266
1761507723846416000,9.415415771484374,-0.39424774050712585,0.6117990612983704,-0.028301114216446877
1761507723856388000,9.42538818359375,-0.4128778576850891,0.4798496663570404,-0.1398700475692749
1761507723866360000,9.435360107421875,-0.4078082740306854,0.36385461688041687,-0.24521005153656006
1761507723876332000,9.44533203125,-0.39860206842422485,0.2468474954366684,-0.33667072653770447
1761507723886304300,9.45530419921875,-0.3766927719116211,0.1374184638261795,-0.40895533561706543
1761507723896276000,9.46527587890625,-0.3371551036834717,0.05984066426753998,-0.4515855312347412
1761507723906248200,9.475248291015625,-0.2928837835788727,0.0055502597242593765,-0.45549532771110535
1761507723916220000,9.485219970703126,-0.24636688828468323,-0.019008563831448555,-0.43178611993789673
1761507723926192000,9.495192138671875,-0.2119511067867279,-0.02976161055266857,-0.3766824007034302
1761507723936164000,9.5051640625,-0.18716652691364288,-0.029506715014576912,-0.2971919775009155
1761507723946136000,9.515135986328126,-0.17336095869541168,-0.032596513628959656,-0.200523242354393
1761507723956109000,9.525109130859375,-0.16292336583137512,-0.0225980207324028,-0.10225336253643036
1761507723966081000,9.5350810546875,-0.15084299445152283,0.0060980720445513725,-0.003870595945045352
1761507723976053000,9.545052978515624,-0.13630391657352448,0.03990601375699043,0.07858854532241821
1761507723986025200,9.555025146484375,-0.1291181743144989,0.05943364277482033,0.14902730286121368
1761507723995997000,9.564996826171875,-0.13111978769302368,0.0635649561882019,0.1974177360534668
1761507724005969200,9.57496923828125,-0.1552743911743164,0.07685359567403793,0.22488105297088623
1761507724015941000,9.584941162109375,-0.2179717719554901,0.07412499189376831,0.2279098927974701
1761507724025913000,9.5949130859375,-0.3050145208835602,0.06805058568716049,0.20888639986515045
1761507724035885000,9.604885009765624,-0.39052051305770874,0.07166197150945663,0.17508094012737274
1761507724045857000,9.61485693359375,-0.44580745697021484,0.12557366490364075,0.1347218006849289
1761507724055829000,9.6248291015625,-0.470235675573349,0.20711196959018707,0.0759817510843277
1761507724065801200,9.63480126953125,-0.47381070256233215,0.2745053768157959,0.0028912932612001896
1761507724075773000,9.64477294921875,-0.47271549701690674,0.2936992049217224,-0.06782899051904678
1761507724085745200,9.6547451171875,-0.4610447287559509,0.26836881041526794,-0.11428383737802505
1761507724095716900,9.664716796875,-0.44209662079811096,0.23131969571113586,-0.1225351095199585
1761507724105689000,9.674689208984375,-0.41463035345077515,0.2057323157787323,-0.10852901637554169
1761507724115662000,9.684662109375,-0.38634172081947327,0.19558939337730408,-0.06391201168298721
1761507724125634000,9.694634033203124,-0.3632843494415283,0.1902311146259308,-0.017223067581653595
1761507724135606000,9.70460595703125,-0.3547900915145874,0.1628851592540741,0.0361303873360157
1761507724145578200,9.714578125,-0.34660354256629944,0.100501149892807,0.0704239085316658
1761507724155550000,9.724550048828124,-0.33958372473716736,0.02978990599513054,0.0938006192445755
1761507724165522200,9.734522216796876,-0.33897465467453003,-0.01912117749452591,0.09346771985292435
1761507724175494000,9.744493896484375,-0.34172406792640686,-0.04155394062399864,0.06793646514415741
1761507724185466000,9.754466064453124,-0.34808236360549927,-0.04272972419857979,0.020777473226189613
1761507724195438000,9.76443798828125,-0.3520038425922394,-0.03595868498086929,-0.037122178822755814
1761507724205410000,9.77441015625,-0.3363378047943115,-0.023192023858428,-0.10021193325519562
1761507724215382000,9.784382080078124,-0.30346381664276123,0.016371294856071472,-0.17043206095695496
1761507724225354000,9.79435400390625,-0.2617321014404297,0.06906406581401825,-0.24414275586605072
1761507724235326000,9.804325927734375,-0.20687304437160492,0.12552985548973083,-0.3164130747318268
1761507724245298200,9.814298095703125,-0.1467798799276352,0.1845897138118744,-0.37384656071662903
1761507724255270000,9.824269775390626,-0.09353090077638626,0.23284552991390228,-0.421280175447464
1761507724265242000,9.8342421875,-0.05436059087514877,0.25333723425865173,-0.45326048135757446
1761507724275215000,9.844215087890625,-0.025849055498838425,0.25279873609542847,-0.4648628234863281
1761507724285187000,9.85418701171875,-0.017443854361772537,0.25142747163772583,-0.4128888249397278
1761507724295159000,9.864158935546875,-0.045836977660655975,0.2119186669588089,-0.3017258644104004
1761507724305131000,9.874131103515625,-0.06431132555007935,0.11886940896511078,-0.20391860604286194
1761507724315103000,9.88410302734375,-0.04490937292575836,-0.019298631697893143,-0.13031801581382751
1761507724325075200,9.8940751953125,-0.008015540428459644,-0.12309879064559937,-0.07756559550762177
1761507724335047000,9.904046875,0.017765870317816734,-0.13998107612133026,-0.016107182949781418
1761507724345019100,9.91401904296875,0.06240737438201904,-0.11611302942037582,0.06646519154310226
