time,seconds_elapsed,z,y,x
1761467740632136400,0.057136474609375,0.0014379238486289978,-0.01515162936458364,-0.07294087917879223
1761467740642089500,0.06708935546875,-0.0000713116705417633,-0.02492962113311514,-0.07229269920205697
1761467740652042500,0.07704248046875,-0.0137029466599226,-0.016567670174967495,-0.06681552816629409
1761467740661995500,0.08699560546875,-0.026434417939186095,0.0035600853680633005,-0.07138625188162549
1761467740671948500,0.096948486328125,-0.008040098592638968,-0.00027483488600701093,-0.06255524037331342
1761467740681902300,0.10690234375,0.005867430728673934,0.0008077544526197015,-0.05976528086122125
1761467740691855400,0.11685546875,-0.007460252878069877,-0.0006464264110662043,-0.07550453738803044
1761467740701808400,0.126808349609375,-0.0002846621602773666,-0.013802041386533528,-0.06755759697156026
1761467740711761200,0.13676123046875,0.00523848517537117,-0.0073828219939954575,-0.06783442288525403
1761467740721714200,0.146714111328125,0.007919687083363533,-0.01545123336566612,-0.06816858674306422
1761467740731668200,0.156668212890625,0.00042903906702995297,-0.024477895310241728,-0.06638944824133068
1761467740741621200,0.166621337890625,-0.004968436062335968,-0.005697133929375558,-0.06179512445470318
1761467740751574300,0.17657421875,-0.0037806875824928283,-0.003243986889906227,-0.06424723031455651
1761467740761527300,0.18652734375,-0.013664952737092971,-0.003196129160188138,-0.0664749893666245
1761467740771481300,0.1964814453125,-0.004698386949300765,-0.009833557880669832,-0.0670798964572139
1761467740781434400,0.206434326171875,-0.011293547430634498,-0.013443546805065125,-0.06579698050720617
1761467740791387400,0.216387451171875,-0.0023269816428422925,-0.017658479352667927,-0.055956791956350206
1761467740801340400,0.22634033203125,-0.009972527959942816,-0.005646956378407776,-0.060758694079052655
1761467740811293400,0.23629345703125,-0.007142272970080375,-0.002133705826755613,-0.057557888743747024
1761467740821247200,0.246247314453125,-0.013133622339367866,-0.0031050533432513475,-0.06334452758748084
1761467740831200300,0.2562001953125,-0.012988660910725593,-0.017629782981146126,-0.05203527113106102
1761467740841153300,0.2661533203125,-0.0011760580420494078,-0.0009839512697421013,-0.05810498296618461
1761467740851106300,0.276106201171875,-0.00732113666832447,-0.012767328043933957,-0.0527666358792223
1761467740861060400,0.286060302734375,0.0008984101444482803,-0.004254296443611383,-0.06485294112274423
1761467740871013400,0.296013427734375,0.0011859949141740799,0.005210647320374846,-0.07365297297090291
1761467740880966400,0.30596630859375,-0.0027127660900354384,-0.008621478677168488,-0.048684042740706354
1761467740890919400,0.31591943359375,-0.009006313276290893,-0.013305563106480985,-0.057218117129057645
1761467740900872200,0.3258720703125,-0.01111000755727291,-0.00493908210368827,-0.0665296786959283
1761467740910826500,0.335826416015625,-0.004984802675247192,-0.006802373491227627,-0.06214048555996269
1761467740920779300,0.345779296875,0.013563245928287506,0.000005443360097706318,-0.053052211354952306
1761467740930732300,0.355732177734375,-0.0055991351813077924,-0.0013265541623346507,-0.06271421206099913
1761467740940685300,0.365685302734375,0.00755903707742691,-0.013229721391294151,-0.06577714329557494
1761467740950638300,0.375638427734375,-0.006513911938667297,-0.0078001706232316784,-0.0691027988532558
1761467740960592400,0.38559228515625,0.0033551556468009946,-0.0043736850395798684,-0.06442065065270289
1761467740970545700,0.395545654296875,0.006640168666839599,-0.001355962919909507,-0.06699123179307206
1761467740980498700,0.405498779296875,-0.01072656119763851,0.013937486068159342,-0.05539658252401277
1761467740990451700,0.41545166015625,0.004529460123181343,-0.005650226047728211,-0.060334769578557455
1761467741000405800,0.42540576171875,-0.011336802050471306,-0.009764931357558817,-0.05614650584217161
1761467741010358800,0.43535888671875,-0.010744681376218795,-0.0027128026226535436,-0.05858060112129897
1761467741020311800,0.445311767578125,0.002116553762555122,-0.0032469825645908713,-0.05396468655737117
1761467741030264800,0.455264892578125,-0.002681201907992363,0.0010126659075729548,-0.057219541901163753
1761467741040217600,0.465217529296875,0.001651274338364601,-0.009754556094016879,-0.05496668494045734
1761467741050172000,0.475171875,-0.01316869365274906,-0.017634751417208463,-0.05491155721973628
1761467741060124700,0.485124755859375,-0.008682488149404526,-0.0022333120100200177,-0.043073454583622516
1761467741070077700,0.49507763671875,-0.018867197555303573,-0.0052680765960365535,-0.06791424665581434
1761467741080030700,0.50503076171875,0.003418284010887146,-0.006659530954435468,-0.05753142086192965
1761467741089984800,0.51498486328125,0.012538579055666924,-0.008107811800297349,-0.05156719696158543
1761467741099937800,0.524937744140625,-0.0031792145580053326,-0.008021320826932788,-0.056771158812846986
1761467741109890800,0.534890869140625,-0.003634557110071182,-0.009496014755684882,-0.06940004650047049
1761467741119843800,0.54484375,-0.008281506133079528,-0.006101696142274886,-0.06464983803238719
1761467741129796900,0.554796875,0.00398059406876564,-0.0043038894726894796,-0.04559016837859526
1761467741139750700,0.564750732421875,-0.01592763697206974,0.0043207127433270215,-0.06051266516242176
1761467741149703700,0.57470361328125,-0.009054244071245193,-0.0009378288393840194,-0.05498595589650795
1761467741159656700,0.58465673828125,-0.011453121906518935,0.0000763897044584155,-0.05264496399462223
1761467741169609700,0.594609619140625,-0.0026280104160308834,-0.0004183167436160147,-0.061261255040019745
1761467741179563800,0.604563720703125,-0.008018471282720565,0.01119074464328587,-0.062096043630037456
1761467741189516800,0.614516845703125,-0.017903320959210395,-0.00790819757496938,-0.06670169252827764
1761467741199469800,0.6244697265625,-0.00743921009004116,0.007730612518358975,-0.06840623142383992
1761467741209422800,0.6344228515625,-0.015524901390075682,0.002742576706409454,-0.04059301767842844
1761467741219375900,0.6443759765625,-0.0058066404521465295,0.0011657741100527346,-0.04509626564811915
1761467741229330000,0.654329833984375,-0.0010240823507308959,-0.011040632115490733,-0.051941437101457266
1761467741239283000,0.664282958984375,-0.005815992802381515,-0.00573582197194919,-0.047979821727797384
1761467741249236000,0.674236083984375,0.000014613047242164611,-0.0017481040426529943,-0.0506681109637022
1761467741259188700,0.684188720703125,0.0022556699723005292,-0.0034993681567721067,-0.04755993408160284
1761467741269142800,0.694142822265625,-0.017055764219164847,0.0013429390415549277,-0.04637781162494793
1761467741279095600,0.704095458984375,-0.008980594313144684,0.00296215600753203,-0.04193232172448188
1761467741289048600,0.714048583984375,-0.014517185652256012,-0.0028331045340746638,-0.04779407163104042
1761467741299001600,0.724001708984375,-0.0003057049483060837,0.0004349573511630296,-0.05702518837284296
1761467741308954600,0.73395458984375,0.005523731857538223,-0.004900339262187481,-0.05709607991827652
1761467741318908700,0.74390869140625,-0.0007657236754894256,0.0007236015668138861,-0.05847410853952169
1761467741328861700,0.75386181640625,-0.004061258089542389,-0.010802804771624505,-0.05666042844736948
1761467741338814700,0.763814697265625,-0.013794132074713706,-0.0016315649908967315,-0.053450855283718554
1761467741348767700,0.773767822265625,-0.003924479967355728,-0.002661638690996915,-0.04868795173084363
1761467741358721800,0.7837216796875,-0.005575754305720329,-0.0011154686949215828,-0.05226734458757564
1761467741368674800,0.7936748046875,-0.0045341362982988355,0.0016783815409988163,-0.04970450836224481
1761467741378627800,0.8036279296875,-0.012768880680203437,0.0016212810589000582,-0.04450359698459506
1761467741388580900,0.813580810546875,-0.0039461072772741315,-0.008400419805012643,-0.05459861881304532
1761467741398534000,0.823533935546875,-0.0009586158990859985,-0.005410809534974396,-0.050176272326149046
1761467741408487700,0.83348779296875,-0.007700491374731063,-0.010983860426954924,-0.051730205503571776
1761467741418440700,0.843440673828125,-0.01713409015238285,0.005015617938619107,-0.04695088053885847
1761467741428393700,0.853393798828125,-0.012202478969097137,-0.001873337857518345,-0.047268951778393235
1761467741438346800,0.8633466796875,0.0009603694647550582,0.003119739455729723,-0.05621986333932727
1761467741448300800,0.87330078125,0.0006546645164489745,0.0052861419756896795,-0.04151610560640692
1761467741458253800,0.88325390625,-0.0027928455889225006,-0.000447725501190871,-0.03522146244160831
1761467741468206600,0.89320654296875,-0.01896364366710186,-0.017064130188710988,-0.05007299461476505
1761467741478159600,0.90315966796875,0.0010801964521408081,-0.009027502194792031,-0.051941510166693475
1761467741488112600,0.913112548828125,-0.004014496338367462,0.002087656461633742,-0.04060909203039482
1761467741498066700,0.923066650390625,-0.013893500795960426,-0.011989384207688272,-0.045715785785950716
1761467741508019700,0.933019775390625,-0.00941606312096119,0.001150101616885513,-0.03981132924882695
1761467741517972700,0.94297265625,-0.006431494352221488,0.008283716356474905,-0.046899680074583734
1761467741527925800,0.95292578125,-0.01900456019937992,-0.000005151099152863026,-0.04937856434350833
1761467741537879800,0.9628798828125,0.003586626315116882,-0.001622157841734588,-0.04579811204085126
1761467741547832800,0.972832763671875,-0.010938742643594741,0.007964238611143083,-0.04894941567862406
1761467741557785900,0.982785888671875,-0.0178290866792202,-0.0148850325839594,-0.04751090730810538
1761467741567739000,0.99273876953125,-0.0033183307677507397,-0.004295413905289024,-0.043402905733697116
1761467741577692000,1.00269189453125,-0.014697802916169166,0.0016319303170777857,-0.04723554269913584
1761467741587645700,1.012645751953125,-0.0054214405268430705,0.010121581041812896,-0.038609333047922696
1761467741597598700,1.0225986328125,-0.000187047004699707,0.0017373451866209506,-0.03625491540888324
1761467741607551700,1.0325517578125,-0.003930325186252593,0.007214315292984247,-0.0435739331853576
1761467741617504800,1.0425048828125,0.002947159367799759,-0.005921772998105734,-0.03662944780969992
1761467741627458800,1.052458740234375,-0.008880056548118591,0.00460639781691134,-0.03208254336137324
1761467741637411800,1.062411865234375,-0.007392448338866233,-0.004723576189484447,-0.03525368421077728
1761467741647364900,1.07236474609375,0.002177344039082527,-0.0038191564293578264,-0.04350083141652867
1761467741657317600,1.082317626953125,-0.015786767196655272,0.004794376403372735,-0.03038364875530824
1761467741667270700,1.092270751953125,-0.0009755670338869094,0.008043368261959402,-0.04146240265779197
1761467741677224700,1.102224609375,0.0003688333123922348,-0.0075358571312390266,-0.04149157395334914
1761467741687177700,1.112177734375,0.0006628478229045867,-0.010353216106910259,-0.05162321973145008
1761467741697130800,1.122130859375,0.012179098093509673,-0.007302103174291551,-0.061163950411695985
1761467741707083800,1.132083740234375,-0.015209259569644928,-0.0034938517314381896,-0.04187989741750061
1761467741717037600,1.14203759765625,-0.00788403124809265,-0.00014286080310121178,-0.036258678268548096
1761467741726990600,1.151990478515625,-0.0005593874484300613,-0.0006583725771866738,-0.031240923171769824
1761467741736943600,1.161943603515625,-0.002208323699235916,-0.00677033438514918,-0.03727627607956528
1761467741746896600,1.171896728515625,-0.0014648118555545806,0.004501256942003965,-0.04670947299841791
1761467741756849700,1.181849609375,-0.001471241596341133,-0.004995397134497761,-0.037250301388092336
1761467741766803700,1.1918037109375,-0.00132628016769886,-0.0066300491316244005,-0.03571584009611979
1761467741776756700,1.2017568359375,-0.010011690926551818,-0.002146802770346403,-0.04382798101166263
1761467741786709800,1.211709716796875,-0.007322305712103843,-0.0016807196285575628,-0.031546920381020756
1761467741796662800,1.221662841796875,0.0007534487158060073,0.0015123955906368792,-0.04262896221913397
1761467741806616800,1.231616943359375,-0.00613514175415039,-0.005900638878531754,-0.03753483568420633
1761467741816569900,1.24156982421875,-0.0025508535265922547,-0.00362326853107661,-0.03472582441177219
1761467741826523000,1.25152294921875,0.002830254989862442,-0.0038966969112865625,-0.02958807793082669
1761467741836476000,1.261475830078125,-0.007800444617867469,0.00006944850701838732,-0.03342613999005407
1761467741846429000,1.271428955078125,-0.01813011545240879,0.007539419061504304,-0.042047509069368244
1761467741856382700,1.2813828125,0.002366144609451294,-0.004720708378963172,-0.03500787448985502
1761467741866335700,1.291335693359375,-0.0015279402196407318,0.0014984401305206119,-0.050054910968802865
1761467741876288800,1.301288818359375,-0.006173720198869705,0.007134400190878659,-0.04059935608766973
1761467741886241800,1.31124169921875,0.008336451190710067,0.0019274974638596176,-0.037136831076256926
1761467741896195600,1.321195556640625,0.013567922103404998,0.016924246793985367,-0.02616259699417278
1761467741906148600,1.331148681640625,-0.0008025485545396804,0.009273969502840191,-0.031297329534124584
1761467741916101600,1.3411015625,-0.007390110251307487,-0.0041916430035606024,-0.03744366853572428
1761467741926054700,1.3510546875,-0.002009001734852791,0.0010303842273540794,-0.0356953270310536
1761467741936007700,1.361007568359375,-0.0027671266257762906,-0.003459730266127735,-0.03648355479929596
1761467741945961700,1.370961669921875,-0.0035229134291410442,0.0004535524537786841,-0.04128693649303168
1761467741955914800,1.380914794921875,-0.010856909579038619,0.00352828372400254,-0.02706707155322656
1761467741965868300,1.390868408203125,-0.009812368962168694,-0.00036813919264823197,-0.03755940386988223
1761467741975821300,1.4008212890625,-0.00592646743953228,-0.0058878524621948595,-0.04068708917004987
1761467741985774300,1.4107744140625,-0.009969020828604697,-0.005490980365406722,-0.027819643486198035
1761467741995728100,1.42072802734375,-0.010272972211241722,-0.00221199522735551,-0.03255476398300379
1761467742005681200,1.43068115234375,-0.00009936872124671936,0.004823438101075589,-0.02859892076300457
1761467742015634200,1.44063427734375,-0.005342530071735381,-0.00360133069390431,-0.04057736345157027
1761467742025587200,1.450587158203125,-0.002503507253527641,-0.0065767297754995525,-0.03174571262244135
1761467742035541200,1.460541259765625,-0.005201075774431229,0.0032637875689193606,-0.025399467134568837
1761467742045494300,1.470494384765625,-0.01762333497405052,-0.011834248444903642,-0.025320739342551676
1761467742055447000,1.480447021484375,-0.004907061263918876,0.003582151069398969,-0.03359806249085814
1761467742065400000,1.490400146484375,-0.006405775389075279,0.016177063422184435,-0.04024875255171209
1761467742075353000,1.50035302734375,-0.007455576702952385,0.010323825615644454,-0.03729298975234851
1761467742085307100,1.51030712890625,-0.004616553884744644,0.000623282997496426,-0.024743944101594386
1761467742095260200,1.52026025390625,-0.000879120922088623,0.0031491116806864738,-0.042376028637681154
1761467742105213200,1.530213134765625,-0.00043371524214744564,0.009423862834926694,-0.026964250499568878
1761467742115166200,1.540166259765625,-0.008664952492713927,-0.002439081981498748,-0.04258758902912959
1761467742125120300,1.550120361328125,-0.007172668108344078,0.006619637335464358,-0.0350337578497827
1761467742135073300,1.5600732421875,-0.005230301868915557,-0.006444299034867435,-0.03262183786984533
1761467742145026300,1.5700263671875,-0.018249357917904854,0.01765433290051296,-0.03289820712581277
1761467742154979300,1.579979248046875,0.006138064363598823,0.0127986730302684,-0.04347423567054793
1761467742164933000,1.58993310546875,-0.002542085698246956,-0.0026361389235593376,-0.042791861163266
1761467742174886100,1.59988623046875,-0.011824293306469917,0.0024604718293994663,-0.03753331958055496
1761467742184839200,1.609839111328125,0.005084755918383598,-0.0023891784251667556,-0.027141926887724547
1761467742194792200,1.619792236328125,-0.003298457023501396,0.007939085903577506,-0.03807880636779591
1761467742204745200,1.6297451171875,-0.00883563288450241,0.003257814485859126,-0.036220702612027526
1761467742214699300,1.63969921875,-0.01467500656247139,0.0027095512196421622,-0.04121208115853369
1761467742224652300,1.64965234375,-0.008541033852100371,-0.01327016299953684,-0.03250661399234086
1761467742234605300,1.659605224609375,-0.007498246800899505,-0.0029448212802410125,-0.03353226724565029
1761467742244558000,1.66955810546875,-0.0034609541088342663,0.010704440697375684,-0.040312575035542246
1761467742254511000,1.679510986328125,-0.013039514315128325,-0.003070730948541313,-0.030963677132967857
1761467742264465200,1.689465087890625,-0.006754734957218169,0.005543148944061249,-0.03150644224015996
1761467742274418200,1.699418212890625,-0.008401333120465279,0.0020041063640266654,-0.040659890635870395
1761467742284371200,1.70937109375,-0.0015203414350748062,-0.00400273283533752,-0.03680588208884
1761467742294324200,1.71932421875,-0.011252630898356437,-0.014607275088503955,-0.02746613560710102
1761467742304278000,1.729278076171875,-0.008710545200109481,-0.0009868556128814815,-0.03159096045214683
1761467742314231000,1.73923095703125,-0.006916062998771667,0.0008690927184186875,-0.03160109825367108
1761467742324184000,1.74918408203125,-0.010657587614655495,0.006026895606704056,-0.02759615519493818
1761467742334137000,1.75913720703125,-0.013804653468728065,0.0021608678283169865,-0.031183640026580542
1761467742344090000,1.769090087890625,-0.004977203890681266,-0.00945475116353482,-0.039417306696251035
1761467742354044200,1.779044189453125,-0.007077975562214851,0.00261705063059926,-0.028212076869886367
1761467742363997200,1.7889970703125,-0.0036398178070783612,0.0036784145181067286,-0.031075667873769995
1761467742373950200,1.7989501953125,-0.0096247374355793,-0.010242759736068547,-0.03842098913528025
1761467742383903200,1.8089033203125,-0.011721417453885078,0.006459533136617392,-0.03427070105541497
1761467742393857300,1.818857177734375,0.004587327790260315,0.0056783926962874825,-0.03640422421908006
1761467742403810300,1.828810302734375,-0.00708498982489109,0.00012450316250324248,-0.026043135332968086
1761467742413763300,1.838763427734375,-0.02070610342025757,-0.0036987814527004955,-0.013225045216176658
1761467742423716400,1.84871630859375,-0.01173135432600975,0.0028693266249261795,-0.024744400759320703
1761467742433670400,1.85867041015625,-0.00215805481672287,-0.0053602483915165065,-0.02879214178016409
1761467742443623400,1.86862353515625,-0.010688567274808883,0.0009853029766120015,-0.02445895314775407
1761467742453576400,1.878576416015625,-0.010095277556777,0.00895315831694752,-0.019345646988321096
1761467742463529200,1.888529296875,-0.0006669394761323928,-0.00587523044263944,-0.03913036124734208
1761467742473482200,1.898482177734375,-0.003962473890185356,-0.010125216037314385,-0.04000157285761088
1761467742483436000,1.90843603515625,0.00022679449319839477,-0.0030029629419557747,-0.027337011068407444
1761467742493389000,1.91838916015625,-0.0009726444244384765,0.00955790101075545,-0.022744988836720586
1761467742503342000,1.928342041015625,-0.006512158372998237,0.003104322690889239,-0.030250432563386855
1761467742513295000,1.938295166015625,0.007250409519672393,-0.0055249922328628595,-0.026396424016356466
1761467742523249200,1.948249267578125,-0.008012041541934013,-0.007400430715922265,-0.03172485249750316
1761467742533202200,1.9582021484375,-0.006217559340596199,0.0007896890729665756,-0.02116835063714534
1761467742543155200,1.9681552734375,-0.00906651903092861,-0.002042520411964506,-0.028264373312704264
1761467742553108200,1.978108154296875,-0.012661328652501105,-0.012100717361364513,-0.029157888086326418
1761467742563061200,1.988061279296875,0.0003559738308191299,0.0023806480588391423,-0.027564791942294685
1761467742573015300,1.998015380859375,0.006790390792489051,-0.0034396007935516533,-0.032371498104277995
1761467742582968300,2.00796826171875,-0.000692073917388916,-0.005103935542888939,-0.02456067822286859
1761467742592921300,2.01792138671875,-0.0054822308033704754,0.0061118704764172435,-0.029577081612776963
1761467742602874400,2.027874267578125,-0.004587912312150002,-0.00373114935234189,-0.02677482887469232
1761467742612828200,2.037828125,0.007981061881780624,-0.007987473356258124,-0.03371902198940515
1761467742622781200,2.04778125,-0.006684007808566093,-0.006220956874080002,-0.017049809402413664
1761467742632734200,2.057734130859375,-0.005491583153605461,-0.0006009067689068615,-0.018746712980791926
1761467742642687200,2.067687255859375,-0.007886953857541084,0.0008675948810763657,-0.012240984348580241
1761467742652641300,2.077641357421875,-0.0077414079070091246,0.0021313312065787612,-0.029342359541449693
1761467742662594300,2.08759423828125,-0.016571195572614668,-0.006252886382304132,-0.027639574211556463
1761467742672547000,2.097547119140625,-0.005649404063820839,-0.010330401486903429,-0.026337551702279596
1761467742682500000,2.1075,-0.0035562311768531796,-0.006178286776132881,-0.027594218966178596
1761467742692453000,2.117453125,0.004821136546134948,-0.01680997276455164,-0.023149715446401386
1761467742702407200,2.1274072265625,-0.0029623569369316097,0.000707527214847505,-0.035939529316779226
1761467742712360200,2.137360107421875,-0.0053606502503156656,0.001029470911901444,-0.038196003006678074
1761467742722313200,2.147313232421875,0.009303250396251678,0.0016059373592957854,-0.01316146019436419
1761467742732266200,2.157266357421875,-0.00820610280930996,-0.0042277737628668545,-0.01697742001963779
1761467742742220300,2.16722021484375,-0.005965045884251594,-0.0032492110542953014,-0.030976244353596118
1761467742752173300,2.17717333984375,0.003611760756373405,-0.0036857210417278108,-0.03412853437205776
1761467742762126000,2.1871259765625,-0.008956044393777847,0.006840093419421464,-0.02348466475550085
1761467742772079000,2.1970791015625,-0.0046200610160827636,-0.0038063517467118797,-0.024964674180187284
1761467742782033200,2.207033203125,-0.0038753801286220547,0.00011816475326195359,-0.023213172604050487
1761467742791986200,2.216986083984375,-0.01584521938562393,0.0003523936342447996,-0.02618718344615772
1761467742801939200,2.226939208984375,-0.01015840592086315,-0.010151300326641648,-0.024995325046777723
1761467742811892200,2.236892333984375,-0.011206453669071198,-0.015100958623271434,-0.03766839893599972
1761467742821846300,2.24684619140625,-0.006119359663128853,-0.0009780512519180775,-0.030832141441479322
1761467742831799300,2.25679931640625,-0.0013344634741544723,0.005193276060465723,-0.021755320212244987
1761467742841752300,2.26675244140625,-0.014058335968852042,0.005788301077857614,-0.021408826595824212
1761467742851705300,2.276705322265625,-0.012268529942631721,-0.015188509042561053,-0.04312944082086906
1761467742861658000,2.286658203125,-0.007633271357417106,-0.010022668978292494,-0.02840962700229138
1761467742871612400,2.2966123046875,-0.016164952859282492,0.004394819159153848,-0.023417645667586473
1761467742881565200,2.306565185546875,0.001191255611181259,-0.0018383396093733608,-0.021000209262315182
1761467742891518200,2.316518310546875,-0.011982114216685295,-0.0081594689222984,-0.019553115726541725
1761467742901471200,2.32647119140625,0.0019330138891935347,-0.002937770484946668,-0.045086164379213
1761467742911425000,2.336425048828125,-0.014226678273081779,-0.009723448569700121,-0.03147615669975057
1761467742921378000,2.3463779296875,-0.015574001228809356,-0.003429828318208456,-0.029666476929280906
1761467742931331000,2.3563310546875,-0.007049918511509895,0.007466792216710746,-0.031207568891439583
1761467742941284000,2.3662841796875,0.0031248540222644804,0.004291249186825007,-0.02412637845883146
1761467742951238100,2.376238037109375,-0.0063040685802698134,-0.0037160979136824607,-0.0260695849484764
1761467742961191200,2.386191162109375,0.0008785364001989365,0.004127674389258026,-0.0283689113994129
1761467742971143400,2.396143310546875,-0.0022638532787561416,0.003717869745660573,-0.010762235299218445
1761467742981096400,2.406096435546875,0.0019248305827379226,0.002330689703579992,-0.01844687151769176
1761467742991049500,2.416049560546875,-0.014086393019556998,0.0020209113683551548,-0.028167324412707237
1761467743001003500,2.42600341796875,-0.010942834296822548,-0.002204158980771899,-0.031925526168756185
1761467743010956500,2.43595654296875,-0.010195230799913406,-0.004444211258832365,-0.030865714917518196
1761467743020909600,2.44590966796875,-0.0025637130081653595,0.00030915728071704505,-0.022434863441623747
1761467743030862600,2.455862548828125,-0.004658639460802078,-0.0009250058904290199,-0.03332647900786251
1761467743040816600,2.465816650390625,-0.006603928309679031,0.015124120303150265,-0.026785788660123943
1761467743050769700,2.475769775390625,0.0067144029468297955,-0.0013353219906799495,-0.03789051725408062
1761467743060722700,2.48572265625,-0.001816109511256218,0.0016683350710198282,-0.026783121779002248
1761467743070675700,2.49567578125,0.0016249708533287047,-0.01242574806464836,-0.02732259895056486
1761467743080629500,2.50562939453125,-0.0185784437417984,-0.00027901787078008053,-0.02306912449086085
1761467743090582500,2.51558251953125,-0.01573591379225254,-0.002443538960907608,-0.022385361744090913
1761467743100535600,2.52553564453125,-0.013792378509044646,-0.00036594723556190726,-0.021546499767154455
1761467743110488600,2.535488525390625,-0.004662731114029884,0.004039521181769669,-0.02033778156451881
1761467743120442600,2.545442626953125,0.004016249904036521,-0.004062755926884711,-0.027801358910836276
1761467743130395600,2.555395751953125,-0.008407762861251831,-0.0036037966456264254,-0.019864830290526152
1761467743140348700,2.5653486328125,-0.009160042533278465,0.0024164865572005507,-0.027517792729102073
1761467743150301700,2.5753017578125,-0.00003565583527088165,0.002597688343003392,-0.023208021504897623
1761467743160254500,2.58525439453125,-0.0010848726272583008,0.0006451295031234622,-0.030466979657206683
1761467743170208800,2.595208740234375,-0.013956629160046577,0.006069273443706333,-0.027092881847918034
1761467743180161500,2.60516162109375,-0.008722235637903213,-0.0007484620134346186,-0.016879804864060134
1761467743190114600,2.615114501953125,0.002052256354689598,-0.001095101760327816,-0.02148645840929821
1761467743200067600,2.625067626953125,0.004293313279747963,0.002056110545899719,-0.029296931230835616
1761467743210021400,2.635021484375,-0.014710077875852583,0.005959438127372414,-0.026628296543471514
1761467743219974400,2.644974365234375,0.0006996727019548416,0.004066281324531883,-0.028361111685447395
1761467743229927400,2.654927490234375,-0.01650982077419758,0.006880151435174047,-0.010187814678438007
1761467743239880400,2.66488037109375,-0.014117957201600074,-0.002832099887076765,-0.021781861159298567
1761467743249834500,2.67483447265625,-0.0043920974791049954,-0.0015071348936296998,-0.013644531003572045
1761467743259787500,2.68478759765625,-0.010828852528333663,-0.005818367422558367,-0.021368640715908258
1761467743269740500,2.694740478515625,-0.012924948024749755,0.011977876432985066,-0.029991398034710435
1761467743279693600,2.704693603515625,0.0072737903952598566,0.01797673325529322,-0.022135259440541268
1761467743289647600,2.714647705078125,0.00158814597427845,-0.007374583888612687,-0.022991675340477375
1761467743299600600,2.7246005859375,-0.005746434697508812,-0.003499240292608738,-0.017944986410159618
1761467743309553700,2.7345537109375,-0.0008083937734365463,-0.003100304102897644,-0.019390947434771804
1761467743319506700,2.744506591796875,-0.010984919872879981,0.0017478848469443618,-0.026912027121987193
1761467743329460700,2.754460693359375,-0.0052998599737882615,-0.001247935968171805,-0.02969250641968101
1761467743339413800,2.764413818359375,-0.006199439162015915,0.013890925246383993,-0.027861363736074417
1761467743349366800,2.77436669921875,-0.01652443382143974,-0.0008610190098173916,-0.018059077776502817
1761467743359319800,2.78431982421875,-0.010984335350990295,0.0024818799436092374,-0.02421873291740194
1761467743369272600,2.7942724609375,0.0023299042522907255,0.0022017112953588366,-0.0224726929676719
1761467743379226600,2.8042265625,-0.008292612048983574,0.0055858555746264756,-0.02921615761220455
1761467743389179400,2.814179443359375,-0.012927870634198188,-0.00011107742534950375,-0.025609657552838325
1761467743399132400,2.82413232421875,-0.007692892590165138,-0.0013512502121739089,-0.025780447542481124
1761467743409085400,2.83408544921875,0.0035281741261482236,-0.010338219467177986,-0.022110070200357584
1761467743419039500,2.84403955078125,-0.00021276596784591673,-0.006545987577363848,-0.022604703583195804
1761467743428992500,2.853992431640625,-0.003359247300028801,0.0019294884915463625,-0.024777901170123368
1761467743438945500,2.863945556640625,-0.0014127894073724745,-0.0015692951433360575,-0.027465149226412175
1761467743448898600,2.873898681640625,0.002776478976011276,-0.008914232812356203,-0.02160060457456857
1761467743458852600,2.8838525390625,-0.0038087446331977843,0.005078618438541889,-0.02103853197870776
1761467743468805600,2.8938056640625,-0.006053893211483955,-0.0026856223547831177,-0.021926840854249893
1761467743478758700,2.903758544921875,-0.006654197192192077,-0.0075868201334960755,-0.021448391421232373
1761467743488711700,2.913711669921875,-0.0023187983363866806,-0.00224507551304996,-0.015699472505692393
1761467743498665500,2.92366552734375,-0.020875614768266677,-0.0053355523416772485,-0.016415402222704142
1761467743508618500,2.933618408203125,0.008901099336147307,0.004380644503328949,-0.0193575018228963
1761467743518571500,2.943571533203125,0.003514145600795746,0.005494724958762526,-0.021980909129045902
1761467743528524500,2.953524658203125,-0.009654548051953316,0.0007265241762623191,-0.03140784070389345
1761467743538477600,2.9634775390625,-0.0063636898130178445,-0.006222272048331797,-0.025763843467552214
1761467743548431600,2.973431640625,-0.014894786792993544,-0.004019537839666009,-0.021603307988308368
1761467743558384600,2.983384521484375,-0.016993220376968383,-0.007086688591632992,-0.03096395112760365
1761467743568337700,2.993337646484375,-0.01490238557755947,-0.0039868959453888235,-0.01925192255657166
1761467743578290700,3.003290771484375,-0.008768412867188453,-0.0011896299096755684,-0.03576035509128123
1761467743588244700,3.01324462890625,-0.010863923841714859,-0.0007729571338742971,-0.0196930173875764
1761467743598197800,3.02319775390625,-0.00907177972793579,-0.003743205116316676,-0.02332554693734273
1761467743608150500,3.033150634765625,-0.013562661406397818,-0.007655136129353195,-0.028019604771398005
1761467743618103600,3.043103515625,0.0034919337689876553,-0.005260916202887892,-0.025166133302729574
1761467743628057600,3.0530576171875,-0.0035439562171697614,0.00864816575469449,-0.028499917367938905
1761467743638010600,3.0630107421875,-0.0044458734929561615,-0.0022454773718491197,-0.018338460973463953
1761467743647963600,3.072963623046875,-0.001603343543410301,-0.013799575434811412,-0.022165910307131706
1761467743657916700,3.082916748046875,-0.012230536019802092,0.004173303629271686,-0.028212679658085105
1761467743667870500,3.092870361328125,-0.013278583768010138,-0.002723543212376535,-0.01770582562573254
1761467743677823500,3.102823486328125,-0.0029530045866966244,-0.0026633374577388165,-0.01989431211333722
1761467743687776500,3.112776611328125,-0.005198737686872482,-0.0034510355030186474,-0.020691727835033088
1761467743697729500,3.1227294921875,-0.00206043966114521,0.014085497970413415,-0.016673852229490874
1761467743707683600,3.13268359375,-0.0075993690878152845,0.002502575671765953,-0.03223378840032965
1761467743717636600,3.14263671875,-0.009847440275549887,0.007461239258758723,-0.026158085215836763
1761467743727589600,3.152589599609375,0.007212415596842765,-0.00815716736735776,-0.02224423624034971
1761467743737542700,3.162542724609375,-0.008652093011140822,0.0013627762531861663,-0.025991277281567454
1761467743747495700,3.17249560546875,-0.0137421096265316,-0.0014407368602231145,-0.02788070775736123
1761467743757449700,3.18244970703125,-0.004014496338367462,-0.0022634879525750876,-0.02605060625337064
1761467743767402800,3.19240283203125,-0.004762099835276604,0.00406781569449231,-0.024643406336568294
1761467743777355800,3.202355712890625,-0.0026665888607501982,0.0030972170966677365,-0.023398064184281975
1761467743787308800,3.212308837890625,-0.016435001972317696,0.0033114626355469226,-0.008275185990147291
1761467743797262600,3.2222626953125,0.004659808504581451,0.0027930830509401857,-0.022098745088744907
1761467743807215600,3.232215576171875,0.005258358919620514,0.00695489717181772,-0.02386283215181902
1761467743817168400,3.24216845703125,-0.007164484801888466,-0.0015341142321005463,-0.01855522726299241
1761467743827121400,3.252121337890625,-0.0037263270467519758,-0.002216269543673843,-0.017284038283396513
1761467743837075500,3.262075439453125,-0.008819266271591186,-0.00062918301532045,-0.02225287620453164
1761467743847028500,3.272028564453125,-0.003435819667577743,0.009784311911463736,-0.024444979421328752
1761467743856981500,3.2819814453125,0.0034457565397024155,-0.004285038641747087,-0.01525004823775962
1761467743866934500,3.2919345703125,0.004191606470942497,-0.001861172495689243,-0.03298497209381312
1761467743876888600,3.301888671875,-0.0017985738545656202,0.0044529242882505055,-0.02940019067591056
1761467743886841600,3.311841552734375,-0.008681319105625153,0.003478928156942129,-0.019473584216926246
1761467743896794600,3.321794677734375,-0.008233575338125229,-0.003274546424951404,-0.021505199642386286
1761467743906747600,3.33174755859375,-0.012274959683418274,0.0010538929671049118,-0.01981209545629099
1761467743916701400,3.341701416015625,0.0002928454667329788,0.004673891828861087,-0.014679901933297514
1761467743926654500,3.351654541015625,-0.008686579802632332,-0.006385992976371198,-0.04322508321506902
1761467743936607500,3.361607421875,-0.008536357676982879,-0.0058294368058443066,-0.03842634116383269
1761467743946560500,3.371560546875,-0.0007575403690338134,0.00016523703169077635,-0.03264536487590521
1761467743956513500,3.381513427734375,-0.012132336342334746,-0.00880247953357175,-0.02300047970144078
1761467743966467600,3.391467529296875,0.0010322656571865082,-0.0063593789640814065,-0.017674535438325256
1761467743976420400,3.40142041015625,0.007616320222616196,-0.008685684753488748,-0.017722210504952818
1761467743986373400,3.411373291015625,-0.012433949637413025,0.0023496318660676477,-0.018480116200167686
1761467743996326400,3.421326416015625,-0.0037543840974569318,-0.00303094692742452,-0.019705968200694767
1761467744006280400,3.431280517578125,-0.0027110125243663785,0.0036550153762102125,-0.02520701330238953
1761467744016233500,3.4412333984375,-0.010045008674263953,0.0051111872675828635,-0.007436141350120305
1761467744026186500,3.4511865234375,-0.007502338454127311,-0.004281001787446439,-0.016869886258244513
1761467744036139500,3.461139404296875,-0.00511339749097824,-0.004951941585261375,-0.02660904385372996
1761467744046093600,3.471093505859375,-0.0013747954845428467,-0.0015185330704785883,-0.02517190545639023
1761467744056046600,3.481046630859375,-0.021876316243410108,-0.007830127370078117,-0.021947591381333766
1761467744065999600,3.49099951171875,-0.004520107772946358,0.012063198362570256,-0.026514881030563264
1761467744075952600,3.50095263671875,0.0017646715849637983,-0.005311386014800519,-0.01691610002014786
1761467744085906400,3.510906494140625,-0.01873626465201378,0.0014018113556317985,-0.023455749188270418
1761467744095859500,3.520859375,0.0008656769186258316,0.012137176914233714,-0.02221603305917233
1761467744105812500,3.5308125,-0.0012310030996799469,0.0010674283021129666,-0.02064288372462615
1761467744115765500,3.540765625,-0.001235094752907753,-0.0011649338598363102,-0.025150533874798566
1761467744125719600,3.550719482421875,-0.00931669439971447,-0.009461363567411899,-0.021901067092176527
1761467744135672600,3.560672607421875,-0.0016869301736354826,-0.007666972697619348,-0.027971052921935913
1761467744145625600,3.57062548828125,0.014172902259230612,0.0009725165602751075,-0.004956288966815919
1761467744155578600,3.58057861328125,0.005039163210988044,0.00251247601127252,-0.032158914799522605
1761467744165532700,3.59053271484375,-0.006932429611682891,-0.0018441117630340158,-0.015807188930176196
1761467744175485700,3.600485595703125,-0.011721417453885078,0.00139128996161744,-0.013488427126407623
1761467744185438500,3.6104384765625,-0.007532733592391014,-0.010344795338436961,-0.024159714472852645
1761467744195391500,3.6203916015625,-0.01037584806382656,-0.0016001286730170248,-0.005838789156079292
1761467744205344500,3.630344482421875,0.0038379707276821134,-0.008213774659112095,-0.035378698829934
1761467744215298300,3.64029833984375,0.0047381344377994536,-0.010812887774221598,-0.022249624801520256
1761467744225251300,3.650251220703125,-0.013068155887722968,-0.007925988959986715,-0.022001440460421143
1761467744235204400,3.660204345703125,-0.0060369420766830445,0.004658237602002919,-0.02120325755374506
1761467744245157400,3.670157470703125,-0.004091068705916404,0.0012131021168082952,-0.02331000230833888
1761467744255111400,3.680111328125,-0.006488192975521087,-0.006142740538716316,-0.02540878295218572
1761467744265064400,3.690064453125,-0.01771393586695194,0.0006325257498770952,-0.019497220820840447
1761467744275017500,3.700017578125,-0.010979074653983116,-0.018641699970047918,-0.020917207153979687
1761467744284970500,3.709970458984375,0.005478139150142669,-0.006090480628516525,-0.011954659954179077
1761467744294924500,3.719924560546875,0.0012847791135311127,-0.0005570493608713149,-0.02379095422569662
1761467744304877600,3.729877685546875,-0.009790157130360603,-0.007625581241305917,-0.022648944583721457
1761467744314830600,3.73983056640625,0.006969839012622833,-0.005441990124527365,-0.02156591685367748
1761467744324783600,3.74978369140625,0.001581131711602211,-0.0012371771121397613,-0.021813571471814064
1761467744334737700,3.759737548828125,0.005169511592388153,0.0018755846135318278,-0.02138160979533568
1761467744344690700,3.769690673828125,0.003075169661641121,-0.003980100878421217,-0.022590857720933853
1761467744354643500,3.7796435546875,-0.0023111995518207548,0.004238550885207951,-0.02946985837863758
1761467744364596500,3.789596435546875,-0.012785831815004348,0.00634354207413271,-0.015708185535110532
1761467744374550500,3.799550537109375,-0.013538696008920669,-0.0007792224778793752,-0.015295074689574539
1761467744384503600,3.809503662109375,-0.005308043280243873,-0.00879256092775613,-0.01585183178950101
1761467744394456300,3.819456298828125,-0.01293956107199192,-0.003097746819630265,-0.02078019156977534
1761467744404409300,3.829409423828125,-0.00396188936829567,-0.005134422012697905,-0.006597462036274373
1761467744414363400,3.83936328125,-0.009050736939907074,-0.012943597926292568,-0.008330478107649832
1761467744424316400,3.84931640625,-0.010400397983193397,-0.005025828805379569,-0.010742799946386366
1761467744434269400,3.85926953125,0.0003723404437303543,0.007156045767106115,-0.028880879509542136
1761467744444222500,3.869222412109375,0.0012684125006198882,-0.00948742959043011,-0.009618033700156957
1761467744454175500,3.879175537109375,0.009943886387348175,0.0008750658014789224,-0.0010083915912546216
1761467744464129500,3.889129638671875,0.0072486559540033335,0.0065888586047105485,-0.011580492879543453
1761467744474082600,3.89908251953125,-0.019985387930274007,0.000612359744682908,-0.02027487239614129
1761467744484035600,3.90903564453125,-0.01564823550879955,-0.00557427473468706,-0.019517277228180318
1761467744493988600,3.918988525390625,-0.0071212301820516586,0.0021087175159715116,-0.011404643122293055
1761467744503942400,3.9289423828125,-0.011011223357915878,-0.005969959521386772,-0.017103073959611356
1761467744513895400,3.9388955078125,-0.013556231665611266,-0.0012028912500478327,-0.024967779452726244
1761467744523848400,3.948848388671875,-0.02553016257584095,0.0018728264008648693,-0.020608871857170013
1761467744533801500,3.958801513671875,-0.0057756607919931405,-0.002034976426325738,-0.007810692017246037
1761467744543755500,3.968755615234375,-0.00008943184912204742,0.0034704525895416735,-0.009126103731058537
1761467744553708500,3.97870849609375,-0.017297756281495092,0.003079608374740928,-0.011138046341668813
1761467744565527600,3.990527587890625,-0.011464812344312666,0.005804375429823995,-0.010758326309081166
1761467744575480600,4.00048046875,-0.0011415712505578994,-0.008236589279118925,-0.019679226324241607
1761467744585434400,4.010434326171875,-0.006982113972306251,-0.00027017697719857093,-0.017902425910066813
1761467744595387400,4.020387451171875,-0.003990530940890312,-0.004156644755415618,-0.010670282699447125
1761467744605340400,4.03034033203125,-0.012818565040826797,-0.00003583849836140871,-0.020667269247211514
1761467744615293400,4.04029345703125,-0.007730301991105079,0.002843169270362705,-0.006639401481859385
1761467744625247500,4.05024755859375,-0.01356909114718437,-0.005991586831305176,-0.018650997521355746
1761467744635200500,4.060200439453125,-0.0026449615508317946,-0.008677848506905138,-0.010296206956356763
1761467744645153500,4.070153564453125,0.0009457564175128936,-0.003296539061050862,-0.014754958197195082
1761467744655106600,4.0801064453125,-0.011326865178346633,-0.0024853505423292517,-0.015482523553073405
1761467744665060600,4.090060546875,0.00573299069404602,0.021238803791161626,-0.0036432336068712174
1761467744675013600,4.100013671875,-0.009832242706418037,0.003741104490775615,-0.01716475928528234
1761467744684966700,4.109966552734375,-0.009834580793976783,-0.0003226012841798365,-0.018070530752278862
1761467744694919700,4.119919677734375,-0.0035562311768531796,-0.006620915977098047,-0.007041406411491334
1761467744704872700,4.129872802734375,-0.009242460119724273,-0.010086747190449386,-0.01525255072209984
1761467744714826500,4.139826416015625,0.00886135184764862,-0.0010947912330739199,-0.014714388724789022
1761467744724779500,4.149779541015625,0.00467032989859581,-0.007156228430196643,-0.01817636574693024
1761467744734732300,4.159732177734375,-0.017179098337888717,0.00014918094603344798,-0.014938644201029092
1761467744744685300,4.169685302734375,-0.0016167875468730926,0.0023267441808246074,-0.008732793564535678
1761467744754639400,4.179639404296875,-0.009248889860510826,0.0007314560797065496,-0.01548263315092772
1761467744764592400,4.18959228515625,-0.007007832935452461,0.005462137863412499,-0.012292513606417924
1761467744774545400,4.19954541015625,-0.015692659172415732,-0.003571666208002716,-0.018607304510101674
1761467744784498400,4.20949853515625,-0.009557517418265342,0.0035527423118241128,-0.009558375934790819
1761467744794452500,4.219452392578125,-0.0070148471981286995,-0.006505052778776735,-0.013992741653043777
1761467744804405500,4.229405517578125,-0.006716156512498855,0.000331076851580292,-0.021999559030588714
1761467744814358500,4.239358642578125,-0.013601239851117133,-0.0026534919171594083,-0.0261333526333794
1761467744824311600,4.2493115234375,-0.010908932027220725,0.007989519182872027,-0.0072537339879199855
1761467744834265300,4.259265380859375,-0.0005845218896865845,-0.0070760941323824225,-0.014007519097067414
1761467744844218400,4.26921826171875,-0.004178162467479705,-0.004807820406835526,-0.014225490962993352
1761467744854171400,4.27917138671875,-0.019593758264183997,-0.0013296594348736106,-0.02224668392576277
1761467744864124400,4.28912451171875,0.004046645042300224,-0.0023127704543992877,-0.02146154316375032
1761467744874700500,4.299700439453125,-0.009269348126649856,-0.0025270707922056316,-0.018776340934075413
1761467744884653600,4.309653564453125,-0.00583235941529274,0.00023965397477149962,-0.018819285026658326
1761467744894606600,4.319606689453125,-0.004335983377695083,-0.001493215966131538,-0.01752173776309937
1761467744904560600,4.329560546875,0.004642272847890853,0.0016038915326818822,-0.01808057722225785
1761467744914513700,4.339513671875,-0.00912497121989727,-0.000018741233088076115,-0.01209521920233965
1761467744924466700,4.349466796875,-0.014661562559008598,0.004800787877850234,-0.013916041421331465
1761467744934419500,4.35941943359375,-0.011966916647553442,0.009314703372027725,-0.003951660235226154
1761467744944373500,4.36937353515625,-0.0034393267989158626,0.0022912344760261474,-0.010780136282090097
1761467744954326300,4.379326171875,-0.01915185971558094,-0.0006048157590441406,-0.013257778441999107
1761467744964279300,4.389279296875,-0.009874328282475472,-0.009024743982125074,-0.027299930461030453
1761467744974233000,4.399233154296875,-0.011972177344560622,-0.004267868311237544,-0.016087211447954178
1761467744984187100,4.409187255859375,0.0007476034969091414,-0.0022082506339997053,-0.005304682279378176
1761467744994140200,4.41914013671875,-0.007634440401196479,0.00802599700205028,-0.017087693727388976
1761467745004093200,4.42909326171875,-0.022001988449692724,-0.0042709005185402925,-0.0033507717326283454
1761467745014046200,4.439046142578125,-0.00374444722533226,-0.0022438151377253235,-0.013083463054709137
1761467745024000300,4.449000244140625,-0.007936053696274757,-0.0053889082304202016,-0.01720395878450945
1761467745033953300,4.458953369140625,-0.007787000614404678,-0.010344795338436961,-0.016122246228717267
1761467745043906000,4.468906005859375,0.0004395604610443115,-0.012491890369728207,-0.006349624755047262
1761467745053859000,4.478859130859375,-0.0070458268582820885,-0.006554609275236725,-0.025320538413152096
1761467745063812900,4.488812744140625,-0.01318272217810154,0.004228833208791911,-0.012081738666258751
1761467745073766000,4.498765869140625,-0.009590835165977477,-0.004054243826866149,-0.012960037604440002
1761467745083719000,4.508718994140625,-0.0025578677892684936,-0.0020932824848219752,-0.020006686446629462
1761467745093672000,4.518671875,-0.01871872899532318,0.0024033713473007082,-0.007139423425868153
1761467745103626000,4.5286259765625,-0.014085223975777625,0.006792929809447378,-0.021496358748804775
1761467745113579000,4.5385791015625,-0.01333820500075817,0.0016973785024136305,-0.0075452094814740115
1761467745123532000,4.548531982421875,-0.006156769064068794,-0.0042010501527227455,-0.017754048681631683
1761467745133485000,4.558485107421875,-0.0025707272708415984,-0.0018270144977606832,-0.022763912732899187
1761467745143439000,4.568439208984375,0.004760930791497231,0.00043236353527754544,-0.022744934037793426
1761467745153392000,4.57839208984375,-0.003471475502848625,0.007497863208409399,-0.006986150826606899
1761467745163345200,4.58834521484375,-0.007964110746979712,-0.00022494959598407148,-0.011234985643811523
1761467745173298200,4.598298095703125,-0.01395429107248783,-0.0036645503895357248,-0.004919464087765664
1761467745183252200,4.608252197265625,-0.004080547311902046,-0.0026017617299221455,-0.0027358547046780583
1761467745193205000,4.618205078125,-0.004079378268122673,-0.0019033311369828878,-0.01874492288250476
1761467745203158000,4.628157958984375,0.0032499417066574094,0.004256068275589496,-0.01357953947596252
1761467745213111000,4.638111083984375,-0.00857552064359188,-0.0069281918279826635,-0.012122691731154918
1761467745223065000,4.648065185546875,0.00010287585258483886,0.00472231581415981,-0.014456979897618292
1761467745233018000,4.65801806640625,-0.0009463409394025802,-0.0009267046571709215,-0.0072486742203123865
1761467745242971100,4.66797119140625,0.007281973701715469,-0.012219758897460997,-0.00456359985480085
1761467745252924200,4.677924072265625,0.007430442261695862,-0.0035359373074956234,-0.019489841231983152
1761467745262878200,4.687878173828125,-0.008881225591897964,0.0024837979060597717,-0.016934987383708355
1761467745272831200,4.697831298828125,-0.01950607998073101,0.007457403333857655,-0.020230412199907004
1761467745282784000,4.707783935546875,-0.009031447717547415,0.00712448158506304,-0.013613003354147077
1761467745292737000,4.717737060546875,-0.01830956367254257,-0.00400901644565165,-0.02190468382136896
1761467745302691000,4.727691162109375,-0.00708498982489109,0.002628485340066254,-0.00992023151712492
1761467745312644000,4.73764404296875,-0.0031926585614681243,0.012328151175379753,-0.01833245135778561
1761467745322597000,4.74759716796875,-0.016215806263685226,-0.013369294258765875,-0.013708335221093148
1761467745332550100,4.757550048828125,-0.007386603119969367,-0.0016004026676528155,-0.00845684443367645
1761467745342504000,4.76750390625,-0.0024497312396764754,-0.006141772424336523,-0.006236848562955856
1761467745352457000,4.77745703125,-0.008134791138768195,-0.010966288237646222,-0.019715320550929755
1761467745362410000,4.787409912109375,-0.01127776533961296,0.006266257320530712,-0.006555595655925572
1761467745372363000,4.797363037109375,-0.006489362019300461,0.0017917970539070664,-0.014491430156491696
1761467745382317000,4.807317138671875,-0.01621522174179554,-0.006854085412155837,-0.027127551302500066
1761467745392270000,4.81727001953125,-0.004993570503592491,-0.0032308899463154373,-0.02441210006503388
1761467745402223000,4.82722314453125,-0.004546411257982254,-0.0006208170457743108,-0.01618084454815835
1761467745412176100,4.837176025390625,-0.018460954841971397,0.001177665477246046,-0.008170227778330446
1761467745422130200,4.847130126953125,-0.013819851037859916,0.0019353519767522811,-0.01455660434719175
1761467745432083200,4.857083251953125,-0.004243628919124603,-0.0006698803518898784,-0.021932613007910547
1761467745442036200,4.8670361328125,-0.005287585014104843,-0.005002301799319684,-0.007857417235802858
1761467745451989200,4.8769892578125,-0.0003489595681428909,-0.0015090893886983393,-0.01526321824658662
1761467745461943000,4.886943115234375,-0.007235211950540542,0.0011722951823845505,-0.006606777853891253
1761467745471896000,4.89689599609375,-0.010679799446463585,0.0011801314289681612,-0.018618264295533298
1761467745481849000,4.90684912109375,-0.003793547064065933,-0.003136361796967685,-0.015633476331084965
1761467745491801900,4.9168017578125,-0.018310148194432257,-0.0024161942962557074,-0.0070089654466137285
1761467745501756200,4.926756103515625,-0.00409691392481327,-0.003173552002198994,-0.006625646951142698
1761467745511709000,4.936708984375,-0.0054430678367614746,-0.0017271708524785935,-0.011829206943605095
1761467745521662000,4.946661865234375,-0.006191255855560302,-0.010906137281935662,-0.02569571013478562
1761467745531615000,4.956614990234375,-0.009483867660164833,0.005224730644654482,-0.01770860210470855
1761467745541569000,4.966569091796875,-0.018012626552581786,0.000962305693514645,-0.020202738741692153
1761467745551522000,4.97652197265625,-0.00978197382390499,-0.002977317044045776,-0.028124088059179483
1761467745561475000,4.98647509765625,0.00577916792333126,0.001695113480091095,-0.019742464286182076
1761467745571428000,4.996427978515625,-0.0024509002834558484,0.001720558448601514,-0.006882964446768164
1761467745581382100,5.006382080078125,-0.010679799446463585,-0.00561997703993693,-0.02054167010616511
1761467745591335200,5.016335205078125,-0.007239888125658035,0.01104174636034295,-0.017837178654130547
1761467745601288200,5.0262880859375,-0.0017050503522157668,0.00030754984552040695,-0.005668346226308495
1761467745611241200,5.0362412109375,-0.0039484453648328775,0.0004646035707555711,-0.0196376704711467
1761467745621195000,5.046195068359375,-0.008885901767015456,-0.0009012231560423969,-0.018147358848154545
1761467745631148000,5.05614794921875,-0.015323825860023498,-0.005779533249512314,-0.017183135192189364
1761467745641101000,5.06610107421875,-0.02595101833641529,-0.004935958564840257,-0.017157598892133682
1761467745651054000,5.07605419921875,-0.015028642305731773,-0.0018990568206645546,-0.01087223501233384
1761467745661008100,5.086008056640625,-0.0026122283250093457,-0.0007761537379585206,-0.006175254568830132
1761467745670961200,5.095961181640625,-0.012637363255023955,0.0023753508292138573,-0.004401632492430508
1761467745680914200,5.1059140625,-0.018024901512265205,0.009482041029259562,-0.009379603568091989
1761467745690867200,5.1158671875,-0.003059387570619583,0.00647133317226544,-0.02319731744779274
1761467745700821200,5.1258212890625,-0.011439677903056144,0.01075315694361925,-0.013551646822039036
1761467745710774300,5.135774169921875,0.00277414088845253,0.015850169555377214,-0.011685725085996091
1761467745720727300,5.145727294921875,-0.002766542103886604,0.010253956983517856,-0.01759896771777421
1761467745730680000,5.15568017578125,0.006507482197880745,0.00639565585386008,-0.012871482538152486
1761467745740634000,5.165634033203125,0.005910100826621055,0.012136190533544868,-0.018520210748538372
1761467745750587000,5.1755869140625,-0.001720247921347618,0.0005761193875223398,-0.002068093244638294
1761467745760540000,5.185539794921875,-0.005611410140991211,-0.008117310281004757,-0.014452723847609013
1761467745770493000,5.195492919921875,-0.004113280537724495,-0.007091035973187536,-0.008658066094201057
1761467745780446000,5.205446044921875,-0.000969137293100357,0.0003485029104165733,0.001038914593681693
1761467745790400000,5.21539990234375,-0.01667699403464794,-0.007875628745928407,-0.011257270540855823
1761467745800353000,5.22535302734375,-0.002760696884989738,-0.0038766039713285863,-0.021991010397952048
1761467745810306000,5.23530615234375,0.0035240824729204177,0.0008796506450511514,-0.017012893191818146
1761467745820260000,5.245260009765625,-0.017573066091537474,0.006052541504614055,-0.029148627067636698
1761467745830213000,5.255213134765625,-0.012336919003725052,-0.003962291227094829,-0.0195451698821038
1761467745840166100,5.265166259765625,-0.009196282890439033,0.010740900250244885,-0.009333974328078328
1761467745850119200,5.275119140625,-0.00336450799703598,-0.0034139548956416545,-0.015074691670853643
1761467745860073200,5.2850732421875,0.003969488152861595,-0.003228935451246798,-0.027453531853854653
1761467745870026000,5.29502587890625,-0.01937748516499996,-0.012980240142252296,-0.02189697543894872
1761467745879979000,5.30497900390625,-0.009054244071245193,-0.0075016808670014135,-0.010530180109012872
1761467745889932000,5.31493212890625,-0.013693594309687614,0.0013247092651203275,-0.013218725073244422
1761467745899886000,5.324885986328125,-0.0062134676873683925,0.009495868625212461,-0.008593403360154479
1761467745909839000,5.334839111328125,-0.0029191023170948025,0.007374163763504475,-0.004759341622609645
1761467745919792000,5.344792236328125,-0.011745967373251915,0.0031073548981919883,-0.00100514018824324
1761467745929745200,5.3547451171875,-0.0015694412738084791,-0.0028070202447474,-0.011913907818682491
1761467745939699200,5.36469921875,-0.01817979981303215,-0.005204509840533137,-0.020723091087676584
1761467745949652200,5.37465234375,-0.0090495678961277,-0.008102496304363011,-0.013124982375185936
1761467745959605000,5.38460498046875,-0.01294131463766098,0.010963730954378843,-0.010436108617391436
1761467745969558300,5.394558349609375,-0.009801847568154335,-0.003989142701402306,-0.009293733649235218
1761467745979511300,5.40451123046875,-0.00950140331685543,-0.005240330072585493,-0.005988481558766216
1761467745989465300,5.41446533203125,0.0008230068206787109,0.005678301364742219,-0.006728468004800379
1761467745999418400,5.42441845703125,-0.010099369210004806,0.000677607000619173,-0.01658160736877471
1761467746009371400,5.434371337890625,-0.005458849927783012,-0.010493300431035458,-0.013559136008750647
1761467746019325200,5.4443251953125,-0.014737550404667853,-0.021877046895772218,0.0024881087549962102
1761467746029278200,5.4542783203125,-0.012791092512011527,0.0020849895805120466,-0.014483338181581347
1761467746039231200,5.464231201171875,-0.004559270739555359,-0.00132249904172495,-0.013229191668331622
1761467746049184300,5.474184326171875,-0.006955225965380668,-0.011445066464226692,-0.009621997489221393
1761467746059138300,5.48413818359375,-0.0033639234751462934,0.006187492995895445,-0.010047328495513647
1761467746069091300,5.49409130859375,-0.009348843103647232,-0.002487049309071153,-0.022649821366555987
1761467746079044400,5.50404443359375,-0.009048398852348326,0.007639975092839449,-0.006344729384221136
1761467746088997400,5.513997314453125,0.0033721067816019057,0.009708561527822165,-0.014858783897850662
1761467746098951400,5.523951416015625,-0.013241174367070197,-0.008439856766257435,-0.00928754137046635
1761467746108904400,5.533904541015625,-0.010250175857543944,0.002211922162119299,-0.004762994884420186
1761467746118857500,5.543857421875,-0.007257423782348633,0.00042673751208931204,-0.005824230907764285
1761467746128810500,5.553810546875,0.0009720599025487899,-0.010446520413551479,-0.017370218729507177
1761467746138764300,5.563764404296875,0.004261749097704887,0.008331701950356363,-0.023938235475588588
1761467746148717300,5.57371728515625,-0.0009773205995559692,0.006590593904070556,-0.012690974872093646
1761467746158670300,5.58367041015625,-0.004118541234731674,-0.012918207756709307,-0.015077669079229234
1761467746168623400,5.593623291015625,-0.01175356615781784,0.004508965324424207,-0.013370518101472407
1761467746178577400,5.603577392578125,-0.009513678276538848,-0.003487348925415426,-0.0017508987879380582
1761467746188530400,5.613530517578125,-0.010112813213467598,0.004586725002061576,-0.009053878745064138
1761467746198483200,5.623483154296875,0.004106266275048256,0.007933350282534956,-0.012528459520451724
1761467746208436200,5.633436279296875,-0.020136779099702833,-0.0010034414215013385,-0.011904190142266452
1761467746218390300,5.643390380859375,-0.013401333364844321,0.009063304160535334,-0.021745566003210842
1761467746228343300,5.65334326171875,-0.0009802432090044021,-0.0024410364765673873,-0.01627153677260503
1761467746238296300,5.66329638671875,-0.014748071798682212,-0.0017074249723926186,-0.006802081230282783
1761467746248249300,5.673249267578125,-0.004870236384868621,-0.012562215659581124,-0.011264978923276067
1761467746258203400,5.683203369140625,-0.003675473642349243,0.0010321925919502973,-0.0014484269763343036
1761467746268156400,5.693156494140625,-0.005473462975025177,0.010068170354142784,-0.00769581519961357
1761467746278109400,5.703109375,-0.0006856441766023635,-0.012153872320707887,-0.00652702714856714
1761467746288062200,5.713062255859375,0.00454699577987194,0.004122030099760741,-0.006764324769470841
1761467746298016300,5.723016357421875,-0.011166121658682823,0.008493778910581022,-0.015872454452421515
1761467746307969300,5.73296923828125,-0.02269055523574352,-0.015572978315502405,-0.014173779042065142
1761467746317922300,5.74292236328125,0.0055932899624109265,-0.010074472230765968,-0.0055469666026532645
1761467746327875300,5.752875244140625,-0.006380640947818756,-0.0014021766818128525,-0.006328052244056016
1761467746337829400,5.762829345703125,-0.003090367230772972,-0.005706869872100651,-0.0009113609575666486
1761467746347782400,5.772782470703125,-0.004737549915909767,-0.003567702418938279,-0.002098323986120522
1761467746357735400,5.7827353515625,-0.0035398645639419554,0.004661708200722933,-0.014094704190175979
1761467746367688400,5.7926884765625,-0.00847790548801422,-0.006422507328167557,-0.029487978557217864
1761467746377642500,5.802642578125,-0.002042904004454613,-0.003465995610132813,-0.008529416479542851
1761467746387595500,5.812595458984375,-0.003839139771461487,0.0015175649560987949,-0.02352105124313384
1761467746397548500,5.822548583984375,-0.015059037443995475,0.004780201747547835,-0.012829396962095051
1761467746407501300,5.832501220703125,0.00020808979272842406,0.006925908539351076,0.0005775806922465563
1761467746417455400,5.842455322265625,-0.0231359609156847,-0.004055120609700679,-0.014145192268397657
1761467746427408100,5.852408203125,-0.016252046620845794,-0.0013504647608846426,-0.007741462705936283
1761467746437361200,5.862361083984375,-0.0038321255087852475,0.005535422295331955,-0.028703678045421836
1761467746447314200,5.872314208984375,0.0003565583527088165,-0.0077307951814495025,-0.019572404948901383
1761467746457268200,5.882268310546875,-0.0072749594390392296,0.0037345286195166407,-0.02040666381595656
1761467746467221200,5.89222119140625,-0.0069791913628578185,-0.006056194766424596,-0.0018079262048006056
1761467746477174300,5.90217431640625,-0.006228665256500244,0.006086644703615456,-0.01838178865853697
1761467746487127300,5.912127197265625,-0.005030395382642746,-0.0026031682357192036,-0.01676542123677209
1761467746497081300,5.922081298828125,-0.005182371073961258,0.004035265131760389,-0.014924834871385245
1761467746507034400,5.932034423828125,-0.002338087558746338,0.01298763799741864,-0.012561886866018175
1761467746516987400,5.9419873046875,-0.009969605350494385,-0.0008323957035318017,-0.01564653674205765
1761467746526940400,5.9519404296875,0.013370353704690932,-0.008529526077397168,-0.0073530661765486
1761467746536894200,5.961894287109375,0.005588029265403747,0.00947190322773531,-0.02246487498739734
1761467746546847200,5.97184716796875,-0.003394318613409996,0.002555712364800274,-0.024517186141014096
1761467746556800300,5.98180029296875,-0.006090133568644523,-0.005208144836034626,-0.01621874713944271
1761467746566753300,5.991753173828125,-0.012826163825392723,-0.003841112532839179,-0.01705050352215767
1761467746576707300,6.001707275390625,-0.01581950042247772,0.0066096639307215805,0.00006203238554298877
1761467746586660400,6.011660400390625,-0.013426467806100845,-0.00036061347331851716,-0.00759717713072896
1761467746596613400,6.02161328125,-0.005049100083112716,0.002896178099233657,-0.011682254487276077
1761467746606566400,6.03156640625,-0.021657705056667326,-0.004951758922170847,-0.011052651346847414
1761467746616520400,6.0415205078125,-0.006696282768249511,-0.006574519552104175,-0.016688757537677883
1761467746626473500,6.051473388671875,-0.011338555616140365,0.005422883565258234,-0.01926865449566394
1761467746636426500,6.061426513671875,-0.010738251635432242,0.015858316329214722,-0.004637395743373781
1761467746646379300,6.071379150390625,0.003329436683654785,-0.011765768052265048,-0.0017706629343330858
1761467746656333600,6.08133349609375,-0.01717033050954342,-0.0016117825781926513,-0.013739022620301694
1761467746666286300,6.091286376953125,-0.013881225836277006,-0.0047785029808059334,-0.009127491970546544
1761467746676239400,6.1012392578125,-0.008946692043542861,-0.009197999923489988,-0.010564959161449223
1761467746686192400,6.1111923828125,-0.0058043023645877835,-0.006454162841755896,-0.009702551912143826
1761467746696146200,6.121146240234375,-0.006851765590906143,0.005244732253067195,-0.005087970788776874
1761467746706099200,6.13109912109375,-0.011341478225588798,-0.00444026573607698,-0.0027022812286391852
1761467746716052200,6.14105224609375,-0.0138859020113945,-0.011632624925579874,-0.011365005231648682
1761467746726005200,6.151005126953125,-0.017326982375979422,0.0020091478653252123,-0.016634908458590506
1761467746735959300,6.160959228515625,-0.005654664760828018,-0.002072422359883785,-0.008536759535782038
1761467746745912300,6.170912353515625,-0.014480945295095443,-0.004516308380663395,-0.0073820730753242966
1761467746755865300,6.180865234375,-0.013882979401946067,-0.006138795015960931,-0.007686261919979006
1761467746765818400,6.190818359375,-0.009842179578542708,0.004914148591831326,-0.00754573920443654
1761467746775772400,6.2007724609375,-0.015825930163264272,0.0025635668776929376,-0.02232815166413784
1761467746785725400,6.210725341796875,0.0033259295523166655,0.0035422757167369126,-0.019191205345280467
1761467746795678500,6.220678466796875,-0.01149170035123825,0.003230926478933543,-0.019491339069325476
1761467746805631500,6.230631591796875,-0.014034955093264578,-0.0012357158074155449,-0.013680497366096823
1761467746815585300,6.240585205078125,0.0024199206233024594,0.003129365800600499,-0.016208518006373195
1761467746825538300,6.250538330078125,-0.007606383350491523,0.000252604787889868,-0.011062186360172926
1761467746835491300,6.2604912109375,0.004963175365328788,0.0014552951085381209,-0.011671513897553085
1761467746845444400,6.2704443359375,-0.010749942073225974,0.004934058868698775,-0.009412190663442016
1761467746855398400,6.2803984375,-0.01150046817958355,0.0008709193493239582,-0.004681545412354171
1761467746865351400,6.290351318359375,-0.015543606090545654,0.006481069114990532,-0.005234594451542943
1761467746875304200,6.30030419921875,-0.002825578814744949,-0.0007280402799136936,-0.0017262575370259581
1761467746885258500,6.310258544921875,-0.00746317548751831,-0.009338723568432033,-0.013362170398235321
1761467746895211300,6.320211181640625,-0.011655366480350494,0.003691968119423836,-0.007451320652943104
1761467746905164300,6.330164306640625,-0.002527472651004791,-0.004994337688572705,-0.012972093368414789
1761467746915117300,6.340117431640625,-0.004022679644823074,-0.007369779849331825,-0.007497826675791293
1761467746925071400,6.3500712890625,-0.01300093587040901,-0.006162157625239342,-0.008562533297855406
1761467746935024400,6.3600244140625,0.0001654196947813034,-0.005328720742091536,-0.02532344275629148
1761467746944977400,6.369977294921875,-0.01061199490725994,-0.002246938676573336,-0.014360899112001061
1761467746954930400,6.379930419921875,-0.009413725033402442,-0.0053720301608555015,-0.007077062246762216
1761467746964884200,6.38988427734375,-0.0068710548132658,-0.013690160243585705,-0.015176983001548796
1761467746974840300,6.39984033203125,-0.0023801731348037716,-0.0007212269466370343,-0.018484737576358018
1761467746984793300,6.40979345703125,-0.01809212152957916,0.0023021394625306127,-0.02913218738948926
1761467746994746400,6.419746337890625,-0.005972060146927833,0.002331676084268838,-0.008500190385058521
1761467747004700400,6.429700439453125,-0.009113865303993225,0.003622884938586503,-0.011735920903272926
1761467747014653400,6.4396533203125,-0.02288110937178135,0.002139295317325741,-0.01817431992031634
1761467747024606500,6.4496064453125,-0.0031306992411613463,0.009516326891351491,-0.021878106341697276
1761467747034559500,6.4595595703125,0.004348258337378502,0.0016654489941895006,-0.010636289098300038
1761467747044513500,6.469513427734375,-0.0029839842468500134,-0.0013666852433234452,-0.008037322113662957
1761467747054466600,6.479466552734375,-0.0014887772530317305,0.011488777741789817,-0.0036544491206295785
1761467747064419600,6.489419677734375,0.0009042553633451461,-0.0039319691540673374,-0.002545538030657917
1761467747074372600,6.49937255859375,-0.0008902268379926681,0.0022416779795661566,-0.01489447626573965
1761467747084326400,6.509326416015625,0.001356090784072876,-0.00820697959214449,-0.01663896357920021
1761467747094279400,6.519279541015625,-0.014504910692572592,-0.005863119879737496,-0.010767495996225625
1761467747104232400,6.529232421875,-0.012712766578793526,0.005196490930858999,-0.009746263189706951
1761467747114185500,6.539185546875,-0.015110475370287894,0.0018279095469042658,-0.0018966091352514921
1761467747124139500,6.549139404296875,-0.02244096438884735,0.0021478987488895655,-0.014385850890167057
1761467747134092500,6.559092529296875,-0.005530746120214462,0.00489047545529902,-0.011346300531178712
1761467747144045600,6.569045654296875,-0.007922609692811965,-0.006509820285439491,-0.005886738217342645
1761467747153998600,6.57899853515625,-0.0041822541207075115,0.003924991424009204,-0.010902118693944066
1761467747163952600,6.58895263671875,-0.006726677906513214,-0.006058258859347552,-0.014811565488949418
1761467747173905700,6.59890576171875,-0.000443067592382431,-0.00215960745299235,-0.019877342712227256
1761467747183858400,6.6088583984375,-0.004631166931986809,-0.0005589490570127964,-0.016309019238781183
1761467747193811500,6.6188115234375,-0.012260346636176108,-0.007797759470436721,-0.015137272045668214
1761467747203765500,6.628765625,-0.010014029014110564,0.0006847308611497283,-0.0031837080700322985
1761467747213718500,6.638718505859375,-0.007768880435824394,0.0016100290125235913,-0.011017086843121797
1761467747223671600,6.648671630859375,-0.0028290859460830685,-0.005406370821874588,-0.0064649034314788875
1761467747233624600,6.65862451171875,0.0004623568147420883,0.0009372443174943327,-0.01906295758942142
1761467747243578400,6.668578369140625,0.00854629454910755,-0.004957074418105185,-0.023476170921791342
1761467747253531400,6.678531494140625,-0.01479483354985714,-0.0026129955099895596,-0.006771740890946239
1761467747263484400,6.688484375,-0.012547346884012222,-0.001221742080990225,-0.01035924398889765
1761467747273437400,6.6984375,-0.018981179323792455,0.005457808748167008,-0.01962868344709277
1761467747283391500,6.7083916015625,-0.01688625287115574,-0.010657733745127915,-0.012021953036729247
1761467747293344500,6.718344482421875,-0.012096680507063865,0.01065601671207696,-0.006454619499482214
1761467747303297500,6.728297607421875,-0.013595394632220268,0.009456815256457776,-0.025233024526480585
1761467747313250600,6.73825048828125,-0.010156652355194092,0.0077096245292574165,-0.01363322415826842
1761467747323204600,6.74820458984375,0.00301028773188591,0.001731426902487874,-0.012112736592721194
1761467747333157600,6.75815771484375,-0.005222118562459945,-0.0012036401687189936,-0.01565070146052167
1761467747343110700,6.768110595703125,0.0009101005822420119,0.007844521221611648,-0.011574154470302163
1761467747353064400,6.778064453125,-0.010012275448441505,0.006441705218981951,-0.019202713119983672
1761467747363017500,6.788017578125,-0.009865560454130172,-0.004720014259219169,-0.013914872377552092
1761467747372970500,6.797970458984375,-0.006721417209506034,-0.0002840959046967327,-0.006437704897299408
1761467747382923500,6.807923583984375,-0.0011824877828359604,-0.00905773293627426,-0.003897701558284461
1761467747392877600,6.817877685546875,0.0028588965624570845,-0.0017388978228904306,-0.016205960723105817
1761467747402830600,6.82783056640625,-0.009111527216434477,-0.011289948967751115,-0.00935983942169696
1761467747412783400,6.837783447265625,-0.006118775141239166,-0.004833996027708053,-0.017464783411473034
1761467747422736400,6.847736328125,0.0012158055305480956,0.0020134039153344926,-0.00659183601308614
1761467747432690700,6.857690673828125,-0.013448679637908936,0.00021216317964717745,-0.009429525390733032
1761467747442643500,6.8676435546875,-0.015094693279266356,-0.0023356216070242225,0.0003070749214850366
1761467747452596500,6.877596435546875,0.002409399229288101,0.004271338909957558,-0.01740824918495491
1761467747462549500,6.887549560546875,-0.01644610788822174,0.008861132651939987,-0.008771098014619201
1761467747472503300,6.89750341796875,-0.01764379324018955,0.0034270701055414974,-0.006912829862069338
1761467747482456300,6.907456298828125,-0.01659340740442276,0.0019176153906621037,-0.0011598192933015524
1761467747492409300,6.917409423828125,-0.001931260323524475,0.002693038476258516,-0.01113254818264395
1761467747502362400,6.9273623046875,-0.008666706058382987,0.003929302272945643,-0.009316055078897625
1761467747512316400,6.93731640625,-0.004175239858031273,-0.0003327208193950355,-0.0048479514878243205
1761467747522269400,6.94726953125,-0.002229366487264633,0.006230437088478356,-0.007527472895383834
1761467747532222500,6.957222412109375,-0.00597264466881752,0.00757416158132255,-0.014770557625126093
1761467747542175500,6.967175537109375,-0.008667290580272675,-0.00006826119692996144,-0.02205844961097464
1761467747552129500,6.977129638671875,-0.005973813712596893,-0.010082911265548318,-0.00456495156167075
1761467747562082600,6.98708251953125,-0.0079167644739151,0.0020991642363369463,0.007553520652092993
1761467747572035600,6.99703564453125,-0.006569441518187523,-0.002995948679279536,-0.0012898754137568174
1761467747581988600,7.006988525390625,-0.0046200610160827636,0.003924297304265201,-0.0025370076643303034
1761467747591942700,7.016942626953125,-0.0008779518783092498,0.008828983948007225,-0.01661346381176263
1761467747601895700,7.026895751953125,0.004957330146431922,-0.006291574424877763,-0.017184413833823055
1761467747611848700,7.0368486328125,-0.005215688821673393,-0.009297989699244499,-0.011567761262133717
1761467747621801700,7.0468017578125,-0.005215688821673393,0.007601944637391716,0.0007056457850150764
1761467747631755500,7.056755615234375,-0.0004296235889196396,-0.01495274579161778,-0.010178462328203021
1761467747641708500,7.06670849609375,0.003461538630723953,-0.005708111981116235,-0.014650273980014025
1761467747651661300,7.076661376953125,-0.003269230929017067,-0.016734879968035965,-0.008230835391767322
1761467747661615600,7.08661572265625,-0.005512041419744491,-0.003324486513901502,-0.013331556064262985
1761467747671568400,7.096568359375,-0.0014718261182308195,-0.0018790734785608947,-0.010298124918807298
1761467747681521400,7.106521484375,0.00511339749097824,0.00719840533779934,-0.010742032761406152
1761467747691474400,7.116474365234375,-0.01733282759487629,0.005149363853503018,-0.025719492869172245
1761467747701428500,7.126428466796875,-0.015541268002986906,-0.00604413900244981,-0.02097344911955297
1761467747711381500,7.136381591796875,0.00017126491367816925,0.003943239466752857,-0.023951642946433274
1761467747721334500,7.14633447265625,-0.002971709287166595,-0.002374254850670695,-0.006831946645583957
1761467747731287600,7.15628759765625,-0.012848960179090499,0.0009398198670707642,-0.004119217088166624
1761467747741241300,7.166241455078125,0.0012158055305480956,0.007443155612796544,-0.015655085374694316
1761467747751194400,7.1761943359375,-0.010302782827615738,-0.0029654987420886752,-0.010167411211226135
1761467747761147400,7.1861474609375,-0.011647183173894881,0.0011833462993614374,-0.015915124550368635
1761467747771100400,7.196100341796875,0.003617605975270271,0.008465192136913538,-0.00905166852166876
1761467747781054500,7.206054443359375,0.000027472528815269467,0.007038191541098058,-0.004235737873613834
1761467747791007500,7.216007568359375,-0.0026671733826398847,-0.003396400972642004,-0.0067634662529453635
1761467747800960500,7.22596044921875,-0.0029699557214975356,-0.00022476693289354442,-0.009654529785644262
1761467747810913500,7.23591357421875,-0.008059387814998627,0.0067587352789007125,-0.020316976238507777
1761467747820867600,7.24586767578125,-0.011496961048245428,0.014431607994344085,-0.01692649354999885
1761467747830820600,7.255820556640625,-0.008800561571121215,-0.007621361723914742,-0.010236384794209153
1761467747840773600,7.265773681640625,-0.0004196867167949676,0.007178348930459469,-0.018346059758029876
1761467747850726700,7.2757265625,0.01035363623201847,0.003546787495072931,-0.012469258412811905
1761467747860680700,7.2856806640625,-0.01164250699877739,-0.005181293361727148,-0.014982318945974111
1761467747870633700,7.2956337890625,-0.007899813339114188,0.004065331476461142,-0.017423556351941077
1761467747880586500,7.30558642578125,0.004518938729166984,-0.00696448698407039,-0.0005110913272947073
1761467747890539500,7.31553955078125,-0.00999590883553028,-0.00648753538839519,-0.006812091167643666
1761467747900493600,7.32549365234375,-0.0007154547929763794,0.0004427935977466404,-0.010565708080120384
1761467747910446300,7.3354462890625,-0.0029576807618141173,0.0009924633697606623,-0.014209763670898974
1761467747920399400,7.3453994140625,-0.004452303233742714,-0.003250654092710465,-0.01346694594696164
1761467747930353400,7.355353515625,-0.007893383598327636,-0.004598999961744994,-0.00720481681227684
1761467747940306400,7.365306396484375,-0.012681786918640137,-0.003250087837129831,-0.0031740269262343643
1761467747950259500,7.375259521484375,-0.0020586860954761505,-0.014332221006788312,-0.014633487241994588
1761467747960212500,7.38521240234375,-0.012383096233010291,-0.008339191137067973,-0.016020959545020013
1761467747970163000,7.395162841796875,-0.01178454581797123,-0.004328311527892947,-0.004468450650945305
1761467747980116000,7.405115966796875,-0.010288169780373573,-0.0049158290922641755,0.0037622203440405427
1761467747990069000,7.415069091796875,-0.012232874107360838,0.009129848324414342,-0.0068650269312784075
1761467748000022000,7.42502197265625,-0.0013087445110082625,-0.009602817864716052,-0.006730185037851333
1761467748009975800,7.434975830078125,-0.010732406416535377,-0.0019218714406713843,-0.008853990525100379
1761467748019928800,7.4449287109375,-0.013277414724230765,0.0036293146793730554,-0.007919486153963953
1761467748029881900,7.4548818359375,-0.020014614024758338,0.006351213923934847,-0.00019185104398056863
1761467748039834600,7.464834716796875,-0.0010106383472681046,-0.0018647526922635732,-0.008580032421927898
1761467748049789000,7.474788818359375,-0.012834931653738021,-0.006988854240346699,-0.010230612640548496
1761467748059741700,7.48474169921875,0.004972527715563774,0.006120546973217279,-0.021269107597880064
1761467748069694700,7.49469482421875,0.010360065972805022,-0.004533131651300937,-0.006299173209443688
1761467748079647700,7.504647705078125,-0.006549567773938178,-0.00014501622756943105,-0.005417878596577793
1761467748089601800,7.514601806640625,-0.015230302357673644,0.00023444807669147847,0.0014483539110980927
1761467748099554800,7.524554931640625,-0.009247720816731453,0.0010735475156456232,-0.015130750973336398
1761467748109507800,7.5345078125,-0.00954582698047161,0.0014950973959639668,-0.02337070125332102
1761467748119460900,7.5444609375,-0.01807341682910919,-0.007559256273135542,-0.010497337285336106
1761467748129415000,7.554414794921875,-0.002516366735100746,-0.0007189619243144989,-0.013555884605739265
1761467748139368000,7.564367919921875,-0.003262801188230514,-0.0015262597192078828,-0.017896050968207417
1761467748149321000,7.574321044921875,-0.004011573728919029,0.0010732187220826744,0.0018298275093547999
1761467748159274800,7.584274658203125,0.00003039513826370239,-0.001296670480724424,-0.003195033181644976
1761467748169227800,7.594227783203125,-0.008201426634192465,-0.008738912778068333,-0.01170320594375953
1761467748179180800,7.604180908203125,-0.01059679733812809,-0.0038559813084080813,-0.019215773530956357
1761467748189133800,7.6141337890625,-0.016883330261707304,0.009757387371920048,-0.0061436355878598985
1761467748199087900,7.624087890625,-0.014639935249090194,-0.0013745580225251613,-0.016669724043644963
1761467748209041000,7.634041015625,0.001370119309425354,-0.012559640110004693,-0.006471022645011544
1761467748218994000,7.643993896484375,-0.00042670097947120663,-0.0038146446510218084,-0.00232541074026376
1761467748228947000,7.653947021484375,0.004210311171412468,-0.004046772906463593,-0.018037687928602098
1761467748238901000,7.66390087890625,-0.009406126248836516,-0.004150562074501067,-0.014940854424424468
1761467748248854000,7.67385400390625,-0.002823240727186203,-0.005042743407562375,-0.015367464072350411
1761467748258807000,7.68380712890625,-0.002524550041556358,-0.002935980386659503,-0.01729413955230266
1761467748268759800,7.693759765625,-0.006862871506810188,-0.0018994404131546616,-0.023910123625956476
1761467748278713900,7.7037138671875,-0.003420622098445892,-0.0003732354928739369,-0.016922401896771043
1761467748288666600,7.71366650390625,0.008851414975523948,0.0040983204306103286,-0.01472443519476801
1761467748298619600,7.72361962890625,0.007504676541686057,-0.005093395882565528,-0.011233159012906252
1761467748308572700,7.73357275390625,-0.006561842733621597,0.006447532171569764,-0.014366105010081082
1761467748318526700,7.743526611328125,-0.02287234154343605,-0.002525481623318046,-0.00942788142291829
1761467748328479700,7.753479736328125,0.008249941951036453,0.002762267787568271,-0.0005560264475643634
1761467748338432800,7.763432861328125,-0.008659691795706748,0.0051492177230305965,-0.004125573763716966
1761467748348385800,7.7733857421875,-0.017192542341351508,-0.004032835712656379,-0.007365487266704439
1761467748358339800,7.78333984375,-0.0010328501790761947,-0.006133095927536488,-0.014651717018429189
1761467748368292900,7.79329296875,-0.007765373304486275,-0.000742543729301542,-0.015165511759463696
1761467748378246000,7.803245849609375,0.006150923845171928,-0.004471702053956687,-0.002446772097609937
1761467748388199700,7.81319970703125,-0.006117606097459793,-0.00434277844466269,-0.00803746824413538
1761467748398152700,7.823152587890625,-0.012847206613421439,-0.008909593169856816,-0.014541205848660319
1761467748408105700,7.833105712890625,-0.0007259761869907379,-0.0015018741966225206,-0.005650043384637683
1761467748418058800,7.843058837890625,0.01019815340936184,0.00603569996766746,-0.002442442982364446
1761467748428012800,7.8530126953125,0.002116553762555122,-0.003513561078906059,-0.006000500790122896
1761467748437965800,7.8629658203125,-0.012252747851610183,0.014286884027719497,-0.014519103614706545
1761467748447918800,7.8729189453125,-0.010908347505331038,0.007121796437632292,-0.01549308147970587
1761467748457872000,7.882871826171875,-0.005971475625038147,0.007625562974996864,-0.012648030779510737
1761467748467826000,7.892825927734375,-0.011059738674759864,-0.0016458675108850002,-0.003815704096946865
1761467748477779000,7.902779052734375,-0.0014805939465761184,0.0029734811191447076,-0.01225941505441442
1761467748487732000,7.91273193359375,0.006152092888951301,0.00923791180877015,-0.01602782767722383
1761467748497684700,7.922684814453125,-0.00417056368291378,0.0013827961279079318,0.003708608726970851
1761467748507639000,7.93263916015625,-0.0031236849784851074,0.00020522198220714925,-0.011243881336320191
1761467748517592000,7.942592041015625,-0.004320785808563233,-0.001329074912983924,-0.011071721373498438
1761467748527544800,7.952544921875,-0.0016243863314390182,-0.00014870602199807762,-0.01489401960801333
1761467748537497900,7.962497802734375,-0.0002794014632701874,-0.0015013810062780976,-0.014988620822597293
1761467748547451600,7.97245166015625,-0.0023737433940172192,0.0005793159916065633,0.004310300947166979
1761467748557404700,7.98240478515625,-0.014196283134818076,0.003730528297834098,-0.019144626257196068
1761467748569224000,7.994223876953125,-0.002673603123426437,-0.0048738531140610575,-0.016404698165599255
1761467748579178000,8.004177978515624,-0.0029711247652769086,0.015265976459253578,-0.014325809532310814
1761467748589130800,8.014130859375,-0.012100187638401984,-0.0009271430485881865,-0.013206778907123953
1761467748599083800,8.024083740234374,0.0010679214924573899,-0.008145513462182135,-0.0016425065100193024
1761467748609036800,8.034036865234375,-0.0023731588721275327,-0.005304609214141965,-0.00989781875591725
1761467748618990800,8.043990966796875,-0.01583820512294769,0.013886979723628609,-0.01812129282513633
1761467748628944000,8.05394384765625,0.004962006321549415,0.0045423378710635,-0.01912593982303515
1761467748638897000,8.06389697265625,-0.004016834425926208,0.001825041736382991,-0.01025885235434398
1761467748648849700,8.073849609375,-0.0014706570744514465,-0.007838949997350573,-0.01490777413873002
1761467748658804000,8.083803955078125,0.002271452063322067,-0.002182001947890967,-0.01177011543381959
1761467748668756700,8.0937568359375,-0.018972996017336843,0.0019876666858792305,-0.017168540411256254
1761467748678709800,8.103709716796875,-0.007899813339114188,-0.006550956013426184,-0.007281297848280519
1761467748688662800,8.113662841796875,-0.0007154547929763794,0.004067998357582837,-0.015269355726428329
1761467748698616800,8.123616943359375,-0.004905307698249817,0.006324709509499371,-0.017665840675216166
1761467748708569900,8.13356982421875,-0.011789221993088721,-0.004113061342015862,-0.01200193316200748
1761467748718523000,8.14352294921875,-0.007750175735354423,0.008044993963465094,-0.016777129940874873
1761467748728476000,8.153475830078126,0.0015250176101922989,-0.00316609934810549,-0.004572459014691412
1761467748738429700,8.1634296875,-0.012392448583245277,-0.0022380977829918264,-0.006366320161521434
1761467748748382700,8.1733828125,-0.009848024797439575,-0.008946162320580334,-0.001470182150416076
1761467748758335700,8.183335693359375,-0.006707973206043243,0.012655227705277501,-0.006358666578028351
1761467748768289800,8.193289794921874,-0.008204349243640899,-0.012671722182352095,-0.014721695248410105
1761467748778242800,8.203242919921875,-0.006405775389075279,-0.009945091963745652,0.002034428437054157
1761467748788195800,8.21319580078125,-0.008199673068523407,0.000901405819132924,-0.013510255365725607
1761467748798148900,8.22314892578125,-0.012243395501375197,-0.008590279821306467,-0.010907050597388297
1761467748808103000,8.23310302734375,-0.008802899658679962,-0.015338055314775556,-0.0038183161791414022
1761467748818056000,8.243055908203125,-0.008359247544407844,-0.004480616012774408,-0.002948090949561447
1761467748828009000,8.253009033203124,-0.013895838883519172,-0.0037939306565560396,-0.000669533292017877
1761467748837962000,8.2629619140625,0.007054010164737701,0.0012304003114812076,-0.014999964200519024
1761467748847915800,8.272915771484374,-0.009408464336395262,-0.00237644680775702,-0.004275594959966838
1761467748857868800,8.282868896484375,-0.013598901763558387,0.0070290035876445466,-0.004982208859361708
1761467748867821800,8.29282177734375,-0.009856208103895188,-0.003799958538543433,-0.010980079300981015
1761467748877776000,8.30277587890625,-0.014046061009168625,-0.004259648472163826,-0.007824190819635988
1761467748887729000,8.31272900390625,-0.004171148204803466,-0.0024782084154896435,-0.010617584397830069
1761467748897682000,8.322681884765625,-0.01808744535446167,0.005146587374527007,0.0070549234801903365
1761467748908257800,8.3332578125,-0.016145663636922835,-0.013165022124629467,-0.005763111837673932
1761467748918210800,8.3432109375,-0.008366846328973769,-0.012688819447625429,-0.014531707367952913
1761467748928163800,8.353163818359375,-0.007470189750194549,0.0015735694596543906,-0.00016083485120907425
1761467748938117600,8.36311767578125,-0.006722001731395721,-0.01573806921672076,-0.002747307680454105
1761467748948070700,8.373070556640625,-0.004327215549349785,0.0026095066449604927,-0.0004677636422216892
1761467748958023700,8.383023681640625,-0.012259177592396735,0.002287416817434132,-0.012985793100204318
1761467748967977700,8.392977783203126,-0.004476268631219864,0.005959839986171573,-0.011194397905096411
1761467748977930800,8.4029306640625,-0.007018938851356506,-0.0036727702286094427,-0.002363075869530439
1761467748987883800,8.4128837890625,-0.011060907718539237,-0.001253342795651406,-0.007854385028500109
1761467748997836800,8.4228369140625,-0.014506079736351965,-0.0056897726068273185,-0.006272741860244423
1761467749007790800,8.432790771484376,-0.016451953107118604,0.0049978082872927185,-0.0031881650494411584
1761467749017744000,8.442743896484375,-0.0032861820638179777,-0.006068378394562751,-0.012535546848364174
1761467749027697000,8.45269677734375,-0.007925532302260398,-0.005352850536350161,-0.005748918915539979
1761467749037650000,8.46264990234375,-0.015858078867197034,0.001968870653863996,-0.004163238892983645
1761467749047604000,8.47260400390625,0.002547346395254135,0.0036527868865057823,-0.005267948731873184
1761467749057557000,8.482556884765625,-0.007477204012870788,-0.004939611826650798,-0.013938472448848186
1761467749067510000,8.492510009765626,-0.010168927314877509,0.0010186572569422423,-0.018616127137374133
1761467749077463800,8.5024638671875,-0.01286415774822235,0.0019337993404828012,-0.005688420899957418
1761467749087416800,8.512416748046874,-0.017203648257255552,-0.0033784451908431944,-0.0011437449413351714
1761467749097369900,8.522369873046875,-0.011668225961923599,-0.005523019471485167,-0.015420491167530416
1761467749107323000,8.532322998046874,-0.0076291797041893004,0.005732460971083491,-0.007318999510165304
1761467749117277000,8.54227685546875,-0.004037292692065239,0.0019721951221115886,-0.014512089352030307
1761467749127230000,8.55222998046875,-0.006429740786552429,0.0009420118241570889,-0.013860109983012079
1761467749137183000,8.562182861328125,-0.0016425065100193024,-0.0029507578306831417,-0.0030499804214574396
1761467749147135700,8.5721357421875,-0.015259528452157974,0.006455350151844322,-0.0009335910556837916
1761467749157090000,8.582090087890625,-0.01435994926393032,-0.007393507784791291,-0.004221818946115672
1761467749167042800,8.592042724609374,-0.008375029635429382,0.0018353622009977697,-0.0002491707217879593
1761467749176995800,8.601995849609375,-0.014210311660170553,-0.004382690329942852,0.006982972488831728
1761467749186949600,8.61194970703125,0.00479191045165062,0.007024144749436527,-0.007206223318073898
1761467749196902700,8.621902587890625,-0.006125789403915405,-0.00640679830238223,-0.0034241474960930644
1761467749206855700,8.631855712890625,-0.014507248780131338,-0.00023335209814831612,-0.003393624493665993
1761467749216808700,8.64180859375,-0.01091477724611759,-0.0083029142472893,-0.017661913418769836
1761467749226762800,8.6517626953125,-0.007473112359642982,-0.007159772094152868,-0.007746412875689565
1761467749236715800,8.6617158203125,-0.0008867197066545486,0.011021982213947921,0.00032035452816635366
1761467749246668800,8.671668701171875,-0.008218377768993377,-0.0027875666256062686,-0.00474377872729674
1761467749256622800,8.681622802734376,-0.002527472651004791,0.00552303773779422,-0.012788151636254042
1761467749266576000,8.691575927734375,0.000765139153599739,-0.0032226153083145617,-0.0015424984679557382
1761467749276529000,8.70152880859375,0.0009130231916904449,-0.0016068689410574733,-0.011311174418870359
1761467749286482000,8.71148193359375,-0.006868716725707054,0.0028864056238904596,-0.011162212668545543
1761467749296435700,8.721435791015624,-0.0046247371912002564,0.0067045756725594395,0.00016755685294046998
1761467749306388700,8.731388671875,-0.005222703084349632,-0.009221234668605029,-0.01641237001540139
1761467749316341800,8.741341796875,-0.006869885769486427,-0.002776296312920749,-0.007692929122783243
1761467749326294800,8.751294677734375,-0.012855389919877051,-0.006173501003161073,-0.010571882092580198
1761467749336248800,8.761248779296874,-0.0016349077254533767,-0.006073986151441931,-0.019118962092977015
1761467749346201900,8.771201904296875,-0.004782558101415634,0.001686473515909165,-0.0054198878905735905
1761467749356155000,8.78115478515625,-0.017203063735365866,-0.0015919453665614127,-0.004222878392040729
1761467749366108000,8.79110791015625,-0.009724106156826019,0.004162362110149115,-0.009555909983068704
1761467749376062000,8.80106201171875,-0.006881576207280159,-0.005732424438465386,-0.006377535675279796
1761467749386015000,8.811014892578125,0.0007487725406885147,-0.006936521264910698,-0.006768270292226225
1761467749395967700,8.8209677734375,0.005235562565922737,0.00924973011072725,-0.00835166702615097
1761467749405922000,8.830922119140626,-0.016762334230542183,-0.010465663505438715,-0.0025039273786358535
1761467749415874800,8.840874755859375,-0.00419452908039093,0.0011140987217426299,-0.008473832101095468
1761467749425827800,8.850827880859375,-0.02095218713581562,-0.0038089272962883113,-0.007955361184943466
1761467749435780900,8.86078076171875,-0.016908464702963828,0.002897475007176399,-0.0031270277130417525
1761467749445734700,8.870734619140626,-0.009874912804365157,-0.005779788977839052,-0.006734715082496404
1761467749455687700,8.880687744140625,-0.0022428104907274244,0.00008225318966433406,-0.006796016815677285
1761467749465640700,8.890640625,-0.009126140263676643,-0.0018706161774694919,-0.0025833858230151236
1761467749475593700,8.90059375,0.0010492167919874192,0.0045349034832790494,-0.009758245888445526
1761467749485547800,8.9105478515625,-0.006283025792241096,-0.005129581440798938,0.003062237114831805
1761467749495500800,8.920500732421875,-0.012564298018813133,-0.0015844927124679087,-0.020817400041315704
1761467749505453800,8.930453857421876,0.00030628947019577024,0.009782960204593837,-0.00291395121794194
1761467749515408000,8.940407958984375,-0.0059784898877143855,0.0005358604423701763,0.002294485879037529
1761467749525361000,8.95036083984375,-0.009418985730409621,0.0008208331299014389,-0.009254205356445163
1761467749535314000,8.96031396484375,-0.007770049479603767,0.005219762208592146,-0.01616215811399743
1761467749545267000,8.970266845703126,-0.01270867492556572,-0.006416059321071952,-0.002277297282218933
1761467749555220700,8.980220703125,-0.010313888743519782,0.005850041202455759,-0.015907617097347972
1761467749565173800,8.990173828125,-0.009566869768500328,-0.0036967538923956453,-0.014985205022804439
1761467749575126800,9.000126708984375,-0.014805354943871498,0.0024150800514034926,-0.009684267336782067
1761467749585080800,9.010080810546874,-0.014207389050722122,-0.004579107951186597,-0.009540073093120008
1761467749595033900,9.020033935546875,-0.009418985730409621,-0.016740670388005672,-0.009508107052277772
1761467749604987000,9.02998681640625,-0.01780161415040493,0.003466890659276396,-0.0019330138891935347
1761467749614940000,9.03993994140625,0.0016518588602542877,0.007227448769193142,-0.001969674371462315
1761467749624894000,9.04989404296875,-0.009272855257987975,-0.006044650459103286,0.002221292778663337
1761467749634847000,9.059846923828125,-0.0014940379500389099,0.007451284120324999,-0.004304072135780006
1761467749644800000,9.069800048828125,-0.020797873356938362,-0.00613669439041987,-0.00998030940759927
1761467749654752800,9.079752685546875,-0.008980009791254996,-0.002351860355772078,-0.006597023644857108
1761467749664707000,9.08970703125,-0.006884498816728591,0.0006700082160532474,-0.009055212185624986
1761467749674659800,9.099659912109376,-0.004491466200351715,-0.007561795290093869,-0.017391535512171683
1761467749684612900,9.10961279296875,-0.01736030012369156,-0.005450794485490769,-0.004100073996279388
1761467749694566700,9.119566650390626,-0.0077817399173974984,0.0071823857847601175,-0.016505546457879244
1761467749704519700,9.129519775390625,-0.005986088672280311,-0.003142645407281816,-0.020839082150161264
1761467749714472700,9.13947265625,-0.0032891046732664107,0.011798355147615075,-0.007792918898537755
1761467749724425700,9.14942578125,-0.005532499685883522,-0.003031074791587889,-0.018007566784974186
1761467749734379800,9.1593798828125,-0.00029576807618141173,0.002046904326137155,0.002977700636535883
1761467749744332800,9.169332763671875,-0.007030629289150238,0.0034225217945873737,-0.0053967262106947595
1761467749754285800,9.179285888671876,-0.0005950432837009429,0.00039062501909211273,-0.006749328129738569
1761467749764240000,9.189239990234375,0.004493804287910461,-0.001206599310785532,-0.007753609801456332
1761467749774193000,9.19919287109375,-0.0029874913781881333,0.0013422083891928196,-0.005072645355481654
1761467749784146000,9.20914599609375,-0.00897241100668907,-0.00009980711266398429,-0.006950604589190334
1761467749794099000,9.219098876953124,-0.015258943930268287,-0.0024522337240166963,-0.01664504626011476
1761467749804052700,9.229052734375,-0.0002916764229536056,-0.005548300043214112,-0.0018663053285330534
1761467749814005800,9.239005859375,-0.021238602861762046,0.01407702240301296,-0.008549746881518513
1761467749823958800,9.248958740234375,-0.015102292063832281,-0.008383815730083734,-0.007696472786739468
1761467749833911800,9.258911865234374,-0.007320552146434784,-0.005826751658413559,-0.011305128270573913
1761467749843865900,9.268865966796875,-0.008965981265902518,-0.0073453029952012,-0.013715970538277179
1761467749853819000,9.27881884765625,-0.013155834171175955,0.003991645185742527,-0.0048577787620946765
1761467749863772000,9.28877197265625,-0.00492693500816822,-0.01727026548637077,-0.00689083722596988
1761467749873726000,9.298725830078125,-0.011961655950546263,-0.016645685580931602,-0.01073262561224401
1761467749883679000,9.308678955078125,-0.011512158617377281,0.004043229242507368,-0.007493881153035909
1761467749893632000,9.318632080078125,0.00315232655107975,0.005642243670672178,-0.006571304681710899
1761467749903584800,9.328584716796875,-0.002684124517440796,-0.002767619816120714,-0.013105930614843964
1761467749913538800,9.338538818359375,-0.008224222987890243,0.005319514522328973,-0.012681165864132343
1761467749923491800,9.348491943359376,-0.0010410334855318068,-0.006088252138812094,-0.005625712660979479
1761467749933444900,9.35844482421875,-0.0043324762463569635,0.004770995527785271,-0.013387798029836267
1761467749943399000,9.36839892578125,-0.0004389759391546249,-0.014145502795651554,0.0015264423822984098
1761467749953351700,9.3783515625,-0.012262100201845169,-0.003125749071408063,-0.012549593640025704
1761467749963304700,9.3883046875,-0.010170096358656882,-0.0016708375553600489,-0.015250979819521306
1761467749973258000,9.398258056640625,0.007633271357417106,-0.002362856673821807,0.00008623524503782391
1761467749983212000,9.4082119140625,0.004039630779623985,0.0043658122603781515,0.002271214601304382
1761467749993165000,9.4181650390625,-0.009874912804365157,-0.00017820611111819744,-0.004628719246573746
1761467750003118000,9.4281181640625,-0.015407997012138366,-0.0029439992963336404,-0.010832176996581256
1761467750013071000,9.438071044921875,-0.0059796589314937585,-0.016646507564838976,-0.0006080123631283641
1761467750023025200,9.448025146484374,-0.0019388591080904006,-0.01334271677909419,-0.016934494193363934
1761467750032978200,9.457978271484375,0.003144727766513824,-0.00022832886315882206,-0.008653243788611143
1761467750042931200,9.46793115234375,-0.005831190371513366,-0.002048274299316108,-0.010357855749409645
1761467750052885000,9.477885009765625,0.005392214432358741,0.0021139782129786905,-0.004364369221962988
1761467750062838000,9.487838134765624,-0.0017892215043306349,0.0035584231339395042,-0.013038509668130426
1761467750072791000,9.497791015625,-0.010020458754897116,0.0008715404038317501,-0.008525050831679254
1761467750082744000,9.507744140625,0.00239420166015625,0.003850172622129321,-0.022065244677942245
1761467750092698000,9.517697998046875,-0.004939209967851638,-0.003567702418938279,-0.00337139439554885
1761467750102651100,9.527651123046875,-0.008829787665605545,-0.007887355716340243,-0.004745678423438221
1761467750112604200,9.537604248046875,0.004487959069013595,0.004386507988534867,-0.006388477194402367
