time,seconds_elapsed,z,y,x
1761467740632136400,0.057136474609375,-0.00047240187996067107,-0.0005876566865481436,0.00021718721836805344
1761467740642089500,0.06708935546875,0.0008618737338110805,0.0012315833009779453,0.0004808548837900162
1761467740652042500,0.07704248046875,-0.0003562561178114265,-0.001503749517723918,0.0004989644512534142
1761467740661995500,0.08699560546875,0.0014808899722993374,0.00004482921212911606,0.0002773543819785118
1761467740671948500,0.096948486328125,0.0010702305007725954,0.0008770670974627137,0.0009593898430466652
1761467740681902300,0.10690234375,0.0005258803139440715,-0.0004483882221393287,0.0007553917821496725
1761467740691855400,0.11685546875,0.00042503775330260396,0.0012506297789514065,-0.0007395157590508461
1761467740701808400,0.126808349609375,-0.0005472954362630844,-0.00025731109781190753,-0.00036142743192613125
1761467740711761200,0.13676123046875,-0.001203764695674181,-0.0004176333895884454,-0.00032068113796412945
1761467740721714200,0.146714111328125,0.0015770576428622007,0.002123698592185974,-0.00029098917730152607
1761467740731668200,0.156668212890625,0.00009980215691030025,0.0017343441722914577,0.0009401901625096798
1761467740741621200,0.166621337890625,0.0006364267319440842,0.0006292167236097157,0.001597339054569602
1761467740751574300,0.17657421875,0.000216446234844625,-0.0003505602362565696,-0.00033451803028583527
1761467740761527300,0.18652734375,-0.0009859050624072552,0.0005134667153470218,0.001314314198680222
1761467740771481300,0.1964814453125,0.0007922875811345875,-0.0006319588283076882,0.0007872746791690588
1761467740781434400,0.206434326171875,0.0010145979467779398,-0.00019511592108756304,0.00031354837119579315
1761467740791387400,0.216387451171875,0.0009006147156469524,-0.0008289482211694121,0.0006927826907485723
1761467740801340400,0.22634033203125,-0.00044319071457721293,0.0004039468476548791,0.000752332154661417
1761467740811293400,0.23629345703125,-0.0012048548087477684,-0.00048261944903060794,0.0007696426473557949
1761467740821247200,0.246247314453125,0.001714961021207273,0.0003641383955255151,-0.00028321449644863605
1761467740831200300,0.2562001953125,-0.0010776296257972717,0.0002994235837832093,-0.0015364980790764093
1761467740841153300,0.2661533203125,-0.0004487069381866604,0.0006272477330639958,0.0009782782290130854
1761467740851106300,0.276106201171875,0.0002860591630451381,0.0011090135667473078,0.0016328833298757672
1761467740861060400,0.286060302734375,-0.0004720971919596195,0.00008645345224067569,0.0008782388176769018
1761467740871013400,0.296013427734375,-0.0012611917918547988,0.0015557194128632545,0.00008435058407485485
1761467740880966400,0.30596630859375,0.0005169167998246849,0.0006727238069288433,0.0015199101762846112
1761467740890919400,0.31591943359375,-0.00020080513786524534,-0.0008732412243261933,-0.000001553678885102272
1761467740900872200,0.3258720703125,-0.0006125497748143971,-0.0009491449454799294,-0.001001810422167182
1761467740910826500,0.335826416015625,-0.0013246790040284395,0.0004048061091452837,0.0006464200560003519
1761467740920779300,0.345779296875,-0.0016772231319919229,0.0013218001695349813,0.001967908814549446
1761467740930732300,0.355732177734375,-0.00013738340931013227,0.0005430917954072356,0.00024883844889700413
1761467740940685300,0.365685302734375,-0.0006898451247252524,-0.0009247978450730443,0.00014956318773329258
1761467740950638300,0.375638427734375,-0.0005979660199955106,0.000599329243414104,-0.00009251805022358894
1761467740960592400,0.38559228515625,0.0014469551388174295,0.0005983089213259518,0.0005743985529989004
1761467740970545700,0.395545654296875,-0.00031472594127990305,-0.00015430033090524375,0.0003829172346740961
1761467740980498700,0.405498779296875,-0.0003685520205181092,0.00018966099014505744,0.0003233666066080332
1761467740990451700,0.41545166015625,0.001053309766575694,0.00007274822564795613,-0.00027824146673083305
1761467741000405800,0.42540576171875,-0.0007569643203169107,0.000663747894577682,-0.0003972242120653391
1761467741010358800,0.43535888671875,-0.00027147005312144756,0.001915433444082737,0.00029359967447817326
1761467741020311800,0.445311767578125,0.001179785467684269,0.0006652968004345894,0.0011777345789596438
1761467741030264800,0.455264892578125,0.00023649376817047596,0.00024931097868829966,-0.000791140366345644
1761467741040217600,0.465217529296875,0.0008333997684530914,-0.00030204211361706257,0.000017053913325071335
1761467741050172000,0.475171875,0.00040143501246348023,0.0012513797264546156,0.0006151997949928045
1761467741060124700,0.485124755859375,-0.0015383936697617173,0.0006015437538735569,0.001666549826040864
1761467741070077700,0.49507763671875,0.00041982869151979685,-0.0007414884166792035,0.00001885206438601017
1761467741080030700,0.50503076171875,-0.0012494397815316916,-0.0020069372840225697,0.0011849318398162723
1761467741089984800,0.51498486328125,0.0008147764019668102,0.0014652920654043555,0.0007724082097411156
1761467741099937800,0.524937744140625,-0.00016867206431925297,0.002023291541263461,0.001521583297289908
1761467741109890800,0.534890869140625,-0.00023551739286631346,0.0015734836924821138,-0.00030720955692231655
1761467741119843800,0.54484375,0.00019725383026525378,0.0010861550690606236,0.0006220079958438873
1761467741129796900,0.554796875,-0.0009042295860126615,0.0007753642275929451,0.0018475947435945272
1761467741139750700,0.564750732421875,0.0013715182431042194,0.0011672431137412786,0.0020900527015328407
1761467741149703700,0.57470361328125,0.0005736351013183594,-0.00019789324142038822,0.00017364183440804482
1761467741159656700,0.58465673828125,0.00024179916363209486,0.0004470950225368142,-0.0003355948720127344
1761467741169609700,0.594609619140625,-0.0008562221191823483,0.00045428553130477667,-0.000949719687923789
1761467741179563800,0.604563720703125,0.0005707056261599064,0.0007089131395332515,-0.0000652435701340437
1761467741189516800,0.614516845703125,-0.0015009674243628979,-0.0007291938527487218,0.0004905581008642912
1761467741199469800,0.6244697265625,-0.0006072618998587132,0.000585219357162714,0.0003759062383323908
1761467741209422800,0.6344228515625,0.000960807257797569,0.00022808945504948497,0.0005519413389265537
1761467741219375900,0.6443759765625,0.00031829066574573517,0.0011093094944953918,0.0008598079439252615
1761467741229330000,0.654329833984375,0.0009292197646573186,0.00004244718002155423,0.00016259239055216312
1761467741239283000,0.664282958984375,0.0004037402686662972,-0.00025056436425074935,-0.00022734911181032658
1761467741249236000,0.674236083984375,-0.0011994827073067427,0.001598202157765627,-0.0016782393213361502
1761467741259188700,0.684188720703125,-0.0002615545236039907,0.0001757440040819347,-0.00008252798579633236
1761467741269142800,0.694142822265625,-0.000924681662581861,0.0021600653417408466,0.0017220298759639263
1761467741279095600,0.704095458984375,-0.0004684528394136578,0.00023703061742708087,0.0004975225310772657
1761467741289048600,0.714048583984375,0.00011824158718809485,0.0013265297748148441,-0.0009080937597900629
1761467741299001600,0.724001708984375,0.000717407907359302,-0.0004034959711134434,0.0012117959558963776
1761467741308954600,0.73395458984375,0.0007893132278695703,0.0006393979419954121,-0.0014945084694772959
1761467741318908700,0.74390869140625,0.001219238038174808,-0.00047979867667891085,-0.0003700398374348879
1761467741328861700,0.75386181640625,0.0015244362875819206,0.0004746782360598445,-0.0001513941679149866
1761467741338814700,0.763814697265625,-0.000028717448003590107,-0.0007826252258382738,0.00017498875968158245
1761467741348767700,0.773767822265625,-0.00000927638029679656,-0.000643608218524605,0.0005763270892202854
1761467741358721800,0.7837216796875,0.000016994483303278685,0.0007269659545272589,-0.00030231080017983913
1761467741368674800,0.7936748046875,-0.0009752992773428559,-0.0004184596473351121,0.00024203932844102383
1761467741378627800,0.8036279296875,0.0005876741488464177,0.0008570115896873176,-0.0008499310351908207
1761467741388580900,0.813580810546875,0.0016372259706258774,-0.00005405588308349252,0.00014289538376033306
1761467741398534000,0.823533935546875,0.0013829268282279372,-0.00023802404757589102,-0.0004953965544700623
1761467741408487700,0.83348779296875,0.0006907712668180466,0.0005129873752593994,-0.00033454177901148796
1761467741418440700,0.843440673828125,-0.0008775437599979341,-0.0008072589989751577,-0.0005127845797687769
1761467741428393700,0.853393798828125,0.00033472717041149735,0.0002473528147675097,-0.00034447270445525646
1761467741438346800,0.8633466796875,-0.0010561328381299973,-0.000263439113041386,0.0013294913806021214
1761467741448300800,0.87330078125,0.00006665592081844807,0.0006984946667216718,0.0008980592247098684
1761467741458253800,0.88325390625,0.0008849612204357982,0.00005864078411832452,0.0009852023795247078
1761467741468206600,0.89320654296875,-0.0004309066280256957,0.000943609164096415,0.0006576334126293659
1761467741478159600,0.90315966796875,-0.0003291528846602887,-0.00013185152783989906,0.0007358728908002377
1761467741488112600,0.913112548828125,0.0018394591752439737,-0.00024077482521533966,-0.00006414088420569897
1761467741498066700,0.923066650390625,-0.0004296163679100573,0.0008764279191382229,0.0016369785880669951
1761467741508019700,0.933019775390625,0.0006529586389660835,0.0006375422817654908,0.002362689934670925
1761467741517972700,0.94297265625,0.00036051461938768625,0.0000922995968721807,0.0006213639862835407
1761467741527925800,0.95292578125,0.0006135149160400033,0.0007141476962715387,-0.0014447164721786976
1761467741537879800,0.9628798828125,0.001821231795474887,-0.0000017980346456170082,0.0008723235223442316
1761467741547832800,0.972832763671875,-0.0008832081803120673,-0.00019407825311645865,0.0004275757819414139
1761467741557785900,0.982785888671875,0.000950226210989058,-0.0006531823892146349,-0.0013222354464232922
1761467741567739000,0.99273876953125,0.002449053106829524,0.0005204727640375495,0.0008080273400992155
1761467741577692000,1.00269189453125,0.0019275095546618104,0.0007082436932250857,0.001467668334953487
1761467741587645700,1.012645751953125,-0.002459249459207058,0.0007026511011645198,-0.0010769818909466267
1761467741597598700,1.0225986328125,-0.00004377891309559345,-0.0002683680795598775,-0.00020790635608136654
1761467741607551700,1.0325517578125,0.0008015083731152117,0.0010365808848291636,-0.0007943345699459314
1761467741617504800,1.0425048828125,0.0006072448450140655,-0.00033417667145840824,0.000889843562617898
1761467741627458800,1.052458740234375,0.0009404062875546515,-0.00009901955490931869,0.0014299326576292515
1761467741637411800,1.062411865234375,0.0001029229024425149,-0.0010436618467792869,0.0007747565396130085
1761467741647364900,1.07236474609375,0.00023395044263452291,-0.0016452698037028313,-0.0003962353803217411
1761467741657317600,1.082317626953125,-0.00020433129975572228,0.0007262744475156069,0.0008005211129784584
1761467741667270700,1.092270751953125,0.000019374245312064886,-0.0004710827488452196,0.00038320361636579037
1761467741677224700,1.102224609375,0.000564046495128423,-0.00024050305364653468,-0.0002890690229833126
1761467741687177700,1.112177734375,-0.0002032102202065289,-0.0007190731121227145,-0.00006483076140284538
1761467741697130800,1.122130859375,0.001531191635876894,0.0006453819805756211,0.00212304899469018
1761467741707083800,1.132083740234375,0.0005420935922302306,-0.000821487104985863,0.00014645070768892765
1761467741717037600,1.14203759765625,-0.0010805466445162892,-0.00025820540031418204,0.002174102235585451
1761467741726990600,1.151990478515625,0.0008118955884128809,0.0005727008683606982,0.00029364414513111115
1761467741736943600,1.161943603515625,-0.0005141019937582314,0.0004593657795339823,0.0018623826326802373
1761467741746896600,1.171896728515625,0.0008153480011969805,-0.0005164163885638118,0.00011002272367477417
1761467741756849700,1.181849609375,0.0013642199337482452,0.001696232007816434,0.0008278102613985538
1761467741766803700,1.1918037109375,0.00022838183213025331,0.00013561977539211512,-0.0018036591354757547
1761467741776756700,1.2017568359375,0.000004652945790439844,-0.000940959551371634,0.0005475014913827181
1761467741786709800,1.211709716796875,-0.001360217109322548,-0.0003105893265455961,0.0002425694838166237
1761467741796662800,1.221662841796875,-0.0002466838632244617,-0.00004157004877924919,0.00015551038086414337
1761467741806616800,1.231616943359375,-0.0006802465068176389,-0.0010367933427914977,0.0006924038752913475
1761467741816569900,1.24156982421875,0.0012080003507435322,-0.00033857778180390596,-0.0005912210326641798
1761467741826523000,1.25152294921875,0.00020372227299958467,0.00016103120287880301,0.0003720445092767477
1761467741836476000,1.261475830078125,0.00031668972223997116,-0.00048275175504386425,0.00016852468252182007
1761467741846429000,1.271428955078125,-0.000265477312495932,0.00025840592570602894,-0.0003918043803423643
1761467741856382700,1.2813828125,0.00046873727114871144,0.0005893054767511785,0.0013554972829297185
1761467741866335700,1.291335693359375,0.00007299153367057443,0.0013712095096707344,0.00008703372441232204
1761467741876288800,1.301288818359375,0.001011410728096962,0.0008335800957866013,0.001235205098055303
1761467741886241800,1.31124169921875,-0.0013548078713938594,0.00009481917368248105,0.00010575843043625355
1761467741896195600,1.321195556640625,0.0009241125080734491,-0.00007703027222305536,0.0003898162394762039
1761467741906148600,1.331148681640625,0.0007443492067977786,0.0004425524966791272,0.0004782332107424736
1761467741916101600,1.3411015625,-0.0007498716586269438,-0.0015176740707829595,-0.0005891702603548765
1761467741926054700,1.3510546875,0.00017744104843586683,-0.0021656211465597153,0.0010808981023728848
1761467741936007700,1.361007568359375,0.00010787916835397482,-0.0018965823110193014,0.0008738471660763025
1761467741945961700,1.370961669921875,-0.0004039804043713957,-0.0011663434561342,-0.0004971481394022703
1761467741955914800,1.380914794921875,0.0006190494168549776,-0.0005280047189444304,-0.0007557200733572245
1761467741965868300,1.390868408203125,-0.00043476346763782203,0.000024601176846772432,0.0009574914583936334
1761467741975821300,1.4008212890625,0.0010162841062992811,0.0000068740337155759335,0.00011791358701884747
1761467741985774300,1.4107744140625,-0.0011123806471005082,0.00026093964697793126,-0.00037690182216465473
1761467741995728100,1.42072802734375,-0.00016076094470918179,0.00006729242159053683,-0.0012928147334605455
1761467742005681200,1.43068115234375,0.0003204722888767719,-0.0007939739152789116,0.0018917931010946631
1761467742015634200,1.44063427734375,-0.00015581364277750254,-0.0007052786531858146,0.0010369954397901893
1761467742025587200,1.450587158203125,-0.0007390459068119526,-0.0014048910234123468,-0.0004953874740749598
1761467742035541200,1.460541259765625,0.0012881727889180183,0.00042238435707986355,0.00006932485848665237
1761467742045494300,1.470494384765625,-0.00019574054749682546,0.0007832427509129047,0.0002770514693111181
1761467742055447000,1.480447021484375,-0.00015324016567319632,-0.000007617112714797258,0.00026591820642352104
1761467742065400000,1.490400146484375,-0.0001063685049302876,-0.00014024251140654087,0.00025926041416823864
1761467742075353000,1.50035302734375,-0.000046028231736272573,-0.0005241130129434168,0.0011469931341707706
1761467742085307100,1.51030712890625,0.0009712993050925434,-0.000346213870216161,0.00005323300138115883
1761467742095260200,1.52026025390625,-0.000846654293127358,-0.0016852967673912644,-0.000820675864815712
1761467742105213200,1.530213134765625,-0.0021265693940222263,0.0005339153576642275,-0.0003727320581674576
1761467742115166200,1.540166259765625,-0.00017484056297689676,-0.0009726434946060181,0.0005980164278298616
1761467742125120300,1.550120361328125,0.0007484773523174226,0.00033869699109345675,-0.0005338271148502827
1761467742135073300,1.5600732421875,0.00028177560307085514,-0.0014158643316477537,-0.0013365645427256823
1761467742145026300,1.5700263671875,0.00023676815908402205,0.00020626711193472147,-0.0002153739333152771
1761467742154979300,1.579979248046875,-0.0009145581279881299,0.0009514028206467628,-0.0010480433702468872
1761467742164933000,1.58993310546875,0.0009853409137576818,-0.0013692757347598672,-0.00011620321311056614
1761467742174886100,1.59988623046875,-0.0013387067010626197,-0.00036704278318211436,0.0001284661702811718
1761467742184839200,1.609839111328125,-0.0002585285692475736,0.0007877038442529738,0.000044043874368071556
1761467742194792200,1.619792236328125,-0.00018663250375539064,0.0013239348772913218,-0.00021280208602547646
1761467742204745200,1.6297451171875,-0.0012151452247053385,0.00037584936944767833,-0.00020667677745223045
1761467742214699300,1.63969921875,0.0012768169399350882,-0.00004722236189991236,-0.0000791305210441351
1761467742224652300,1.64965234375,-0.000474744156235829,0.00031523389043286443,0.00012060650624334812
1761467742234605300,1.659605224609375,0.000792478327639401,-0.0005156859988346696,0.0002697077579796314
1761467742244558000,1.66955810546875,0.0005304232472553849,-0.00034897212754003704,0.0011328381951898336
1761467742254511000,1.679510986328125,-0.0007552056922577322,0.0015550402458757162,-0.0003114242572337389
1761467742264465200,1.689465087890625,0.0018767963629215956,-0.0003693600301630795,-0.00045337085612118244
1761467742274418200,1.699418212890625,-0.0006785665755160153,-0.00037737665115855634,-0.002061591949313879
1761467742284371200,1.70937109375,-0.00014327123062685132,-0.0002865628630388528,0.0008790702559053898
1761467742294324200,1.71932421875,-0.0008864577976055443,0.00025687989545986056,-0.00012898794375360012
1761467742304278000,1.729278076171875,0.0000014401157386600971,0.0004989612498320639,-0.00009596487507224083
1761467742314231000,1.73923095703125,0.0001373502309434116,-0.00013076691539026797,0.0001996513456106186
1761467742324184000,1.74918408203125,-0.00019634386990219355,-0.00002344150561839342,0.0007432023994624615
1761467742334137000,1.75913720703125,-0.00047612100024707615,-0.00033472204813733697,-0.00030184839852154255
1761467742344090000,1.769090087890625,-0.0005272537237033248,-0.00192356389015913,0.0001460951752960682
1761467742354044200,1.779044189453125,-0.0002563727321103215,-0.0004837675078306347,-0.0011150550562888384
1761467742363997200,1.7889970703125,-0.0012060559820383787,0.0015133369015529752,-0.0005861513782292604
1761467742373950200,1.7989501953125,-0.00027568876976147294,0.0014744556974619627,-0.0009840037673711777
1761467742383903200,1.8089033203125,0.00005960318958386779,-0.00012423991574905813,-0.00013791769742965698
1761467742393857300,1.818857177734375,0.0010292024817317724,0.0009144280338659883,-0.0009852650109678507
1761467742403810300,1.828810302734375,0.000911757058929652,0.0005157529376447201,0.0008155644172802567
1761467742413763300,1.838763427734375,-0.00031764028244651854,0.0006076411809772253,0.0010927693219855428
1761467742423716400,1.84871630859375,0.00035720469895750284,-0.0007716099498793483,0.00008103437721729279
1761467742433670400,1.85867041015625,-0.00003355200169607997,-0.0005974777741357684,-0.00026620179414749146
1761467742443623400,1.86862353515625,0.00024661258794367313,-0.0006275714840739965,-0.000017196405678987503
1761467742453576400,1.878576416015625,-0.0005114678060635924,0.00023801607312634587,-0.0013223197311162949
1761467742463529200,1.888529296875,-0.000027305155526846647,-0.00005972530925646424,-0.0008386897388845682
1761467742473482200,1.898482177734375,0.0003091219696216285,-0.00015571273979730904,-0.0013106379192322493
1761467742483436000,1.90843603515625,0.0006691814051009715,-0.0003581129712983966,0.0003682186361402273
1761467742493389000,1.91838916015625,0.002355172298848629,-0.0011826285626739264,-0.0010905642993748188
1761467742503342000,1.928342041015625,0.0012797878589481115,-0.0011682475451380014,0.00017576874233782291
1761467742513295000,1.938295166015625,-0.0011459433007985353,-0.0000684056431055069,-0.002039432292804122
1761467742523249200,1.948249267578125,0.0012373195495456457,0.0012860781280323863,0.0005867111030966043
1761467742533202200,1.9582021484375,-0.0022173321340233088,-0.0009640652569942176,0.0005563688464462757
1761467742543155200,1.9681552734375,-0.0010039960034191608,-0.0003613918961491436,-0.000597312580794096
1761467742553108200,1.978108154296875,0.0002784183598123491,0.00015450577484443784,-0.0009708839934319258
1761467742563061200,1.988061279296875,-0.0005378405330702662,-0.0015283457469195127,-0.0009655577596276999
1761467742573015300,1.998015380859375,0.0005046231672167778,0.00043509993702173233,-0.0013002119958400726
1761467742582968300,2.00796826171875,0.00014349858975037932,0.0007600056123919785,0.00017624441534280777
1761467742592921300,2.01792138671875,-0.0004101282684132457,-0.00031140490318648517,-0.0008062422275543213
1761467742602874400,2.027874267578125,0.00023302511544898152,0.00015278405044227839,-0.00007706880569458008
1761467742612828200,2.037828125,-0.000048997229896485806,0.0003441988956183195,-0.00008005183190107346
1761467742622781200,2.04778125,-0.000028757203835994005,0.0011077271774411201,0.00014578434638679028
1761467742632734200,2.057734130859375,0.00015674723545089364,-0.0011681824689731002,-0.00017733429558575153
1761467742642687200,2.067687255859375,-0.00032794810249470174,0.0006193312583491206,0.0010202891426160932
1761467742652641300,2.077641357421875,-0.0011897953227162361,0.00008095218800008297,0.0008056109072640538
1761467742662594300,2.08759423828125,0.0028430295642465353,-0.000674586626701057,-0.0008692510891705751
1761467742672547000,2.097547119140625,-0.00046591146383434534,-0.0001264939783141017,-0.0010626192670315504
1761467742682500000,2.1075,-0.0013711198698729277,0.0006860364810563624,0.00034699193201959133
1761467742692453000,2.117453125,0.0014400179497897625,-0.00039879450923763216,-0.0007344051264226437
1761467742702407200,2.1274072265625,0.0020347018726170063,-0.0021058807615190744,0.0004389835521578789
1761467742712360200,2.137360107421875,-0.0009244781685993075,-0.00008178834104910493,-0.0005408183205872774
1761467742722313200,2.147313232421875,0.0005250804824754596,-0.00042107506305910647,0.0007212536875158548
1761467742732266200,2.157266357421875,-0.00009447196498513222,0.00038638131809420884,-1.1175870895385742e-8
1761467742742220300,2.16722021484375,0.00045174238039180636,-0.000032001291401684284,0.000691345427185297
1761467742752173300,2.17717333984375,-0.0000425823382101953,0.0008141880971379578,-0.0013808566145598888
1761467742762126000,2.1871259765625,0.0008322659996338189,0.00007809040835127234,-0.0012160066980868578
1761467742772079000,2.1970791015625,0.00005545932799577713,0.0012929508229717612,0.001361499191261828
1761467742782033200,2.207033203125,0.0011364363599568605,0.000009307201253250241,0.0005633498076349497
1761467742791986200,2.216986083984375,-0.0006883738678880036,0.001502767438068986,-0.0006080321036279202
1761467742801939200,2.226939208984375,-0.0003048786602448672,-0.00016224090359173715,-0.0008514451328665018
1761467742811892200,2.236892333984375,-0.00024254628806374967,-0.0009145042859017849,-0.0009597386233508587
1761467742821846300,2.24684619140625,-0.0005493424250744283,-0.0003469846269581467,-0.0000393502414226532
1761467742831799300,2.25679931640625,0.0003945073112845421,-0.00039235607255250216,0.0011425811098888516
1761467742841752300,2.26675244140625,-0.0005599696305580437,0.0006500051240436733,0.000655755284242332
1761467742851705300,2.276705322265625,-0.00021558866137638688,-0.0005951127968728542,0.0009950458770617843
1761467742861658000,2.286658203125,0.0005548638291656971,-0.0002973713562823832,0.00004989001899957657
1761467742871612400,2.2966123046875,-0.0000219991197809577,0.00039440783439204097,0.00032519083470106125
1761467742881565200,2.306565185546875,-0.00021401300909928977,0.0005776333855465055,-0.00015604239888489246
1761467742891518200,2.316518310546875,-0.00047628150787204504,0.000501540896948427,-0.0004649674519896507
1761467742901471200,2.32647119140625,-0.0004136972420383245,0.0007209854084067047,0.0005441042594611645
1761467742911425000,2.336425048828125,0.00034134992165490985,-0.0003773838107008487,0.0008204405894502997
1761467742921378000,2.3463779296875,-0.0015678702620789409,0.00009639252675697207,0.0010199113748967648
1761467742931331000,2.3563310546875,-0.00026115941000171006,0.00032318441662937403,-0.00130713009275496
1761467742941284000,2.3662841796875,-0.0003080310416407883,0.000959679891820997,0.0018234157469123602
1761467742951238100,2.376238037109375,0.0014636848354712129,0.001186806010082364,0.000685947947204113
1761467742961191200,2.386191162109375,0.0005571448709815741,0.0014379420317709446,0.0006747626466676593
1761467742971143400,2.396143310546875,0.000295740261208266,0.0012539895251393318,-0.0006793893408030272
1761467742981096400,2.406096435546875,-0.00046485851635225117,-0.0003985018702223897,-0.000586977694183588
1761467742991049500,2.416049560546875,-0.0006407957407645881,-5.775364115834236e-7,0.00020276056602597237
1761467743001003500,2.42600341796875,0.0005043635028414428,0.000013803539332002401,0.00029783532954752445
1761467743010956500,2.43595654296875,-0.00020595526439137757,-0.00038010216667316854,-0.0001244652085006237
1761467743020909600,2.44590966796875,-0.00009117304580286145,0.0007661223062314093,-0.0010789420921355486
1761467743030862600,2.455862548828125,0.0004751125816255808,0.0011246510548517108,0.00016869418323040009
1761467743040816600,2.465816650390625,0.0011020207311958075,0.0007797717116773129,0.00004379195161163807
1761467743050769700,2.475769775390625,-0.0005965902237221599,-0.00013108551502227783,0.0011009586742147803
1761467743060722700,2.48572265625,0.0005142142763361335,-0.00013321606093086302,0.000025840476155281067
1761467743070675700,2.49567578125,-0.0012202932266518474,0.0009020958095788956,-0.00034402101300656796
1761467743080629500,2.50562939453125,0.0017033249605447054,0.0003399025008548051,0.0005185769405215979
1761467743090582500,2.51558251953125,0.0004941506776958704,0.0003826421743724495,-0.0010593566112220287
1761467743100535600,2.52553564453125,-0.0012819113908335567,0.0011211368255317211,0.0007537234341725707
1761467743110488600,2.535488525390625,-0.0006237624329514802,-0.00026608124608173966,0.0009293361799791455
1761467743120442600,2.545442626953125,0.0002726576058194041,-0.0001923116942634806,-0.0010043850634247065
1761467743130395600,2.555395751953125,-0.0004956016782671213,-0.0006194521556608379,0.0005563248414546251
1761467743140348700,2.5653486328125,0.0011749992845579982,-0.00014540948905050755,0.0009432821534574032
1761467743150301700,2.5753017578125,0.0012995488941669464,-0.0010960729559883475,-0.000213144114241004
1761467743160254500,2.58525439453125,-0.0004429573309607804,-0.00043028267100453377,0.0011445354903116822
1761467743170208800,2.595208740234375,0.0007206588052213192,-0.000013819546438753605,-0.0005072238855063915
1761467743180161500,2.60516162109375,-0.0005334237939678133,0.0009233468445017934,0.0005985206225886941
1761467743190114600,2.615114501953125,0.0011741964844986796,-0.0007955464534461498,0.0017798969056457281
1761467743200067600,2.625067626953125,-0.00008894078200682998,-0.0014309766702353954,-0.00043478794395923615
1761467743210021400,2.635021484375,0.0005136196268722415,0.0011977571994066238,-0.0003711243625730276
1761467743219974400,2.644974365234375,-0.0013865458313375711,-0.0011929625179618597,0.00007069413550198078
1761467743229927400,2.654927490234375,0.0005588933127000928,-0.00006830962956883013,-0.0008832502644509077
1761467743239880400,2.66488037109375,-0.0015624257503077388,0.0004270528443157673,-0.00084512191824615
1761467743249834500,2.67483447265625,-0.0010272060753777623,-0.0002607220958452672,-0.000019733095541596413
1761467743259787500,2.68478759765625,-0.00032093573827296495,0.00035127229057252407,-0.00044051255099475384
1761467743269740500,2.694740478515625,-0.0007159711676649749,0.000373543007299304,0.0004541482776403427
1761467743279693600,2.704693603515625,0.0011801995569840074,0.0007149602752178907,0.0009023583261296153
1761467743289647600,2.714647705078125,0.0004171647015027702,-0.0004174883069936186,-0.00030553038232028484
1761467743299600600,2.7246005859375,-0.0006968355737626553,0.0003748020972125232,-0.00042217690497636795
1761467743309553700,2.7345537109375,0.001535746967419982,-0.0016777674900367856,-0.0010900057386606932
1761467743319506700,2.744506591796875,0.0000012334785424172878,-0.0013051913119852543,-0.0007880034390836954
1761467743329460700,2.754460693359375,0.00018218322657048702,-0.0005366326658986509,-0.00046671880409121513
1761467743339413800,2.764413818359375,0.00016966636758297682,-0.0005126642063260078,0.00048536108806729317
1761467743349366800,2.77436669921875,-0.0007080379291437566,0.0008406097767874599,-0.0010093857999891043
1761467743359319800,2.78431982421875,-0.00010003824718296528,0.0002528501208871603,-0.0009625141974538565
1761467743369272600,2.7942724609375,0.0005108022596687078,0.0012701626401394606,-0.00041505834087729454
1761467743379226600,2.8042265625,-0.0010138574289157987,0.0003955806605517864,-0.0004909583367407322
1761467743389179400,2.814179443359375,0.001925195101648569,-0.0005153213278390467,-0.0022695797961205244
1761467743399132400,2.82413232421875,-0.00020613265223801136,-0.00040053908014670014,0.00015522819012403488
1761467743409085400,2.83408544921875,0.0011540084378793836,0.0004516509361565113,-0.0008514074143022299
1761467743419039500,2.84403955078125,0.0003646475379355252,-0.000049289665184915066,-0.00035126577131450176
1761467743428992500,2.853992431640625,-0.0007659975672140718,0.0005262861377559602,0.0010423907078802586
1761467743438945500,2.863945556640625,-0.00005892832996323705,-0.001152570592239499,-0.0005645607598125935
1761467743448898600,2.873898681640625,0.00045137573033571243,0.00036174675915390253,-0.00017625652253627777
1761467743458852600,2.8838525390625,0.0009131678380072117,-0.00010989906149916351,-0.0012497766874730587
1761467743468805600,2.8938056640625,-0.0008589556673541665,0.00031159562058746815,0.0009874326642602682
1761467743478758700,2.903758544921875,-0.00012685268302448094,0.0008639352163299918,0.0008785093668848276
1761467743488711700,2.913711669921875,0.0007081048679538071,0.00008412543684244156,0.0008556953398510814
1761467743498665500,2.92366552734375,0.0008876019273884594,0.00006521696923300624,0.0009819291299208999
1761467743508618500,2.933618408203125,-0.0009402313153259456,-0.00005918543320149183,2.7567148208618164e-7
1761467743518571500,2.943571533203125,0.0019748646300286055,-0.0003191099676769227,-0.001243686769157648
1761467743528524500,2.953524658203125,-0.001268904423341155,0.000014769495464861393,-0.00044779805466532707
1761467743538477600,2.9634775390625,-0.0004262803413439542,0.00002382422098889947,0.000059800222516059875
1761467743548431600,2.973431640625,0.0007767014903947711,-0.0007879317854531109,-0.0008343905210494995
1761467743558384600,2.983384521484375,0.0011354292510077357,-0.0008190907537937164,0.0006753555499017239
1761467743568337700,2.993337646484375,0.0026205494068562984,0.00008512381464242935,0.00033328612335026264
1761467743578290700,3.003290771484375,-0.00022903285571374,-0.0012584408978000283,-0.000823058420792222
1761467743588244700,3.01324462890625,0.0010277772089466453,-0.0009267928544431925,0.0006777110975235701
1761467743598197800,3.02319775390625,0.00003441818989813328,-0.0005113396910019219,-0.00005306024104356766
1761467743608150500,3.033150634765625,-0.00004653626820072532,0.000051000912208110094,-0.000007113674655556679
1761467743618103600,3.043103515625,-0.000902476254850626,-0.0013729913625866175,0.0008360432693734765
1761467743628057600,3.0530576171875,-0.0005191904492676258,-0.0009169982513412833,0.00009088893420994282
1761467743638010600,3.0630107421875,0.00014207244385033846,-0.00012470781803131104,-0.0013528107665479183
1761467743647963600,3.072963623046875,-0.00005060149123892188,-0.0007425069343298674,0.0007981439121067524
1761467743657916700,3.082916748046875,-0.0008929593022912741,0.0004591112956404686,0.0002996001858264208
1761467743667870500,3.092870361328125,0.0029536013025790453,0.000318595499265939,0.00034917774610221386
1761467743677823500,3.102823486328125,-0.0005830766167491674,0.00017798063345253468,-0.0006148866377770901
1761467743687776500,3.112776611328125,0.0009376428788527846,-0.0009824313456192613,-0.0001486383844166994
1761467743697729500,3.1227294921875,0.0012441728031262755,-0.0001374103012494743,-0.0013028522953391075
1761467743707683600,3.13268359375,-0.001046768855303526,-0.0007003561477176845,0.00019145384430885315
1761467743717636600,3.14263671875,-0.000576987280510366,0.00006477005081251264,-0.000174997141584754
1761467743727589600,3.152589599609375,0.0008426334243267775,-0.0006282784743234515,-0.001109962584450841
1761467743737542700,3.162542724609375,0.00022584531689062715,-0.00021495585679076612,0.00008499785326421261
1761467743747495700,3.17249560546875,0.0005060939583927393,-0.0007056366303004324,-0.0006759744137525558
1761467743757449700,3.18244970703125,0.0007066300604492426,-0.0004118899814784527,-0.00026052119210362434
1761467743767402800,3.19240283203125,-0.0007317833369597793,0.00016498047625645995,-0.0018385241273790598
1761467743777355800,3.202355712890625,-0.0005360409850254655,0.0012464901665225625,-0.00011013285256922245
1761467743787308800,3.212308837890625,-0.0001594090717844665,0.0002987160114571452,0.0021040011197328568
1761467743797262600,3.2222626953125,0.0014270360115915537,-0.0007079588831402361,0.00030530220828950405
1761467743807215600,3.232215576171875,0.0015846637543290854,0.0005186402704566717,0.0006653213640674949
1761467743817168400,3.24216845703125,0.000703157449606806,-0.0005040135583840311,0.0003097893204540014
1761467743827121400,3.252121337890625,-0.001020302064716816,-0.0009327782900072634,0.001148507697507739
1761467743837075500,3.262075439453125,-0.0006980595062486827,0.0004358201986178756,0.0005639437586069107
1761467743847028500,3.272028564453125,0.0004474649322219193,-0.00025271461345255375,-0.0005406313575804234
1761467743856981500,3.2819814453125,0.0015132618136703968,-0.000449788523837924,0.0005845541600137949
1761467743866934500,3.2919345703125,-0.0005422760150395334,-0.0014152462827041745,0.0006404800806194544
1761467743876888600,3.301888671875,-0.0002218977315351367,-0.0003340028924867511,0.0010870923288166523
1761467743886841600,3.311841552734375,0.0016362527385354042,-0.0013709355844184756,-0.0018555752467364073
1761467743896794600,3.321794677734375,0.0011614111717790365,-0.00008702563354745507,-0.0004965644329786301
1761467743906747600,3.33174755859375,-0.000254992104601115,-0.00037193711614236236,0.0006369850598275661
1761467743916701400,3.341701416015625,-0.00004859711043536663,0.00012527505168691278,-0.00028952863067388535
1761467743926654500,3.351654541015625,-0.0005296047893352807,0.00034516543382778764,0.0013860089238733053
1761467743936607500,3.361607421875,0.0006315334467217326,-0.00018853205256164074,-0.0024729114957153797
1761467743946560500,3.371560546875,-0.00015376537339761853,-0.00035611866042017937,0.002251111436635256
1761467743956513500,3.381513427734375,0.0003016351838596165,-0.000015234050806611776,0.0009632067522034049
1761467743966467600,3.391467529296875,0.00028346775798127055,-0.0000011479132808744907,0.0018142203334718943
1761467743976420400,3.40142041015625,0.0010174349881708622,0.001451872754842043,-0.0002702358178794384
1761467743986373400,3.411373291015625,-0.00005633005639538169,0.0001118282089009881,0.00023199315182864666
1761467743996326400,3.421326416015625,0.0005474085919559002,-0.00010814890265464783,-0.0011754876468330622
1761467744006280400,3.431280517578125,-0.0006611770368181169,-0.0007273677620105445,-0.001824026694521308
1761467744016233500,3.4412333984375,-0.0008542562136426568,-0.0008852932369336486,-0.00152095896191895
1761467744026186500,3.4511865234375,0.00031297275563701987,-0.00020861346274614334,0.0004991022869944572
1761467744036139500,3.461139404296875,-0.0006638747872784734,-0.0010871902341023088,-0.0015403465367853642
1761467744046093600,3.471093505859375,-0.0004702447331510484,-0.0007221174309961498,0.00010655773803591728
1761467744056046600,3.481046630859375,-0.00028062768978998065,-0.000934105075430125,-0.0009366024751216173
1761467744065999600,3.49099951171875,-0.0002462108968757093,-0.0005918445531278849,-0.0007361383177340031
1761467744075952600,3.50095263671875,-0.00045526903704740107,0.00010244152508676052,0.0006787991151213646
1761467744085906400,3.510906494140625,-0.0005035860231146216,-0.0005442809197120368,0.0004535643383860588
1761467744095859500,3.520859375,-0.000745933735743165,-0.00044601026456803083,0.0006365235894918442
1761467744105812500,3.5308125,-0.0007429146789945662,-0.0014037580695003271,0.00023356638848781586
1761467744115765500,3.540765625,-0.0009184170048683882,-0.0012919052969664335,-0.0010066675022244453
1761467744125719600,3.550719482421875,-0.001260083168745041,-0.0021075953263789415,0.000036446377635002136
1761467744135672600,3.560672607421875,-0.0001950850710272789,-0.000734469504095614,-0.002207799581810832
1761467744145625600,3.57062548828125,-0.001080637564882636,-0.001305625308305025,0.0009222949156537652
1761467744155578600,3.58057861328125,-0.0014753179857507348,-0.001069669146090746,0.0011401415104046464
1761467744165532700,3.59053271484375,-0.00035786855733022094,0.000464261625893414,-0.0010052688885480165
1761467744175485700,3.600485595703125,-0.0010042177746072412,-0.0012984846252948046,-0.0013988842256367207
1761467744185438500,3.6104384765625,-0.00013657205272465944,-0.0007231079507619143,-0.00006115017458796501
1761467744195391500,3.6203916015625,0.0004312138771638274,-0.0004994024056941271,-0.0013208254240453243
1761467744205344500,3.630344482421875,-0.0013483132934197783,0.000606314861215651,-0.0006378078833222389
1761467744215298300,3.64029833984375,0.0005041816039010882,0.001624441472813487,0.0005073514766991138
1761467744225251300,3.650251220703125,0.00021944288164377213,-0.0005879276432096958,0.0005012243054807186
1761467744235204400,3.660204345703125,0.0007914898451417685,-0.0000566270318813622,-0.00006922474130988121
1761467744245157400,3.670157470703125,0.0012285158736631274,0.0012670601718127728,0.0007882552454248071
1761467744255111400,3.680111328125,0.0011518170358613133,0.0002571894438005984,0.0012625643284991384
1761467744265064400,3.690064453125,-0.00009258073987439275,-0.0010154957417398691,0.00017502647824585438
1761467744275017500,3.700017578125,-0.0006473171524703503,0.0005810693255625665,-0.00017517921514809132
1761467744284970500,3.709970458984375,0.000011602591257542372,-0.0012806332670152187,-0.000017644837498664856
1761467744294924500,3.719924560546875,-0.0002358050551265478,-0.00014133291551843286,-0.001071724109351635
1761467744304877600,3.729877685546875,-0.00036776449996978045,-0.0002682332997210324,-0.0009656329639256
1761467744314830600,3.73983056640625,0.0006615471793338656,-0.00030232174322009087,0.00016008527018129826
1761467744324783600,3.74978369140625,-0.0004640522238332778,-0.0009744726703502238,-0.000511540099978447
1761467744334737700,3.759737548828125,-0.00041505004628561437,0.0005533828516490757,-0.00016745971515774727
1761467744344690700,3.769690673828125,-0.0005910983309149742,0.00014848646242171526,0.00088456308003515
1761467744354643500,3.7796435546875,0.00018441409338265657,0.0011224043555557728,-0.0015064228791743517
1761467744364596500,3.789596435546875,-0.0009642385994084179,0.0002123398007825017,0.0014456893550232053
1761467744374550500,3.799550537109375,0.00047280319267883897,0.0003646726254373789,0.000635289354249835
1761467744384503600,3.809503662109375,0.00020512554328888655,0.00001074490137398243,-0.0004805044736713171
1761467744394456300,3.819456298828125,-0.00018662546062842011,-0.00015889841597527266,-0.0003073990810662508
1761467744404409300,3.829409423828125,-6.955815479159355e-7,0.0003416021936573088,-0.00026470934972167015
1761467744414363400,3.83936328125,-0.000994320958852768,-0.0018581689801067114,-0.0006050614174455404
1761467744424316400,3.84931640625,0.0005828830762766302,-0.001335414475761354,-0.0001995917409658432
1761467744434269400,3.85926953125,-0.0012062285095453262,-0.000826750707346946,0.00010214443318545818
1761467744444222500,3.869222412109375,-0.001508765504695475,-0.000607599038630724,0.00008527119643986225
1761467744454175500,3.879175537109375,-0.00024509557988494635,-0.00016072060680016875,0.00013214279897511005
1761467744464129500,3.889129638671875,-0.0016010827384889126,-0.0008264025673270226,0.0009739937959238887
1761467744474082600,3.89908251953125,0.0002295742742717266,-0.00017685763305053115,-0.00019753072410821915
1761467744484035600,3.90903564453125,0.00019654125208035111,-0.0000334989745169878,0.0004416131414473057
1761467744493988600,3.918988525390625,0.0010743190068751574,-0.0005520164268091321,0.0012445561587810516
1761467744503942400,3.9289423828125,-0.000020393403246998787,0.00012256036279723048,-0.00021262932568788528
1761467744513895400,3.9388955078125,-0.0009911155793815851,-0.000182371586561203,0.0010997764766216278
1761467744523848400,3.948848388671875,0.0007550265872851014,0.0006441239966079593,0.0005544964224100113
1761467744533801500,3.958801513671875,-0.0003637674089986831,0.0008862053509801626,0.0008967126486822963
1761467744543755500,3.968755615234375,-0.0013819397427141666,-0.00042793192551471293,-0.000759913818910718
1761467744553708500,3.97870849609375,-0.0004407786764204502,-0.0012609686236828566,-0.0012986711226403713
1761467744565527600,3.990527587890625,0.0013801066670566797,-0.00021622661733999848,0.0012737074866890907
1761467744575480600,4.00048046875,-0.001766151748597622,-0.0011299571488052607,0.0008734343573451042
1761467744585434400,4.010434326171875,-0.000739926181267947,-0.0018647222314029932,0.0012969333911314607
1761467744595387400,4.020387451171875,-0.00163235142827034,-0.00007747486233711243,0.0005155617836862803
1761467744605340400,4.03034033203125,-0.0019200650276616216,-0.0008844522526487708,-0.00020044157281517982
1761467744615293400,4.04029345703125,-0.0011482809204608202,0.00004179519601166248,-0.000027069589123129845
1761467744625247500,4.05024755859375,0.0009190410492010415,0.00008435675408691168,0.0008878157241269946
1761467744635200500,4.060200439453125,-0.0006964324275031686,0.00021192216081544757,0.00017675175331532955
1761467744645153500,4.070153564453125,-0.00021030113566666842,0.00013909133849665523,0.0009905180195346475
1761467744655106600,4.0801064453125,0.00002219283487647772,0.00035294319968670607,-0.0012492004316300154
1761467744665060600,4.090060546875,-0.0008072438067756593,-0.00023296783911064267,-0.001025291159749031
1761467744675013600,4.100013671875,0.002388549502938986,-0.0000729119055904448,0.000298832543194294
1761467744684966700,4.109966552734375,-0.00026225275360047817,-0.0005213180556893349,0.0011335228336974978
1761467744694919700,4.119919677734375,0.0013196649961173534,-0.0009026827174238861,0.0004677325487136841
1761467744704872700,4.129872802734375,-0.000014200340956449509,-0.000699383846949786,-0.0008652566466480494
1761467744714826500,4.139826416015625,-0.00015375000657513738,0.00043565541272982955,0.001046360470354557
1761467744724779500,4.149779541015625,0.002070661401376128,-0.000012694625183939934,0.00042402721010148525
1761467744734732300,4.159732177734375,-0.0005586775951087475,-0.0005117710679769516,-0.001175201265141368
1761467744744685300,4.169685302734375,-0.00017181545263156295,0.0007341202581301332,-0.0000703372061252594
1761467744754639400,4.179639404296875,0.00014083960559219122,0.002185809426009655,0.0006788098253309727
1761467744764592400,4.18959228515625,0.0005281568737700582,-0.0008095020893961191,0.0007050326094031334
1761467744774545400,4.19954541015625,-0.00003936281427741051,-0.002398876706138253,-0.001604993361979723
1761467744784498400,4.20949853515625,0.0005256761214695871,-0.0008980701677501202,-0.00034636794589459896
1761467744794452500,4.219452392578125,0.0012180979829281569,0.0002412301255390048,0.00046296650543808937
1761467744804405500,4.229405517578125,0.00023120554396882653,-0.0006177702452987432,-0.00020536640658974648
1761467744814358500,4.239358642578125,-0.000003951601684093475,-0.0005743607180193067,0.0005741408094763756
1761467744824311600,4.2493115234375,-0.0017044458072632551,0.00017299613682553172,0.00038851145654916763
1761467744834265300,4.259265380859375,0.001026892103254795,0.0006963072228245437,-0.00010657031089067459
1761467744844218400,4.26921826171875,-0.00125450873747468,-0.0012241173535585403,0.0002553681842982769
1761467744854171400,4.27917138671875,0.000182000279892236,-0.000311452109599486,0.0014290233375504613
1761467744864124400,4.28912451171875,-0.0001386693911626935,0.0006799495313316584,0.0004432236310094595
1761467744874700500,4.299700439453125,0.00017185520846396685,-0.0008345901733264327,-0.00046837632544338703
1761467744884653600,4.309653564453125,-0.000973972026258707,-0.000004291418008506298,0.0016693565994501114
1761467744894606600,4.319606689453125,-0.0013177860528230667,-0.0002815264742821455,-0.0010875477455556393
1761467744904560600,4.329560546875,0.0007169650052674115,0.0007379922899417579,0.0008544509764760733
1761467744914513700,4.339513671875,0.0019774390384554863,0.000051695737056434155,0.00024698395282030106
1761467744924466700,4.349466796875,-0.0010021142661571503,0.00038999796379357576,-0.0006778563838452101
1761467744934419500,4.35941943359375,0.00031375361140817404,-0.00046141460188664496,-0.00023603788577020168
1761467744944373500,4.36937353515625,0.0007047858089208603,0.0009182000067085028,0.00044719153083860874
1761467744954326300,4.379326171875,0.0008824187098070979,-0.0003848847118206322,-0.0015967846848070621
1761467744964279300,4.389279296875,0.0005375874461606145,0.0002521283458918333,-0.0004331376403570175
1761467744974233000,4.399233154296875,-0.00012447434710338712,-0.0006072737742215395,-0.0008797498885542154
1761467744984187100,4.409187255859375,0.00112126802559942,0.00039599277079105377,0.001218041987158358
1761467744994140200,4.41914013671875,0.0012355176731944084,-0.0005411736783571541,0.0016747741028666496
1761467745004093200,4.42909326171875,-0.0006600937340408564,-0.00005554530071094632,-0.0015057222917675972
1761467745014046200,4.439046142578125,-0.0004758029826916754,-0.00030188768869265914,-0.0012591136619448662
1761467745024000300,4.449000244140625,0.0003882005112245679,-0.00009922764729708433,0.0011686984216794372
1761467745033953300,4.458953369140625,-0.0009726747521199286,0.0003745487192645669,-0.00033412338234484196
1761467745043906000,4.468906005859375,-0.0006106477812863886,0.00042369734728708863,0.0009232163429260254
1761467745053859000,4.478859130859375,-0.0016735154204070568,0.0009206431568600237,-0.00013831956312060356
1761467745063812900,4.488812744140625,0.0021543207112699747,-0.00044251387589611113,-0.000005381181836128235
1761467745073766000,4.498765869140625,0.0015745505224913359,-0.0009842008585110307,-0.0009934140834957361
1761467745083719000,4.508718994140625,0.002295794663950801,0.0015761428512632847,0.000241460045799613
1761467745093672000,4.518671875,-0.000985486083664,-0.0008760960190556943,0.0001415915321558714
1761467745103626000,4.5286259765625,0.000577745377086103,-0.0008293064311146736,0.00018071266822516918
1761467745113579000,4.5385791015625,0.0011175681138411164,0.0005821689264848828,-0.00005657481960952282
1761467745123532000,4.548531982421875,-0.0010999024379998446,0.0006690071313641965,0.0020397487096488476
1761467745133485000,4.558485107421875,0.000048186222556978464,-0.00039492573705501854,0.00027726893313229084
1761467745143439000,4.568439208984375,0.0009213407756760716,0.00009116582805290818,0.0003346314188092947
1761467745153392000,4.57839208984375,-0.000547126168385148,-0.001244942075572908,-0.0008331649005413055
1761467745163345200,4.58834521484375,0.001551919151097536,-0.0008072429918684065,0.0009413929656147957
1761467745173298200,4.598298095703125,0.0004086242406629026,-0.00019764542230404913,0.0012990555260330439
1761467745183252200,4.608252197265625,0.0008067875169217587,-0.0009709257865324616,0.00007689697667956352
1761467745193205000,4.618205078125,-0.00040894554695114493,-0.0005578694399446249,0.00038955220952630043
1761467745203158000,4.628157958984375,-0.00017948038293980062,-0.0005352674634195864,0.0014258272713050246
1761467745213111000,4.638111083984375,0.0008096176316030324,-0.0004242136492393911,-0.0005939139518886805
1761467745223065000,4.648065185546875,-0.0001738334831316024,-0.0005362918018363416,0.0004208709578961134
1761467745233018000,4.65801806640625,-0.0002649136004038155,0.0003076639259234071,0.001338862581178546
1761467745242971100,4.66797119140625,-0.0005480708205141127,0.0001617347588762641,0.0007248078472912312
1761467745252924200,4.677924072265625,0.001471404219046235,0.0004855751758441329,-0.00015882891602814198
1761467745262878200,4.687878173828125,-0.0006860763533040881,0.0004452441935427487,0.00011106254532933235
1761467745272831200,4.697831298828125,-0.00037768229958601296,0.0005754727753810585,0.0004247829783707857
1761467745282784000,4.707783935546875,0.0005246290238574147,-0.0006468085339292884,0.0006087671499699354
1761467745292737000,4.717737060546875,0.0003416698891669512,0.00020380510250106454,0.00010649510659277439
1761467745302691000,4.727691162109375,0.00022866844665259123,-0.00003119261236861348,-0.0022230809554457664
1761467745312644000,4.73764404296875,-0.00016175099881365895,0.00028545723762363195,-0.000174044631421566
1761467745322597000,4.74759716796875,0.00006753858178853989,-0.0012205541133880615,0.0006969284731894732
1761467745332550100,4.757550048828125,-0.002546886680647731,-0.00007832437404431403,-0.00021360628306865692
1761467745342504000,4.76750390625,-0.0002952261711470783,0.0013730514328926802,-0.00012916047126054764
1761467745352457000,4.77745703125,0.0004991948371753097,0.0006255021435208619,0.0005430213641375303
1761467745362410000,4.787409912109375,-0.00036379744415171444,-0.00022855683346278965,0.000316759804263711
1761467745372363000,4.797363037109375,-0.0016034989384934306,0.0007842432823963463,0.00043447152711451054
1761467745382317000,4.807317138671875,-0.00006587785901501775,-0.000052511750254780054,0.00017776642926037312
1761467745392270000,4.81727001953125,-0.00010262947762385011,0.0004343140753917396,0.0005103950388729572
1761467745402223000,4.82722314453125,0.0012253525201231241,-0.00017926000873558223,0.0002598667051643133
1761467745412176100,4.837176025390625,-0.000008223636541515589,0.0011627068743109703,-0.0004828888922929764
1761467745422130200,4.847130126953125,0.0004435742739588022,0.0004514617030508816,0.0006410935893654823
1761467745432083200,4.857083251953125,0.000505892327055335,0.002089039422571659,0.000910339062102139
1761467745442036200,4.8670361328125,0.00014601240400224924,0.0010015724692493677,-0.00014452100731432438
1761467745451989200,4.8769892578125,0.00035933154867962003,0.0004534938489086926,0.0002389743458479643
1761467745461943000,4.886943115234375,-0.001441829139366746,-0.0016165158012881875,0.0004560742527246475
1761467745471896000,4.89689599609375,-0.0004649816546589136,0.000845310278236866,-0.00041504576802253723
1761467745481849000,4.90684912109375,-0.0001675281091593206,0.0008965387241914868,-0.002067822264507413
1761467745491801900,4.9168017578125,-0.0011443756520748138,0.000159375777002424,0.00037669320590794086
1761467745501756200,4.926756103515625,0.00036274996818974614,-0.00010175694478675723,-0.0005510796327143908
1761467745511709000,4.936708984375,-0.00045803625835105777,0.0003800088888965547,-0.0012208647094666958
1761467745521662000,4.946661865234375,0.00046137417666614056,-0.0005096672684885561,-0.0016426404472440481
1761467745531615000,4.956614990234375,-0.0015692862216383219,0.0004237706889398396,0.0015129392268136144
1761467745541569000,4.966569091796875,0.00030540424631908536,0.0009844976011663675,0.000040283193811774254
1761467745551522000,4.97652197265625,-0.00011217943392693996,-0.0008906340226531029,-0.0010920928325504065
1761467745561475000,4.98647509765625,-0.00012154452269896865,-0.0007579490193165839,-0.0015673297457396984
1761467745571428000,4.996427978515625,0.001157305552624166,0.0013190503232181072,0.0007126026321202517
1761467745581382100,5.006382080078125,0.00016429618699476123,-0.0009137031738646328,-0.0009862130973488092
1761467745591335200,5.016335205078125,0.0001421919441781938,-0.0008649673545733094,0.002426894148811698
1761467745601288200,5.0262880859375,-0.0008963561267592013,0.0007049365085549653,-0.0012746290303766727
1761467745611241200,5.0362412109375,0.0006890236400067806,0.0012916307896375656,-0.001067168777808547
1761467745621195000,5.046195068359375,-0.0005600579315796494,0.00035546027356758714,-0.0006154926959425211
1761467745631148000,5.05614794921875,-0.00022183643886819482,0.0003903477336280048,0.00019197771325707436
1761467745641101000,5.06610107421875,0.0006695248303003609,0.0003328762832097709,0.0018402300775051117
1761467745651054000,5.07605419921875,-0.0005265008076094091,-0.00022851806716062129,-0.0001126658171415329
1761467745661008100,5.086008056640625,0.0008790271240286529,0.000696334580425173,0.0014641702873632312
1761467745670961200,5.095961181640625,0.0002750221756286919,-0.000012865231838077307,0.00012939400039613247
1761467745680914200,5.1059140625,-0.00009889842476695776,-0.0003369800979271531,0.0009687141282483935
1761467745690867200,5.1158671875,0.0015312224859371781,-0.00013484616647474468,-0.0010845831129699945
1761467745700821200,5.1258212890625,-0.0008149700588546693,-0.001005226862616837,-0.001202097861096263
1761467745710774300,5.135774169921875,0.0006521653849631548,-0.0009120162576436996,0.0005534577649086714
1761467745720727300,5.145727294921875,-0.0013312603114172816,-0.0001643364957999438,0.00014386395923793316
1761467745730680000,5.15568017578125,-0.0008151396759785712,-0.0013925863895565271,0.0009819607948884368
1761467745740634000,5.165634033203125,0.0009129389654844999,0.000538269872777164,-0.0015247350092977285
1761467745750587000,5.1755869140625,0.001504693296737969,-0.00012272672029212117,0.0009520046878606081
1761467745760540000,5.185539794921875,-0.0009714391781017184,-0.00034572341246530414,0.0003277247305959463
1761467745770493000,5.195492919921875,-0.001018044538795948,0.0011539026163518429,0.00021906779147684574
1761467745780446000,5.205446044921875,0.00033777073258534074,0.0004084837855771184,-0.0023104024585336447
1761467745790400000,5.21539990234375,0.0004311692900955677,0.00046143215149641037,0.00008997973054647446
1761467745800353000,5.22535302734375,0.000027092639356851578,-0.0002997640403918922,-0.0007305527105927467
1761467745810306000,5.23530615234375,-0.0007854378200136125,-0.00040016521234065294,-0.00003626663237810135
1761467745820260000,5.245260009765625,-0.00010446528904139996,-0.0008867103606462479,0.00047888956032693386
1761467745830213000,5.255213134765625,-0.00043256671051494777,0.0008858896908350289,0.0010613228660076857
1761467745840166100,5.265166259765625,-0.0012316032079979777,-0.0007151661557145417,-0.0004094436299055815
1761467745850119200,5.275119140625,-0.0008877891232259572,0.0004238678375259042,-0.00032981508411467075
1761467745860073200,5.2850732421875,-0.00018373929196968675,-0.00007513159653171897,-0.0012903048191219568
1761467745870026000,5.29502587890625,-0.0002963910228572786,0.0007334041292779148,0.0022655478678643703
1761467745879979000,5.30497900390625,0.0010416642762720585,0.0001443797373212874,0.0000914381816983223
1761467745889932000,5.31493212890625,0.0007852019043639302,0.001869042869657278,-0.00011229352094233036
1761467745899886000,5.324885986328125,0.002084774198010564,0.0005394599866122007,0.0007904451340436935
1761467745909839000,5.334839111328125,-0.0012716078199446201,0.002430038060992956,-0.0013318280689418316
1761467745919792000,5.344792236328125,-0.0005295031587593257,-0.0001884580124169588,-0.0008951141498982906
1761467745929745200,5.3547451171875,-0.0007366971112787724,0.00037959421752020717,-0.0006258685607463121
1761467745939699200,5.36469921875,0.0004319248837418854,0.0004905815003439784,-0.0014223558828234673
1761467745949652200,5.37465234375,-0.0007182944100350142,0.0009230788564309478,0.0007542457897216082
1761467745959605000,5.38460498046875,-0.0006630081916227937,-0.00019575629266910255,-0.00009635253809392452
1761467745969558300,5.394558349609375,-0.0008888442534953356,0.00037202960811555386,-0.0007224616128951311
1761467745979511300,5.40451123046875,0.00175562035292387,0.00035465287510305643,0.00015828455798327923
1761467745989465300,5.41446533203125,-0.00007050926797091961,-0.0004288491327315569,0.0010360624874010682
1761467745999418400,5.42441845703125,0.0006993393762968481,-0.00019496202003210783,-0.0012793142814189196
1761467746009371400,5.434371337890625,-0.0014586200704798102,-0.000298026337986812,-0.000014845281839370728
1761467746019325200,5.4443251953125,-0.0005707594100385904,0.0013961551012471318,-0.0005176537670195103
1761467746029278200,5.4542783203125,-0.00042828029836528003,0.0005354214226827025,-0.000873984768986702
1761467746039231200,5.464231201171875,0.0015293825417757034,-0.00021785093122161925,0.00002192542888224125
1761467746049184300,5.474184326171875,-0.0014179376885294914,0.0005603247554972768,-0.0002015137579292059
1761467746059138300,5.48413818359375,-0.000560708693228662,0.00010830216342583299,-0.00040297629311680794
1761467746069091300,5.49409130859375,-0.0010933408048003912,0.0007919356576167047,-0.00008126627653837204
1761467746079044400,5.50404443359375,-0.0001305287005379796,-0.0000295602367259562,-0.00019875867292284966
1761467746088997400,5.513997314453125,-0.0023793019354343414,-0.0002388846769463271,0.00005370890721678734
1761467746098951400,5.523951416015625,0.0008855141932144761,-0.0014676926657557487,0.000002696877345442772
1761467746108904400,5.533904541015625,-0.0011829630238935351,-0.00036487766192294657,-0.00008731801062822342
1761467746118857500,5.543857421875,-0.0011311558773741126,-0.000238329783314839,-0.0001890566200017929
1761467746128810500,5.553810546875,-0.002279777079820633,0.0016551779117435217,-0.00035497150383889675
1761467746138764300,5.563764404296875,-0.000666433887090534,-0.0008509554900228977,0.0006844773888587952
1761467746148717300,5.57371728515625,-0.00019931542919948697,-0.00044695392716675997,-0.0005032923072576523
1761467746158670300,5.58367041015625,-0.0000974952126853168,0.00046789494808763266,0.00006586965173482895
1761467746168623400,5.593623291015625,0.00021382828708738089,0.0006955952849239111,0.00008397898636758327
1761467746178577400,5.603577392578125,-0.00029723707120865583,-0.001709269592538476,0.0006485923659056425
1761467746188530400,5.613530517578125,0.00028066884260624647,0.00005906925071030855,-0.0013229458127170801
1761467746198483200,5.623483154296875,0.0009212490986101329,-0.000848921830765903,0.00007720477879047394
1761467746208436200,5.633436279296875,-0.0017102202400565147,-0.0010936663020402193,-0.0007595603819936514
1761467746218390300,5.643390380859375,0.0008359967614524066,-0.00018315727356821299,-0.0004044012166559696
1761467746228343300,5.65334326171875,-0.0005536407115869224,-0.0004694470844697207,-0.00023049674928188324
1761467746238296300,5.66329638671875,-0.000456741894595325,-0.00007224408909678459,-0.0007725297473371029
1761467746248249300,5.673249267578125,-0.0008397044730372727,-0.0006671942537650466,-0.0022196914069354534
1761467746258203400,5.683203369140625,0.0003005099715664983,-0.0008239286253228784,0.0010219155810773373
1761467746268156400,5.693156494140625,-0.000533059414010495,0.0003728959709405899,0.0003268304280936718
1761467746278109400,5.703109375,-0.0009780008113011718,-0.00019870209507644176,0.0005577183328568935
1761467746288062200,5.713062255859375,-0.0014810719294473529,0.001064701471477747,0.001609134254977107
1761467746298016300,5.723016357421875,0.000754792126826942,-0.00033184693893417716,-0.0005496020894497633
1761467746307969300,5.73296923828125,-0.0006023547612130642,0.00052515824791044,0.0005225865170359612
1761467746317922300,5.74292236328125,0.000877744925674051,-0.0002045902074314654,-0.0006001312285661697
1761467746327875300,5.752875244140625,0.0007754795369692147,-0.00009167217649519444,0.00030454457737505436
1761467746337829400,5.762829345703125,0.0008733508875593543,0.0002476155641488731,0.000651166308671236
1761467746347782400,5.772782470703125,0.0005564347375184298,0.000241490313783288,-0.00021808943711221218
1761467746357735400,5.7827353515625,0.00053862773347646,0.0007053904701024294,0.00023819925263524055
1761467746367688400,5.7926884765625,-0.00024860264966264367,-0.0007633429486304522,0.00012554763816297054
1761467746377642500,5.802642578125,0.0007261047721840441,-0.00044539233203977346,-0.0001792523544281721
1761467746387595500,5.812595458984375,-0.0019437142182141542,0.0013570350129157305,0.0008159709395840764
1761467746397548500,5.822548583984375,0.00010036281310021877,0.0006344752619042993,-0.001543430145829916
1761467746407501300,5.832501220703125,-0.0008258846355602145,-0.00011573717347346246,0.0002856289502233267
1761467746417455400,5.842455322265625,-0.0005264980718493462,0.0014705527573823929,0.0008761190110817552
1761467746427408100,5.852408203125,-0.00014060601824894547,0.00013737427070736885,-0.0004280309658497572
1761467746437361200,5.862361083984375,-0.0010178517550230026,-0.0006908715004101396,-0.00007467973046004772
1761467746447314200,5.872314208984375,-0.0007906840764917433,0.00009236414916813374,-0.0002637642901390791
1761467746457268200,5.882268310546875,0.0012132569681853056,-0.0006047759670764208,0.0008606461342424154
1761467746467221200,5.89222119140625,-0.00006878864951431751,0.0011417251080274582,0.001683562877587974
1761467746477174300,5.90217431640625,0.00021621648920699954,0.0012374722864478827,-0.0008151642978191376
1761467746487127300,5.912127197265625,0.0002713439171202481,-0.0003439128340687603,0.0000993653666228056
1761467746497081300,5.922081298828125,0.002011255593970418,0.000893967691808939,0.00014396337792277336
1761467746507034400,5.932034423828125,0.0014887433499097824,0.00025081424973905087,-0.0002248843666166067
1761467746516987400,5.9419873046875,0.0001733279787003994,-0.00016848390805535018,0.000903052045032382
1761467746526940400,5.9519404296875,0.0001373753184452653,-0.0005714201834052801,-0.0001901756040751934
1761467746536894200,5.961894287109375,-0.0014837852213531733,-0.00005877780495211482,0.0012099185260012746
1761467746546847200,5.97184716796875,0.0008137237746268511,0.0005580103024840355,0.0010333509417250752
1761467746556800300,5.98180029296875,-0.0008322204230353236,-0.0011610740330070257,-0.0014323580544441938
1761467746566753300,5.991753173828125,0.0004263895098119974,0.00020992133067920804,0.00019296910613775253
1761467746576707300,6.001707275390625,0.00010711944196373224,-0.00016522430814802647,-0.0011353257577866316
1761467746586660400,6.011660400390625,-0.00075627735350281,-0.001648072386160493,-0.0010303971357643604
1761467746596613400,6.02161328125,-0.0004734309623017907,-0.0002950075431726873,-0.0005586498882621527
1761467746606566400,6.03156640625,-0.00009632733417674899,-0.000918719859328121,-0.0004649064503610134
1761467746616520400,6.0415205078125,-0.0009337448864243925,-0.0011354006128385663,0.0002279102336615324
1761467746626473500,6.051473388671875,0.0008487087907269597,0.0018004681915044785,-0.0006448077037930489
1761467746636426500,6.061426513671875,-0.0006675703916698694,-0.0007501076906919479,0.00025892280973494053
1761467746646379300,6.071379150390625,-0.00045664800563827157,0.00022460927721112967,-0.0003554683644324541
1761467746656333600,6.08133349609375,0.0010379103478044271,-0.000046189059503376484,0.00041621364653110504
1761467746666286300,6.091286376953125,-0.0005149790085852146,-0.002296826336532831,0.0003544283099472523
1761467746676239400,6.1012392578125,-0.0005196868441998959,0.0006456031114794314,-0.00006195856258273125
1761467746686192400,6.1111923828125,0.00011947180610150099,0.0010884867515414953,0.0015585749642923474
1761467746696146200,6.121146240234375,-0.0007270056521520019,0.0004143756814301014,0.000653059221804142
1761467746706099200,6.13109912109375,-0.00010276073589920998,0.0004703020676970482,0.0008815584005787969
1761467746716052200,6.14105224609375,-0.0013368113432079554,-0.00018621759954839945,0.00030772900208830833
1761467746726005200,6.151005126953125,-0.0006012461963109672,0.0003048693179152906,-0.00009360956028103828
1761467746735959300,6.160959228515625,0.00022498180624097586,0.00024373939959332347,-0.0005714374128729105
1761467746745912300,6.170912353515625,-0.00043894420377910137,0.0002442719996906817,-0.0004989993758499622
1761467746755865300,6.180865234375,0.00007064116653054953,0.0007377375150099397,0.0002929861657321453
1761467746765818400,6.190818359375,-0.000023900996893644333,0.00009431783109903336,-0.0017901384271681309
1761467746775772400,6.2007724609375,0.00041781761683523655,0.00006884965114295483,-0.000817285617813468
1761467746785725400,6.210725341796875,-0.0009292092290706933,0.0007436946616508067,0.0010770210064947605
1761467746795678500,6.220678466796875,0.0018697427585721016,0.001299530267715454,0.001440150197595358
1761467746805631500,6.230631591796875,-0.00043841899605467916,0.0002068352187052369,0.00018100766465067863
1761467746815585300,6.240585205078125,-0.0008837964851409197,-0.0012453024974092841,-0.0011010193265974522
1761467746825538300,6.250538330078125,-0.0012244147947058082,0.0005097207031212747,-0.0006016767583787441
1761467746835491300,6.2604912109375,0.000607645430136472,-0.0004741021548397839,-0.00022417539730668068
1761467746845444400,6.2704443359375,-0.0002597461570985615,-0.0000674374750815332,0.000923114363104105
1761467746855398400,6.2803984375,-0.0005859948578290641,0.0002154771937057376,0.0008801458170637488
1761467746865351400,6.290351318359375,-0.0005993106751702726,-0.0007216891972348094,0.001017564907670021
1761467746875304200,6.30030419921875,0.00017045630374923348,-0.0006225138786248863,-0.0008997393306344748
1761467746885258500,6.310258544921875,0.0015323967672884464,0.00031012517865747213,-0.0004099840298295021
1761467746895211300,6.320211181640625,-0.00047206063754856586,-0.000984912971034646,0.0005263907369226217
1761467746905164300,6.330164306640625,0.000375623581930995,-0.00008929189061746001,0.0007679394911974669
1761467746915117300,6.340117431640625,0.00033197569428011775,0.0013638881500810385,-0.0016917677130550146
1761467746925071400,6.3500712890625,0.000791104685049504,-0.00062256382079795,0.00031119585037231445
1761467746935024400,6.3600244140625,-0.0012565701035782695,-0.000259291788097471,0.0015433062799274921
1761467746944977400,6.369977294921875,-0.0012949196388944983,0.00009490863885730505,0.000376309035345912
1761467746954930400,6.379930419921875,0.0006530379178002477,-0.00014218053547665477,0.0003684477414935827
1761467746964884200,6.38988427734375,0.00006607722025364637,0.0005454476922750473,-0.000009721145033836365
1761467746974840300,6.39984033203125,-0.000861934560816735,0.0006868063937872648,-0.0009582836646586657
1761467746984793300,6.40979345703125,0.0005868250736966729,-0.00012226199032738805,0.000007911119610071182
1761467746994746400,6.419746337890625,0.00024967797799035907,0.0003407226176932454,0.0005735838785767555
1761467747004700400,6.429700439453125,-0.0011910921894013882,0.00010769598884508014,0.00017650634981691837
1761467747014653400,6.4396533203125,-0.00038305920315906405,0.0001646707532927394,0.0005172749515622854
1761467747024606500,6.4496064453125,-0.001147919101640582,-0.000984749523922801,0.0007226048037409782
1761467747034559500,6.4595595703125,-0.0009228599956259131,-0.00005727808456867933,-0.0006589610129594803
1761467747044513500,6.469513427734375,-0.0008882389520294964,0.00041916145710274577,-0.001107170945033431
1761467747054466600,6.479466552734375,-0.0005032337503507733,-0.00043605329119600356,0.0009054046822711825
1761467747064419600,6.489419677734375,-0.0006331959739327431,0.00035916658816859126,-0.0003473463002592325
1761467747074372600,6.49937255859375,-0.000388447311706841,0.000987845123745501,0.00032671960070729256
1761467747084326400,6.509326416015625,0.0006749529275111854,0.0009228639537468553,0.00015867408365011215
1761467747094279400,6.519279541015625,-0.0005344798555597663,-0.0003782472631428391,-0.00020415056496858597
1761467747104232400,6.529232421875,-0.0011145162861794233,-0.0016091603320091963,0.00036310264840722084
1761467747114185500,6.539185546875,-0.0011631827801465988,0.000481176539324224,0.00012521492317318916
1761467747124139500,6.549139404296875,-0.00016369839431717992,0.0007165999850258231,-0.0010007696691900492
1761467747134092500,6.559092529296875,-0.0008775254827924073,0.0006938420119695365,-0.0005407158751040697
1761467747144045600,6.569045654296875,0.0007616500952281058,0.00006427074549719691,-0.000348435714840889
1761467747153998600,6.57899853515625,0.00031488167587667704,-0.0005183025496080518,0.00003929575905203819
1761467747163952600,6.58895263671875,0.0004919818602502346,0.0008071527117863297,0.00034342892467975616
1761467747173905700,6.59890576171875,-0.0007637930102646351,-0.00036828586598858237,-0.000023800646886229515
1761467747183858400,6.6088583984375,-0.0010362344328314066,0.0013204244896769524,-0.0011535135563462973
1761467747193811500,6.6188115234375,-0.0013205768773332238,-0.0009565670625306666,0.00013968581333756447
1761467747203765500,6.628765625,0.00048531265929341316,0.0021081985905766487,0.0003237102646380663
1761467747213718500,6.638718505859375,0.0007447533425875008,0.0011543773580342531,-0.00013409554958343506
1761467747223671600,6.648671630859375,-0.0006235788459889591,0.00175199075601995,0.00035219755955040455
1761467747233624600,6.65862451171875,0.0002051305491477251,0.0009898184798657894,-0.000511618098244071
1761467747243578400,6.668578369140625,-0.0011898331576958299,0.001081164926290512,-0.0005510328337550163
1761467747253531400,6.678531494140625,0.002179186325520277,-0.00042623881017789245,-0.0007007706444710493
1761467747263484400,6.688484375,0.0009464091854169965,0.0001601892290636897,-0.0009460477158427238
1761467747273437400,6.6984375,0.0007410058751702309,-0.000014015415217727423,0.0006156512536108494
1761467747283391500,6.7083916015625,-0.0006638115737587214,0.00036868080496788025,-0.0007196576334536076
1761467747293344500,6.718344482421875,0.0002154348185285926,-0.000223654875298962,-0.0007582905236631632
1761467747303297500,6.728297607421875,-0.00010760664008557796,-0.00017731587286107242,0.00041243527084589005
1761467747313250600,6.73825048828125,-0.00014809577260166407,-0.0009351236512884498,0.0013185541611164808
1761467747323204600,6.74820458984375,0.0010111782466992736,-0.00007092783926054835,-0.00008839392103254795
1761467747333157600,6.75815771484375,-0.0016871821135282516,-0.0007563718827441335,0.00017431355081498623
1761467747343110700,6.768110595703125,0.0000934073468670249,-0.0002764702367130667,-0.0006086558569222689
1761467747353064400,6.778064453125,0.000262828660197556,0.00012647313997149467,0.0000964687205851078
1761467747363017500,6.788017578125,-0.000004552712198346853,-0.0011427893768996,0.00017396686598658562
1761467747372970500,6.797970458984375,0.0007383718620985746,0.0003855052054859698,-0.0006272508762776852
1761467747382923500,6.807923583984375,0.0005173294339329004,0.0006217275513336062,-0.0007827796507626772
1761467747392877600,6.817877685546875,-0.0007764443289488554,0.00010079232743009925,-0.00041290419176220894
1761467747402830600,6.82783056640625,0.000029161921702325344,-0.0013724684249609709,0.0010289313504472375
1761467747412783400,6.837783447265625,0.0006704781553708017,0.0021507989149540663,-0.0007499647326767445
1761467747422736400,6.847736328125,0.000974877446424216,0.0012455906253308058,0.0004647031892091036
1761467747432690700,6.857690673828125,0.0001715455437079072,0.0006516176508739591,-0.0002568282652646303
1761467747442643500,6.8676435546875,0.0014256280846893787,0.0008255220018327236,0.00019883853383362293
1761467747452596500,6.877596435546875,-0.0006309691234491765,-0.00024828221648931503,0.0007173942867666483
1761467747462549500,6.887549560546875,-0.0001321590389125049,0.00006730237510055304,-0.000792085425928235
1761467747472503300,6.89750341796875,0.00014079897664487362,0.000007664901204407215,-0.0012668012641370296
1761467747482456300,6.907456298828125,-0.0007622789707966149,0.0006406983593478799,0.00045892689377069473
1761467747492409300,6.917409423828125,0.0007462904904969037,-0.00047871610149741173,0.001133532146923244
1761467747502362400,6.9273623046875,0.00007970124715939164,0.00022622261894866824,-0.0008673006668686867
1761467747512316400,6.93731640625,-0.000787050579674542,0.0009043993195518851,-0.002134170848876238
1761467747522269400,6.94726953125,0.0005314804147928953,-0.0008434333140030503,-0.00028860033489763737
1761467747532222500,6.957222412109375,0.0021374847274273634,-0.0006067464710213244,-0.00042305770330131054
1761467747542175500,6.967175537109375,-0.00006974319694563746,0.0003708999720402062,0.0020651337690651417
1761467747552129500,6.977129638671875,-0.0008030319586396217,0.0011652229586616158,-0.0006439683493226767
1761467747562082600,6.98708251953125,0.0015959434676915407,0.0003079514135606587,-0.0008716685697436333
1761467747572035600,6.99703564453125,0.000431856547947973,-0.00025082373758777976,-0.0016812111716717482
1761467747581988600,7.006988525390625,-0.0003993160789832473,0.001950278878211975,-0.00089424685575068
1761467747591942700,7.016942626953125,-0.0006773738423362374,-0.0008819712093099952,-0.0012483831960707903
1761467747601895700,7.026895751953125,-0.001538640120998025,0.0006112632108852267,-0.0006345247384160757
1761467747611848700,7.0368486328125,-0.0007875063456594944,0.0013945428654551506,-0.00003792624920606613
1761467747621801700,7.0468017578125,0.00007775466656312346,0.00031143525848165154,-0.000737006077542901
1761467747631755500,7.056755615234375,0.0002894537756219506,0.00036449613980948925,0.00005700625479221344
1761467747641708500,7.06670849609375,0.0005760099738836288,-0.0002070182526949793,-0.00019120052456855774
1761467747651661300,7.076661376953125,-0.00025969091802835464,0.001188674010336399,-0.0010908327531069517
1761467747661615600,7.08661572265625,-0.001085270894691348,0.0004073024610988796,-0.00013795378617942333
1761467747671568400,7.096568359375,-0.0006098620360717177,0.00048421008978039026,-0.0011426974087953568
1761467747681521400,7.106521484375,-0.0005219776649028063,0.0008605147013440728,-0.0002508049365133047
1761467747691474400,7.116474365234375,0.0002144610625691712,0.00023519329261034727,0.00010315445251762867
1761467747701428500,7.126428466796875,-0.002008213195949793,-0.0006862604641355574,-0.0016686466988176107
1761467747711381500,7.136381591796875,-0.00002233387203887105,-0.0010241009294986725,-0.0011554923839867115
1761467747721334500,7.14633447265625,0.0010439958423376083,0.00038577656960114837,-0.0004913001321256161
1761467747731287600,7.15628759765625,0.00009386666351929307,-0.00020875473273918033,0.0003415597602725029
1761467747741241300,7.166241455078125,0.00009200244676321745,0.0020887544378638268,0.0002853670157492161
1761467747751194400,7.1761943359375,0.0007145688286982477,0.0014043916016817093,-0.0015624084044247866
1761467747761147400,7.1861474609375,-0.002586685586720705,0.0007644339930266142,-0.0004699795972555876
1761467747771100400,7.196100341796875,0.00035423890221863985,0.0006037199054844677,-0.0005036743823438883
1761467747781054500,7.206054443359375,-0.00006467633647844195,-0.00048737713950686157,0.00010059680789709091
1761467747791007500,7.216007568359375,0.0003060052404180169,0.00005210743984207511,0.0010509155690670013
1761467747800960500,7.22596044921875,0.0003536759177222848,-0.0002645424101501703,0.0006538382731378078
1761467747810913500,7.23591357421875,-0.00029027467826381326,0.0005192417884245515,-0.0011857305653393269
1761467747820867600,7.24586767578125,-0.000436748523497954,0.0004702395526692271,-0.00012233038432896137
1761467747830820600,7.255820556640625,-0.0008205691701732576,0.00042609585216268897,0.0007529270369559526
1761467747840773600,7.265773681640625,0.001474809367209673,0.00012222921941429377,0.00009379466064274311
1761467747850726700,7.2757265625,0.001428874908015132,-0.0005307727260515094,-0.0011434054467827082
1761467747860680700,7.2856806640625,0.0010312648955732584,0.0010601996909826994,-0.000542330089956522
1761467747870633700,7.2956337890625,0.001092410646378994,-0.00054818025091663,0.00031523103825747967
1761467747880586500,7.30558642578125,-0.0012085605412721634,0.0002025648718699813,0.000848928582854569
1761467747890539500,7.31553955078125,0.0007340110605582595,0.0012244635727256536,0.00019058608449995518
1761467747900493600,7.32549365234375,-0.0005088862380944192,0.001115540275350213,-0.0024408833123743534
1761467747910446300,7.3354462890625,0.00024054397363215685,-0.00038318417500704527,-0.0003188780974596739
1761467747920399400,7.3453994140625,-0.0013775925617665052,-0.0001251238863915205,0.0005269418470561504
1761467747930353400,7.355353515625,0.0012256534537300467,0.0005484840949065983,-0.00004579615779221058
1761467747940306400,7.365306396484375,0.0009382984135299921,-0.0005628530634567142,-0.0002758933696895838
1761467747950259500,7.375259521484375,0.0017126896418631077,-9.401701390743256e-7,0.0010549123398959637
1761467747960212500,7.38521240234375,0.0002615331904962659,0.0009841631399467587,-0.0005294021684676409
1761467747970163000,7.395162841796875,-0.001626472338102758,-0.0002696014998946339,-0.00063489587046206
1761467747980116000,7.405115966796875,-0.0008613461395725608,-0.0009308643639087677,0.0006929561495780945
1761467747990069000,7.415069091796875,-0.0003088809025939554,0.0009038315038196743,-0.0010637030936777592
1761467748000022000,7.42502197265625,-0.002002384979277849,0.0007331228698603809,-0.0012653041630983353
1761467748009975800,7.434975830078125,-0.00012111803516745567,0.000828995427582413,-0.0005362671799957752
1761467748019928800,7.4449287109375,0.0005686406511813402,0.0003048853250220418,0.00038412120193243027
1761467748029881900,7.4548818359375,-0.00019023730419576168,-0.0011955230729654431,0.0011216363636776805
1761467748039834600,7.464834716796875,-0.0008379180799238384,0.0002423175610601902,0.0002915291115641594
1761467748049789000,7.474788818359375,0.00044978130608797073,-0.00008505256846547127,-0.0003697616048157215
1761467748059741700,7.48474169921875,0.0007645669393241405,0.0008204221958294511,-0.0007431369740515947
1761467748069694700,7.49469482421875,-0.00063344556838274,0.00091110251378268,-0.00015671155415475368
1761467748079647700,7.504647705078125,-0.00008803018135949969,0.000265552313067019,0.00016872677952051163
1761467748089601800,7.514601806640625,0.0005251476541161537,-0.00009978457819670439,0.0015721720410510898
1761467748099554800,7.524554931640625,0.00046788970939815044,-0.00018260887009091675,0.0012848170008510351
1761467748109507800,7.5345078125,-0.0018127481453120708,0.0007469982374459505,-0.0014308553654700518
1761467748119460900,7.5444609375,-0.00020473147742450237,-0.00021147343795746565,0.0010006105294451118
1761467748129415000,7.554414794921875,-0.0010888653341680765,0.00019776099361479282,0.00041257799603044987
1761467748139368000,7.564367919921875,-0.0019493326544761658,0.0004227980971336365,-0.0000870309304445982
1761467748149321000,7.574321044921875,-0.0008312509162351489,0.0005301449564285576,0.00026306137442588806
1761467748159274800,7.584274658203125,-0.000173982756678015,0.00019565195543691516,0.0006263165269047022
1761467748169227800,7.594227783203125,-0.0017873808974400163,0.0005816150805912912,0.001043531228788197
1761467748179180800,7.604180908203125,-0.000903211475815624,0.0006729615270160139,0.00005922699347138405
1761467748189133800,7.6141337890625,-0.0004331657837610692,-0.0011969637125730515,-0.0009411727078258991
1761467748199087900,7.624087890625,0.00026697927387431264,0.00012210005661472678,-0.00020161294378340244
1761467748209041000,7.634041015625,0.000181649811565876,-0.0010483341757208109,0.0011517521925270557
1761467748218994000,7.643993896484375,0.0007457073079422116,-0.0008248949889093637,0.0002151185180991888
1761467748228947000,7.653947021484375,-0.00008506217272952199,0.0009612644207663834,-0.00013229064643383026
1761467748238901000,7.66390087890625,-0.0010922697838395834,-0.00004647573223337531,-0.00010486016981303692
1761467748248854000,7.67385400390625,-0.0015830928459763527,-0.00001800648169592023,-0.0007233468350023031
1761467748258807000,7.68380712890625,0.00034556840546429157,0.0006642953376285732,0.0005126262549310923
1761467748268759800,7.693759765625,-0.0002727016108110547,-0.00002793385647237301,-0.0006632793229073286
1761467748278713900,7.7037138671875,-0.00006470875814557076,0.0014413321623578668,0.000653387513011694
1761467748288666600,7.71366650390625,0.0006048485520295799,0.0003746295697055757,-0.0009702641982585192
1761467748298619600,7.72361962890625,-0.0003347146848682314,-0.0006882380112074316,0.00031364569440484047
1761467748308572700,7.73357275390625,0.001456980942748487,0.0004409215762279928,0.0008716352749615908
1761467748318526700,7.743526611328125,0.0008343338267877698,-0.0007021070923656225,0.00020930706523358822
1761467748328479700,7.753479736328125,0.001194659504108131,-0.0008818705100566149,0.00017202296294271946
1761467748338432800,7.763432861328125,0.00013292941730469465,0.0002870236639864743,0.001386152347549796
1761467748348385800,7.7733857421875,-0.00163282360881567,-0.0010701490100473166,0.00005399668589234352
1761467748358339800,7.78333984375,-0.0009489238145761192,0.0012630464043468237,-0.0002810289151966572
1761467748368292900,7.79329296875,0.0015101914759725332,0.00047329365042969584,-0.0016597523353993893
1761467748378246000,7.803245849609375,-0.0001644041622057557,-0.0002055460645351559,0.0011426922865211964
1761467748388199700,7.81319970703125,-0.00035091821337118745,-0.00006492913234978914,-0.0001582559198141098
1761467748398152700,7.823152587890625,-0.0006169680273160338,0.00027142814360558987,0.0012817152310162783
1761467748408105700,7.833105712890625,-0.0004414532450027764,0.00038876564940437675,0.001900034723803401
1761467748418058800,7.843058837890625,0.0014733596472069621,0.000978389522060752,-0.0001937425695359707
1761467748428012800,7.8530126953125,-0.0006172797293402255,0.00010641070548444986,-0.00015004770830273628
1761467748437965800,7.8629658203125,0.0018272357992827892,0.001260890974663198,0.001111491583287716
1761467748447918800,7.8729189453125,0.001995702274143696,-0.0013008547248318791,0.0007156813517212868
1761467748457872000,7.882871826171875,0.001309139421209693,0.0006429865607060492,0.0006933108670637012
1761467748467826000,7.892825927734375,0.000005261448677629232,0.000902293948456645,-0.00016149599105119705
1761467748477779000,7.902779052734375,-0.00010366184869781137,0.0012839249102398753,0.0007967093260958791
1761467748487732000,7.91273193359375,-0.00037403576425276697,0.00003630545688793063,0.0004188686143606901
1761467748497684700,7.922684814453125,-9.26898792386055e-7,0.00011726556112989783,-0.0004442618228495121
1761467748507639000,7.93263916015625,0.0006413728115148842,-0.0006034564576111734,0.0000033348333090543747
1761467748517592000,7.942592041015625,-0.0004995253984816372,0.0009576885495334864,0.0001617930829524994
1761467748527544800,7.952544921875,-0.0003776462108362466,-0.0008945936569944024,0.00032784114591777325
1761467748537497900,7.962497802734375,-0.0008029530290514231,-0.00015849596820771694,0.0003363632131367922
1761467748547451600,7.97245166015625,-0.0005708151729777455,0.0004354685079306364,-0.0008189564105123281
1761467748557404700,7.98240478515625,0.00047074706526473165,-0.0005102199502289295,-0.0004839305765926838
1761467748569224000,7.994223876953125,0.0015297671779990196,0.0010415706783533096,-0.0020825311075896025
1761467748579178000,8.004177978515624,-0.0017544431611895561,0.0007049470441415906,0.0001084513496607542
1761467748589130800,8.014130859375,0.001288748811930418,-0.0006616821046918631,-0.00007725460454821587
1761467748599083800,8.024083740234374,-0.0014833355089649558,-0.0006483663455583155,-0.0004524937830865383
1761467748609036800,8.034036865234375,0.0016519250348210335,0.0008535882225260139,-0.0003794638905674219
1761467748618990800,8.043990966796875,-0.0008924590656533837,-0.0003706669667735696,-0.0013374029658734798
1761467748628944000,8.05394384765625,0.00004739384166896343,0.0003402141737751663,-0.0002499958500266075
1761467748638897000,8.06389697265625,0.0010777709539979696,-0.0010076116304844618,-0.00006543868221342564
1761467748648849700,8.073849609375,0.0003416959661990404,-0.000009436625987291336,-0.0016705517191439867
1761467748658804000,8.083803955078125,-0.0012266396079212427,-0.00027601904002949595,-0.0012239397037774324
1761467748668756700,8.0937568359375,-0.0006345520378090441,-0.0006814412772655487,-0.0024008145555853844
1761467748678709800,8.103709716796875,-0.000502991839312017,0.0004288305644877255,-0.0002889276947826147
1761467748688662800,8.113662841796875,-0.000667609681840986,0.00027106289053335786,0.0007443802896887064
1761467748698616800,8.123616943359375,0.0005643686163239181,-0.000322023086482659,0.0018179004546254873
1761467748708569900,8.13356982421875,-0.0018579727038741112,0.0006745760911144316,0.0001700224820524454
1761467748718523000,8.14352294921875,-0.0005769921699538827,-0.0010404996573925018,-0.0004076173063367605
1761467748728476000,8.153475830078126,0.0010354653932154179,0.0003548605600371957,0.0011100978590548038
1761467748738429700,8.1634296875,-0.000178137153852731,-0.0005831047310493886,0.00015748501755297184
1761467748748382700,8.1733828125,0.0002550085191614926,-0.0009085503988899291,0.0010200798278674483
1761467748758335700,8.183335693359375,0.0005764520028606057,-0.0014401173684746027,0.00048505072481930256
1761467748768289800,8.193289794921874,0.00025218306109309196,0.0008393790922127664,-0.0017062206752598286
1761467748778242800,8.203242919921875,0.0005043843411840498,-0.0002929969341494143,-0.0015275226905941963
1761467748788195800,8.21319580078125,-0.0009761911351233721,0.00036851834738627076,-0.0002770340070128441
1761467748798148900,8.22314892578125,-0.0009650058927945793,-0.00040006989729590714,0.0005485459696501493
1761467748808103000,8.23310302734375,0.0006436010589823127,-0.0011130106868222356,-0.0009341535624116659
1761467748818056000,8.243055908203125,-0.0008139469427987933,0.0000012558884918689728,-0.00042389193549752235
1761467748828009000,8.253009033203124,-0.00021510565420612693,0.00028596073389053345,-0.0002988248597830534
1761467748837962000,8.2629619140625,0.0008978293626569211,0.0005458852974697948,-0.0008833887986838818
1761467748847915800,8.272915771484374,-0.0021240180358290672,-0.0010742979357019067,-0.0011850881855934858
1761467748857868800,8.282868896484375,0.00022595515474677086,0.000742244184948504,-0.0006505919154733419
1761467748867821800,8.29282177734375,-0.0008875583880580962,-0.000001303735189139843,0.00007975613698363304
1761467748877776000,8.30277587890625,-0.00033974615507759154,-0.0014037243090569973,-0.0012190677225589752
1761467748887729000,8.31272900390625,-0.0005297758616507053,-0.0007464954978786409,0.00017717108130455017
1761467748897682000,8.322681884765625,-0.001992916688323021,-0.000880718813277781,0.0005846347194164991
1761467748908257800,8.3332578125,-0.0010467360261827707,-0.00008651043754070997,0.00011834083124995232
1761467748918210800,8.3432109375,0.001288590021431446,0.0006224230164662004,-0.000606039073318243
1761467748928163800,8.353163818359375,-0.0017485537100583315,-0.00023925886489450932,0.0009932969696819782
1761467748938117600,8.36311767578125,-0.0011096613015979528,0.0006156158051453531,0.00040367315523326397
1761467748948070700,8.373070556640625,0.0006186300306580961,-0.0011141238501295447,-0.0016974091995507479
1761467748958023700,8.383023681640625,-0.0008029653690755367,-0.00035512293106876314,-0.0009844808373600245
1761467748967977700,8.392977783203126,0.0007970890728756785,-0.001386941527016461,0.00022192858159542084
1761467748977930800,8.4029306640625,0.0010144030675292015,-0.0005288710235618055,-0.0007152378093451262
1761467748987883800,8.4128837890625,-0.0009664364624768496,-0.00007105158874765038,0.00009254645556211472
1761467748997836800,8.4228369140625,-0.0003278104413766414,-0.0007352439570240676,-0.0008893609046936035
1761467749007790800,8.432790771484376,-0.00001864793011918664,-0.001592078828252852,-0.0002762451767921448
1761467749017744000,8.442743896484375,-0.0015779286623001099,-0.00023972566123120487,0.0003163083456456661
1761467749027697000,8.45269677734375,0.0002111853682436049,-0.0017886096611618996,0.00021581468172371387
1761467749037650000,8.46264990234375,-0.0003771068877540529,-0.0006495757261291146,0.0006877267733216286
1761467749047604000,8.47260400390625,0.0003505513886921108,0.000027364236302673817,-0.0019891555421054363
1761467749057557000,8.482556884765625,0.0011857186909765005,0.00031312141800299287,-0.0004453212022781372
1761467749067510000,8.492510009765626,-0.0012199918273836374,0.0017217251006513834,-0.00046064378693699837
1761467749077463800,8.5024638671875,-0.000507596239913255,-0.0006407651235349476,0.0001388336531817913
1761467749087416800,8.512416748046874,0.00038389285327866673,-0.0006650731083936989,-0.0017831572331488132
1761467749097369900,8.522369873046875,0.0009351671324111521,-0.000793171115219593,0.0002677433658391237
1761467749107323000,8.532322998046874,0.00044070667354390025,0.0005864710547029972,-0.00047278450801968575
1761467749117277000,8.54227685546875,-0.00033587109646759927,-0.00045242803753353655,-0.000946294516324997
1761467749127230000,8.55222998046875,0.0006600656197406352,0.0003227071138098836,-0.00165498536080122
1761467749137183000,8.562182861328125,-0.0009716531494632363,0.000112583686131984,0.0005176214035600424
1761467749147135700,8.5721357421875,0.0018153360579162836,-0.0002615856647025794,-0.0011931897606700659
1761467749157090000,8.582090087890625,0.0004994681221432984,-0.0009766444563865662,-0.0011199526488780975
1761467749167042800,8.592042724609374,0.00036217394517734647,-0.0002763981174211949,-0.0011165642645210028
1761467749176995800,8.601995849609375,-0.00027378895902074873,-0.00035416241735219955,-0.0005477131344377995
1761467749186949600,8.61194970703125,-0.00021381003898568451,0.001963893184438348,0.00022971723228693008
1761467749196902700,8.621902587890625,0.000060229271184653044,-0.000040668121073395014,-0.0009852168150246143
1761467749206855700,8.631855712890625,0.0009677070192992687,-0.00007531209848821163,0.0015191889833658934
1761467749216808700,8.64180859375,-0.000807822507340461,-0.00040341351996175945,0.000298662343993783
1761467749226762800,8.6517626953125,-0.0033112133387476206,-0.0004326831840444356,-0.0015755868516862392
1761467749236715800,8.6617158203125,0.0017658369615674019,0.0009771942859515548,-0.0020581516437232494
1761467749246668800,8.671668701171875,0.00031188485445454717,0.0002376004122197628,-0.00009540165774524212
1761467749256622800,8.681622802734376,-0.00046788869076408446,0.00045012065675109625,-0.0005918149836361408
1761467749266576000,8.691575927734375,0.00015640491619706154,-0.002059259219095111,-0.00011494243517518044
1761467749276529000,8.70152880859375,0.00010633748024702072,-0.0006608333787880838,-0.0005751366261392832
1761467749286482000,8.71148193359375,-0.00116918480489403,0.0009009145433083177,-0.000043622683733701706
1761467749296435700,8.721435791015624,-0.00010365404887124896,0.0007608323357999325,-0.0001895639579743147
1761467749306388700,8.731388671875,-0.0006871242076158524,0.00003283901605755091,0.00021885894238948822
1761467749316341800,8.741341796875,0.00030463701114058495,0.0004530857549980283,0.0008284563664346933
1761467749326294800,8.751294677734375,0.0014137186808511615,-0.00002785463584586978,-0.0001857220195233822
1761467749336248800,8.761248779296874,0.00040278269443660975,-0.0012174886651337147,-0.0001471061259508133
1761467749346201900,8.771201904296875,-0.0006962220650166273,-0.00022493538563139737,0.0007809221278876066
1761467749356155000,8.78115478515625,0.0007264385931193829,-0.0010838047601282597,0.0003524194471538067
1761467749366108000,8.79110791015625,0.0005297631723806262,-0.0002776133478619158,0.000886095454916358
1761467749376062000,8.80106201171875,-0.00015147344674915075,-0.000551918928977102,0.0002698400057852268
1761467749386015000,8.811014892578125,-0.0005600830772891641,-0.0004604301357176155,-0.00047158426605165005
1761467749395967700,8.8209677734375,-0.00024609637330286205,0.0003728729789145291,-0.000620188657194376
1761467749405922000,8.830922119140626,0.0008214952540583909,-0.0005843799444846809,-0.00006203423254191875
1761467749415874800,8.840874755859375,0.0004702243604697287,0.0005858130753040314,0.00005834060721099377
1761467749425827800,8.850827880859375,0.0004164869897067547,0.0009016772964969277,0.0011975015513598919
1761467749435780900,8.86078076171875,-0.000011482916306704283,0.00045932631473988295,-0.0002480621915310621
1761467749445734700,8.870734619140626,-0.000997317605651915,-0.0004468912084121257,0.0003122743219137192
1761467749455687700,8.880687744140625,-0.0009131617844104767,0.0010287663899362087,-0.0006722963880747557
1761467749465640700,8.890640625,-0.00004323216853663325,-0.0009333802154287696,-0.00035614287480711937
1761467749475593700,8.90059375,0.0008633078541606665,-0.000046281260438263416,0.0013133927714079618
1761467749485547800,8.9105478515625,-0.0004645425360649824,0.0004593620542436838,-0.00025472394190728664
1761467749495500800,8.920500732421875,0.000619896687567234,0.001200519734993577,-0.0010848313104361296
1761467749505453800,8.930453857421876,-0.0003285240672994405,0.001661857357248664,0.000718455296009779
1761467749515408000,8.940407958984375,-0.00039137466228567064,0.0010354819241911173,0.0010508176637813449
1761467749525361000,8.95036083984375,0.00178075535222888,0.00012779817916452885,-0.0010862161871045828
1761467749535314000,8.96031396484375,-0.0002520355337765068,0.0001768003567121923,-0.0004063111264258623
1761467749545267000,8.970266845703126,-0.0003175736346747726,0.0004687963519245386,0.001305139041505754
1761467749555220700,8.980220703125,-0.0012877632398158312,0.0011865183478221297,-0.00048370612785220146
1761467749565173800,8.990173828125,0.0008491284679621458,-0.0015065983170643449,0.00039590103551745415
1761467749575126800,9.000126708984375,0.0004989227745682001,-0.000022684980649501085,-0.0000014426186680793762
1761467749585080800,9.010080810546874,-0.0015280884690582752,0.0001464132801629603,0.00036826333962380886
1761467749595033900,9.020033935546875,0.000632534152828157,-0.0008751752902753651,-0.0009071244858205318
1761467749604987000,9.02998681640625,-0.00015073968097567558,-0.00027868838515132666,0.0005193445831537247
1761467749614940000,9.03993994140625,0.00036378303775563836,0.00034289341419935226,0.000531328609213233
1761467749624894000,9.04989404296875,0.000954285787884146,-0.0005566152976825833,0.0005222689360380173
1761467749634847000,9.059846923828125,-0.0001290881191380322,0.0011004034895449877,-0.00019891513511538506
1761467749644800000,9.069800048828125,-0.001060787122696638,-0.000103889120509848,0.0015326744178310037
1761467749654752800,9.079752685546875,0.00047665584133937955,-0.00030815356876701117,-0.00039811735041439533
1761467749664707000,9.08970703125,0.0012582115596160293,-0.0000978217285592109,-0.0015834323130548
1761467749674659800,9.099659912109376,0.00005845754640176892,0.0011464070994406939,0.00018623843789100647
1761467749684612900,9.10961279296875,0.0002702072961255908,-0.0003740894026122987,0.00028664711862802505
1761467749694566700,9.119566650390626,0.0010467850370332599,0.000675462419167161,-0.0006875372491776943
1761467749704519700,9.129519775390625,-0.0008361054351553321,0.00001927255652844906,-0.0006638451013714075
1761467749714472700,9.13947265625,-0.0004568713193293661,-0.00016555085312575102,-0.001984506845474243
1761467749724425700,9.14942578125,-0.0007080951472744346,0.00005911488551646471,0.00004751351661980152
1761467749734379800,9.1593798828125,0.0002929870970547199,-0.00014701375039294362,-0.00046434602700173855
1761467749744332800,9.169332763671875,0.0002974810195155442,0.00015465976321138442,-0.0005265641957521439
1761467749754285800,9.179285888671876,0.00022344512399286032,0.00005665546632371843,-0.000320701627060771
1761467749764240000,9.189239990234375,-0.0008968011825345457,0.00015356784570030868,-0.0014975287485867739
1761467749774193000,9.19919287109375,0.0007463691290467978,-0.00019557258929125965,0.0011035805800929666
1761467749784146000,9.20914599609375,0.000004760397132486105,0.00023223680909723043,0.0005638739094138145
1761467749794099000,9.219098876953124,-0.00038725690683349967,0.0011670063249766827,-0.00025424896739423275
1761467749804052700,9.229052734375,-0.00019947340479120612,-0.00016681230044923723,-0.00019673723727464676
1761467749814005800,9.239005859375,0.00020958815002813935,0.00003825110616162419,0.0011998243862763047
1761467749823958800,9.248958740234375,0.0015757882501929998,0.0005918761598877609,-0.000754430191591382
1761467749833911800,9.258911865234374,-0.0006530113168992102,0.0005157098057679832,-0.00043218769133090973
1761467749843865900,9.268865966796875,-0.0009199973428621888,0.000654624542221427,-0.00032497383654117584
1761467749853819000,9.27881884765625,0.0006952098337933421,-0.0015366243897005916,-0.0009569420944899321
1761467749863772000,9.28877197265625,-0.00105563725810498,-0.000057404860854148865,0.0007943013915792108
1761467749873726000,9.298725830078125,-0.0005309944972395897,-0.0004984243423677981,0.0010536933550611138
1761467749883679000,9.308678955078125,0.00013039237819612026,0.0008936824160628021,-0.0005305353552103043
1761467749893632000,9.318632080078125,0.0011043103877454996,-0.0010799863375723362,-0.0005670206155627966
1761467749903584800,9.328584716796875,0.0009352860506623983,-0.00004893320146948099,0.00027903285808861256
1761467749913538800,9.338538818359375,0.0011494042119011283,-0.0005528032779693604,-0.0007207179442048073
1761467749923491800,9.348491943359376,-0.00008656433783471584,0.0008690896211192012,-0.0007022270001471043
1761467749933444900,9.35844482421875,-0.00043650370207615197,0.0004736102418974042,-0.0011344579979777336
1761467749943399000,9.36839892578125,-0.000659637211356312,0.00020886724814772606,-0.00018476881086826324
1761467749953351700,9.3783515625,0.0004804620402865112,-0.001285166130401194,0.000028550392016768456
1761467749963304700,9.3883046875,0.000775314518250525,-0.0011792343575507402,-0.0009139799512922764
1761467749973258000,9.398258056640625,0.0007673250511288643,0.0004522180533967912,0.00043118279427289963
1761467749983212000,9.4082119140625,-0.0004348383517935872,0.0011672815307974815,-0.001462033949792385
1761467749993165000,9.4181650390625,-0.0005717248423025012,-0.0008460682001896203,-0.0002580189611762762
1761467750003118000,9.4281181640625,0.0004595257341861725,0.001148913986980915,-0.001448427326977253
1761467750013071000,9.438071044921875,-0.0011130708735436201,0.0015579755418002605,0.00024773995392024517
1761467750023025200,9.448025146484374,-0.0012399875558912754,-0.0015565591165795922,0.00003309757448732853
1761467750032978200,9.457978271484375,-0.000005079782567918301,0.0002629125374369323,0.0009114079875871539
1761467750042931200,9.46793115234375,0.000029031129088252783,0.001269257627427578,-0.0007942661177366972
1761467750052885000,9.477885009765625,0.000446614867541939,0.0000940046738833189,0.0014481155667454004
1761467750062838000,9.487838134765624,-0.0003541058686096221,-0.0003360880655236542,-0.00036255293525755405
1761467750072791000,9.497791015625,-0.0005887303850613534,0.00011851353337988257,0.00041003013029694557
1761467750082744000,9.507744140625,0.00021192419808357954,-0.00039739516796544194,0.0014445328852161765
1761467750092698000,9.517697998046875,0.0007070058491080999,0.0003416320541873574,-0.0002716081216931343
1761467750102651100,9.527651123046875,-0.0009695934713818133,0.00027939589926972985,0.00004908558912575245
1761467750112604200,9.537604248046875,-0.0007192562916316092,0.00018565263599157333,0.00003204145468771458
