time,seconds_elapsed,z,y,x
1761507037966571800,0.07357177734375,1.0027940635085106,-0.05399462503790855,0.32783224363587793
1761507037976544000,0.0835439453125,0.9626379942089318,-0.08962693330273032,0.36698691734056915
1761507037986514700,0.0935146484375,0.86187518825531,-0.0017144027024507521,0.4867315236724913
1761507037996487000,0.10348681640625,0.6636643999844789,0.1054948029115796,0.550682163926959
1761507038006457900,0.113457763671875,0.5584440301001071,0.0483370376676321,0.3589522255754098
1761507038016429800,0.123429931640625,0.3430056281745434,0.028774405194073913,0.2436389162218198
1761507038026401800,0.13340185546875,0.01816927841901779,0.23395780895650387,0.33561942691337315
1761507038036373000,0.143373046875,-0.36977263906896113,0.18358152054622767,0.2682932458112016
1761507038046344700,0.1533447265625,-0.45254093864858147,0.0757138510234654,0.21885197322871536
1761507038056317000,0.16331689453125,-0.25412965936958787,0.11005071265026926,0.2351193635491654
1761507038066287900,0.173287841796875,-0.23342180238366125,0.06754661891981958,0.1824785642730072
1761507038076259800,0.183259765625,-0.29720833811759945,-0.026123013902455566,0.12486465275939554
1761507038086230800,0.193230712890625,-0.3754857560187578,-0.03503594980686903,0.08504724082965404
1761507038096202800,0.20320263671875,-0.45255379813015456,-0.047813744445890184,0.10542750982902943
1761507038106175000,0.213175048828125,-0.5337842206180096,-0.02395969838872552,0.12836935467841104
1761507038116146000,0.22314599609375,-0.5765092636227608,0.001725216357409954,0.17797630268400533
1761507038126118000,0.233117919921875,-0.5470891078710556,0.022806582830846307,0.1780041222726926
1761507038136089900,0.24308984375,-0.46619244738221166,-0.012704583272337913,0.16561222167871892
1761507038146061000,0.25306103515625,-0.37206513392031193,-0.03796542738750577,0.1379900552596897
1761507038156032800,0.26303271484375,-0.255944015315175,-0.06336348801627754,0.11596932557690888
1761507038166005000,0.2730048828125,-0.16713818913698195,-0.11210428417921066,0.0921620960698463
1761507038175975700,0.2829755859375,-0.1192348667114973,-0.1380022571541369,0.0961654134270735
1761507038185948000,0.292947998046875,-0.08803484180569648,-0.12904285175949334,0.13626639153854922
1761507038195918800,0.3029189453125,-0.05351414804458618,-0.11396569413691758,0.17362292978009208
1761507038205890800,0.312890869140625,-0.032253333351016045,-0.09798501180335879,0.18248055530069396
1761507038215862800,0.32286279296875,-0.043781274059414864,-0.07370061150491238,0.17208773783575743
1761507038225834000,0.332833984375,-0.095005265340209,-0.0429626511529088,0.15444116811659186
1761507038235805700,0.3428056640625,-0.14563947403430938,-0.02389233224093914,0.11307000567251815
1761507038245778000,0.35277783203125,-0.17630290784537792,-0.015963877329230308,0.09591068974733352
1761507038255748900,0.362748779296875,-0.14908172344267367,-0.02145107656866312,0.09167400202564895
1761507038265720800,0.372720947265625,-0.09554594808816909,-0.02378141921237111,0.08487314463807269
1761507038275691800,0.38269189453125,-0.02450608022511005,-0.024376608626544474,0.07482462883247062
1761507038285663700,0.392663818359375,0.0018038345515727996,-0.03192643948420882,0.06409068804597481
1761507038295636000,0.402635986328125,0.014182254609465598,-0.03069514412358403,0.04414484667479992
1761507038305607000,0.41260693359375,0.021131050834059716,-0.038881373188644645,0.01922560080522671
1761507038315579000,0.422578857421875,0.024140754044055936,-0.04722264668494463,0.0017742065982893108
1761507038325550800,0.43255078125,0.043397243177890774,-0.06645064037665724,0.014100732072163372
1761507038335522000,0.44252197265625,0.0676730217784643,-0.07816124417558312,0.06046455170437693
1761507038345493800,0.45249365234375,0.10806640696525573,-0.07579524569660424,0.11532742921048775
1761507038355466000,0.462466064453125,0.17364333324730397,-0.07134425763711333,0.16036968138273805
1761507038365436700,0.472436767578125,0.18439561340808866,-0.0767556151613593,0.20170021955547854
1761507038375409000,0.482408935546875,0.1710094776123762,-0.06240297242105007,0.20508743257466702
1761507038385379800,0.4923798828125,0.14265081361234186,-0.0517658430725336,0.20810606800979
1761507038395351800,0.502351806640625,0.1182370878458023,-0.041131928594410415,0.21122796288998796
1761507038405323800,0.51232373046875,0.09675006318092345,-0.03572393207103014,0.1897272750259377
1761507038415295000,0.522294921875,0.07001344742476939,-0.044937750618159765,0.17007765838867053
1761507038425266700,0.5322666015625,0.06821136643886566,-0.03717296183556318,0.18750757141616195
1761507038435239000,0.542239013671875,0.09017594548761844,-0.04939370711371302,0.22150893574459476
1761507038445209900,0.5522099609375,0.15538286941349505,-0.07931640556007623,0.23983333166008813
1761507038455181800,0.562181884765625,0.20815175204873085,-0.10194003303945064,0.24557631402518598
1761507038465152800,0.57215283203125,0.21517536707520485,-0.09898001419007778,0.261538711783383
1761507038475124700,0.582124755859375,0.19305881233513353,-0.12047624507471918,0.26052566228331997
1761507038485097000,0.592096923828125,0.10931845285296439,-0.11118483124673366,0.24973111388338728
1761507038495068000,0.60206787109375,0.010672785183787345,-0.10197057430818676,0.23769454779941587
1761507038505040000,0.612039794921875,-0.02643032628595829,-0.11783055287152529,0.24213735255245117
1761507038515011800,0.62201171875,-0.004047814086079597,-0.12407280826196074,0.26584559693075716
1761507038524983000,0.631983154296875,0.040645314121246334,-0.1336122055016458,0.2756664414603263
1761507038534954800,0.641954833984375,0.04650397702157497,-0.12795607943609355,0.26406335315648466
1761507038544927000,0.651927001953125,0.033866613766551014,-0.10820216217413545,0.25103757510576397
1761507038554897700,0.661897705078125,-0.03333528336882591,-0.08505392629876732,0.25290934206070376
1761507038564870000,0.671869873046875,-0.08692658830285072,-0.0642434857212007,0.2647278084145859
1761507038574840800,0.6818408203125,-0.09642682257592677,-0.08418810324966906,0.28285633469810706
1761507038584812800,0.691812744140625,-0.038218379235267635,-0.1270497782461345,0.325930282472074
1761507038594784800,0.70178466796875,0.06207447111904621,-0.15580182547792792,0.36068467539120463
1761507038604756000,0.711755859375,0.15627251172959802,-0.16065043455287814,0.36487989859133957
1761507038614727700,0.721727783203125,0.1700730735450983,-0.1351109196268022,0.36984095506481823
1761507038624700000,0.731699951171875,0.09516951599121093,-0.09148366708531976,0.39359022557325657
1761507038634670800,0.7416708984375,-0.025250761112570762,-0.03818389244377613,0.38048509867601094
1761507038644642800,0.751642822265625,-0.11630056682527065,0.004115034103393554,0.3597012538444251
1761507038654615000,0.761614990234375,-0.09540683187842368,0.010315350048243998,0.34789639589078725
1761507038664585700,0.771585693359375,-0.052110126465559,-0.015687544605880975,0.33754020237550136
1761507038674558000,0.781557861328125,0.02563946816921234,-0.054289516331255436,0.3148351802229881
1761507038684529000,0.79152880859375,0.10634615904390811,-0.11821765249297023,0.273724166552443
1761507038694500900,0.8015009765625,0.0897638575553894,-0.13250234456360338,0.21570492564095184
1761507038704472800,0.811472900390625,0.06214870539903641,-0.1182195521891117,0.1638039484140463
1761507038714444000,0.821444091796875,0.04155190757215023,-0.10218480158075689,0.1316644141684286
1761507038724415700,0.831415771484375,0.0352180283755064,-0.06760229462981224,0.1068834442583844
1761507038734388000,0.841387939453125,0.04730301844477653,-0.03328384544253349,0.07870766254458576
1761507038744358700,0.851358642578125,0.08641805425882339,0.004787672667950392,0.04507863865988329
1761507038754331000,0.861330810546875,0.11785247244238853,0.04290843674764037,0.008350735444389284
1761507038764301800,0.8713017578125,0.10443477246463298,0.08414090310707688,-0.028728702888824044
1761507038774273800,0.881273681640625,0.10209083968698977,0.12402400068417191,-0.03293844780465588
1761507038784246000,0.89124609375,0.1076192477196455,0.1664129436023533,-0.009765881205629557
1761507038794217000,0.901217041015625,0.08552724289894104,0.20980843321457504,0.017203520393092184
1761507038804189000,0.91118896484375,0.03854863410294056,0.2699702025800943,0.02911045048171654
1761507038814161000,0.921160888671875,-0.016789806759357453,0.289703515445441,-0.013258783088997006
1761507038824131800,0.9311318359375,-0.06292261238098144,0.29285788782313465,-0.05121873058378696
1761507038834103800,0.941103759765625,-0.09588613982796669,0.2878356757469475,-0.07022867934433744
1761507038844076000,0.951075927734375,-0.09416764547228812,0.28220819125398994,-0.059953935301117596
1761507038854046700,0.961046630859375,-0.05980594166517257,0.25603403168618677,-0.006638798693660646
1761507038864019000,0.97101904296875,0.01722936722040176,0.2074202229037881,0.07230544908577576
1761507038873990000,0.980989990234375,0.104904728063941,0.11351765810847282,0.13171026260415092
1761507038883961900,0.9909619140625,0.1704606115579605,0.021677871061861514,0.15580058336891234
1761507038893933800,1.000933837890625,0.2474368837326765,-0.05509630266949534,0.17759592506429178
1761507038903905000,1.010905029296875,0.3023071225613356,-0.1200469137467444,0.22568096073223276
1761507038913877200,1.020877197265625,0.30623394061625003,-0.15937164678871632,0.22955195694668218
1761507038923849500,1.030849365234375,0.25785189476311204,-0.1802196428976953,0.20846624309169126
1761507038933820200,1.040820068359375,0.19168518589437006,-0.19780045390427112,0.14509857209064064
1761507038943792400,1.05079248046875,0.10245908847749233,-0.22401085382923483,0.050969103204272684
1761507038953763300,1.060763427734375,0.05087386266887187,-0.2620829564616084,-0.030550566287431864
1761507038963735300,1.0707353515625,0.03802957866489887,-0.2565970723964274,-0.09159578569028526
1761507038973707300,1.080707275390625,0.041249709755182266,-0.226427559582144,-0.10114203279586509
1761507038983678500,1.090678466796875,0.007246902388334274,-0.1803242723159492,-0.11403198257246985
1761507038993650200,1.100650146484375,-0.07321779642403126,-0.123009270683676,-0.14985709172934292
1761507039003622400,1.110622314453125,-0.1812923866957426,-0.08395122575387358,-0.17245805071918294
1761507039013593000,1.120593017578125,-0.31030981175303457,-0.06424655446112155,-0.18635346947759387
1761507039023565300,1.1305654296875,-0.38764848749935626,-0.04996478499993682,-0.1558070861749351
1761507039033537000,1.140537109375,-0.3567880698114633,-0.05399374825507402,-0.08941243203552439
1761507039043508200,1.15050830078125,-0.2736789939701557,-0.07109305935502051,-0.016632205044850707
1761507039053480200,1.160480224609375,-0.1574327876806259,-0.10717267299592495,0.030253008112963286
1761507039063451400,1.170451416015625,-0.0227349788993597,-0.18003800272047518,0.02255640746206045
1761507039073423000,1.180423095703125,0.04046878851056099,-0.23567294231131672,-0.01779823488323018
1761507039083395300,1.190395263671875,0.060113984701037404,-0.29236849687099453,-0.06709120330251753
1761507039093366300,1.2003662109375,0.042619829064607616,-0.3276848710544407,-0.10172383300550282
1761507039103338200,1.210338134765625,0.031094226443767546,-0.3417345853254199,-0.10274466395322233
1761507039113310500,1.220310546875,0.06369944197237491,-0.3724531103245914,-0.08461118749994784
1761507039123281200,1.23028125,0.1701858862698078,-0.4205215601839125,-0.0635639972907491
1761507039133253400,1.24025341796875,0.27297172248363494,-0.47265521365553137,-0.048462088819406925
1761507039143224300,1.250224365234375,0.3245031722784042,-0.49701004884168504,-0.055541306490637356
1761507039153196300,1.2601962890625,0.31185528762936593,-0.5150035323023796,-0.05490638785427436
1761507039163168300,1.270168212890625,0.22988427590727806,-0.5034766145072878,-0.01708723706966266
1761507039173139500,1.280139404296875,0.1801075608253479,-0.47585620165392756,0.037197767483256754
1761507039183111200,1.290111083984375,0.19051029689610002,-0.45758609320893884,0.13065383062008767
1761507039193083400,1.30008349609375,0.2739467049956322,-0.47167394753322,0.16725173251405356
1761507039203054000,1.31005419921875,0.33070144239664073,-0.4948576931133866,0.16340983452992514
1761507039213026300,1.3200263671875,0.31103228080868717,-0.5103465002767741,0.1401693720601499
1761507039222997200,1.329997314453125,0.2697831555753946,-0.5105826471202075,0.15732234957609326
1761507039232969200,1.33996923828125,0.21669220137894152,-0.5032907365463674,0.21077333272397517
1761507039242941200,1.349941162109375,0.15440379524827003,-0.46369916926175353,0.2400345350543037
1761507039252912400,1.359912353515625,0.09352291782796382,-0.4397583217039704,0.22339812875837087
1761507039262884000,1.369884033203125,0.032708675903081894,-0.44923254475295543,0.1642545965246856
1761507039272856300,1.379856201171875,-0.037647301349043844,-0.4597339188925922,0.07897701753787696
1761507039282827300,1.3898271484375,-0.0692728581905365,-0.45264805228486654,-0.003824344061128795
1761507039292799200,1.39979931640625,-0.09476035066843032,-0.4538279097191989,-0.025199542381986975
1761507039302771500,1.409771484375,-0.14734686247408388,-0.44796354773044583,-0.02435235096812248
1761507039312742100,1.4197421875,-0.21345979532897472,-0.4290481271192431,0.026686346873641013
1761507039322714400,1.42971435546875,-0.2897089222729206,-0.44060500166118144,0.08863328262288123
1761507039332685300,1.439685302734375,-0.29537820008099075,-0.43928076732009647,0.14480890496168286
1761507039342657300,1.4496572265625,-0.2292202590405941,-0.46924262873306866,0.14704020767770706
1761507039352629200,1.459629150390625,-0.10868483112454413,-0.5039540227606892,0.13685820168554783
1761507039362600400,1.469600341796875,0.014766776499152182,-0.5591498402819037,0.1349830371971242
1761507039372572200,1.479572265625,0.12065291681587695,-0.5963407761655748,0.11425112348217517
1761507039382544400,1.48954443359375,0.2314209839552641,-0.6351274568080901,0.13781710984557866
1761507039392515000,1.49951513671875,0.32029870632588864,-0.6614134061872958,0.17275749032348395
1761507039402487300,1.5094873046875,0.3920025910556316,-0.6892040610410273,0.2098413125708699
1761507039412459000,1.519458984375,0.4493856894880533,-0.7331010704346,0.25022309865141285
1761507039422430200,1.52943017578125,0.45370589077472684,-0.7604371133886277,0.27232160627814006
1761507039432402200,1.539402099609375,0.4405798672199249,-0.7758636689707636,0.2707982691683806
1761507039442373400,1.549373291015625,0.37018940317630766,-0.7753691634520888,0.2543667195284739
1761507039452345000,1.559344970703125,0.2897422400206327,-0.7331415485754609,0.20067537001976743
1761507039462317300,1.5693173828125,0.2142401320517063,-0.6958832465440035,0.16311916275396943
1761507039472288300,1.579288330078125,0.1545622006803751,-0.6411341498769819,0.1581450641358271
1761507039482260200,1.58926025390625,0.1647352196484804,-0.5821433239869773,0.15790407672049478
1761507039492232400,1.599232421875,0.20054303061068057,-0.5355656972073018,0.14566902892235667
1761507039502203100,1.609203125,0.20301497368216515,-0.5220024512790143,0.12977564127976074
1761507039512175400,1.61917529296875,0.19256547586023806,-0.569898174919933,0.1538017559682019
1761507039522146300,1.629146240234375,0.21659458622336386,-0.5990332301199436,0.14773746922686695
1761507039532118300,1.6391181640625,0.22060499090850352,-0.5701682240329683,0.09312544294297695
1761507039542090200,1.64909033203125,0.18162614869475363,-0.5862893377505243,0.05186247184742242
1761507039552061400,1.6590615234375,0.09646130936741829,-0.603517682057619,0.0036425942860543728
1761507039562033200,1.669033203125,0.031171383333206175,-0.5823641271308064,-0.10836380074294283
1761507039572005400,1.67900537109375,-0.06746902363896369,-0.5187314667843282,-0.20791644545551388
1761507039581976000,1.68897607421875,-0.23233809880018233,-0.4139516802743077,-0.30247857013810425
1761507039591948300,1.6989482421875,-0.4099094191461801,-0.2712852307014167,-0.4083483803745359
1761507039601920000,1.708919921875,-0.5203296957612037,-0.12398892937079072,-0.47261773118935524
1761507039611891200,1.71889111328125,-0.6801672064960003,-0.04898980248793959,-0.5507989221744239
1761507039621863200,1.72886328125,-0.867872967365384,0.05720321182087063,-0.6231236422162503
1761507039631834400,1.73883447265625,-0.8965092792630195,0.13516703372821212,-0.5878208946993574
1761507039641806000,1.74880615234375,-0.6799883427977561,0.15604863984584808,-0.46736251407489177
1761507039651778300,1.7587783203125,-0.32016777342259883,0.10580986021012068,-0.3190497657107189
1761507039661749200,1.768749267578125,0.016935937231779098,0.03643631812408566,-0.17826794257434084
1761507039671721200,1.77872119140625,0.27167700649797916,-0.035475364137440915,-0.10805478959269821
1761507039681693400,1.788693359375,0.49603521246016025,-0.07292348965257406,-0.06713749012965708
1761507039691664100,1.7986640625,0.6035276189297437,-0.05888137416616082,0.05088199117640033
1761507039701636400,1.80863623046875,0.41195173862874507,-0.06343553033918142,0.1462561628942378
1761507039711607300,1.818607177734375,0.14835574725568293,0.04188333148360252,0.23860364373465998
1761507039721579300,1.828579345703125,-0.0409603714197874,0.04714812014400959,0.3861006735354662
1761507039731551200,1.83855126953125,-0.0623667320638895,0.043376200389862056,0.47630186306219546
1761507039741522400,1.8485224609375,-0.018240005567669866,-0.018998861110955476,0.4922078361917287
1761507039751494100,1.858494140625,0.095044428306818,-0.11658858998641371,0.4442665198434144
1761507039761466400,1.86846630859375,0.22693828558325765,-0.20635960793495178,0.3595831438900903
1761507039771437000,1.87843701171875,0.3026619273483753,-0.25825419195368887,0.2997566160946153
1761507039781409300,1.8884091796875,0.25096096620559694,-0.21855215003192424,0.26282476953854783
1761507039791380200,1.898380126953125,0.12285364173054694,-0.12896511034816502,0.24803852115394545
1761507039801352200,1.908352294921875,-0.12294599618911742,-0.04049743008315563,0.2416464454966597
1761507039811324200,1.91832421875,-0.5854565401881933,0.1041458725206554,0.190540436306037
1761507039821295400,1.92829541015625,-1.1827537402957677,0.27478973169103266,0.10454575855843722
1761507039831267000,1.93826708984375,-1.7167554030567407,0.4573354794487357,-0.005719820685219019
1761507039841239300,1.9482392578125,-1.886460812333226,0.6188993755847215,0.0006730404233559966
1761507039851210200,1.958210205078125,-1.6320149266213178,0.7076490876615047,0.1368835005235858
1761507039861182200,1.96818212890625,-1.206149813452363,0.6789465786598622,0.2628364965089597
1761507039871153200,1.978153076171875,-0.7109674184292555,0.604411123766005,0.3682872958820313
1761507039881125000,1.988125,-0.18026538173556328,0.5035021873399615,0.5324635664734989
1761507039891097300,1.998097412109375,0.26108956151008605,0.384634254244715,0.5417262656636536
1761507039901068300,2.008068359375,0.4987561618566513,0.24004034374058245,0.4133856438893825
1761507039911039500,2.01803955078125,0.58398939024508,0.16881518243849278,0.24501820521838963
1761507039921011500,2.028011474609375,0.5724094270884991,0.18950462698489426,0.15136926812427118
1761507039930982700,2.037982666015625,0.49025779810249803,0.18686244191303847,0.19611613581283016
1761507039940954400,2.047954345703125,0.42516719403266906,0.26600027603581544,0.23790824534902347
1761507039950925600,2.057925537109375,0.43797582220137116,0.3108729985937476,0.2447172677767463
1761507039960897500,2.0678974609375,0.5338491025477647,0.296099500092864,0.20312183159012345
1761507039970869500,2.077869384765625,0.6567465834200382,0.26461086750403046,0.1105499308766797
1761507039980840400,2.08784033203125,0.6898024653255939,0.2665242999099195,-0.05825133263431489
1761507039990812400,2.0978125,0.6237959154546261,0.3053190177284181,-0.2755962988335639
1761507040000784400,2.107784423828125,0.4662321948707103,0.35952421677708624,-0.4471629719372838
1761507040010755600,2.117755615234375,0.28984511587321754,0.43145752634853124,-0.5131435836493968
1761507040020727300,2.127727294921875,0.1338005676805973,0.49309126796275377,-0.4718323529653251
1761507040030699500,2.137699462890625,-0.01732055263519287,0.5178780648253858,-0.3937975481810048
1761507040040670500,2.14767041015625,-0.16160568945109843,0.5093415610179305,-0.3401460009597242
1761507040050642400,2.157642333984375,-0.16642565695345402,0.5051131296679378,-0.25044333553966136
1761507040060613400,2.16761328125,-0.003933832317590713,0.45880014517381784,-0.10603555872477591
1761507040070585600,2.177585693359375,0.18565993425548075,0.404060985378921,0.027583368778601288
1761507040080557600,2.1875576171875,0.3281815685302019,0.3478048451498151,0.10022413249965756
1761507040090528500,2.197528564453125,0.4071528139144182,0.2754708458229899,0.12722641345467417
1761507040100500500,2.20750048828125,0.41675767760574817,0.21907062094807622,0.10540244845300913
1761507040110472400,2.217472412109375,0.3554214576333761,0.1674861257918179,0.09264153188355266
1761507040120443600,2.227443603515625,0.28858956285417076,0.15324351929724214,0.11004578074682503
1761507040130415400,2.237415283203125,0.255414438483119,0.13038096849545835,0.17366707944907248
1761507040140386600,2.247386474609375,0.267359727820754,0.09209376180768013,0.24621084906905888
1761507040150358500,2.257358642578125,0.27611002050936223,0.03152706490308046,0.28043877042867243
1761507040160330500,2.26733056640625,0.24351766446232795,-0.03679199969395995,0.2746918608071282
1761507040170301400,2.277301513671875,0.1902496001332998,-0.08128755950257181,0.21666597095914183
1761507040180273400,2.2872734375,0.10298048200309276,-0.1092374965712428,0.13579060898665338
1761507040190245400,2.297245361328125,-0.0018844985723495483,-0.11976707389205693,0.06680288788042962
1761507040200216600,2.307216552734375,-0.05140402402281761,-0.13095204638168215,0.024191388252750037
1761507040210188300,2.317188232421875,-0.004428337836265564,-0.1720173394806683,0.07080704548787325
1761507040220160500,2.327160400390625,0.15806290227770806,-0.2160080185070634,0.10272058895789087
1761507040230131500,2.33713134765625,0.29576982974708077,-0.24947876482382414,0.15508319234717635
1761507040240103400,2.347103515625,0.307925546965003,-0.2772475001066923,0.16602953377533702
1761507040250074400,2.357074462890625,0.19973054518401623,-0.2512263391435146,0.12094367992337793
1761507040260046600,2.367046630859375,0.06315583661496639,-0.2238656001396477,0.10731471181511879
1761507040270018600,2.3770185546875,-0.07877718411684036,-0.1929606126576662,0.16971677092071621
1761507040279989500,2.386989501953125,-0.28911797064244743,-0.17407397974953054,0.21522530716415494
1761507040289961500,2.39696142578125,-0.4194184212476015,-0.12284925781637429,0.2419572467451915
1761507040299933400,2.406933349609375,-0.3832242413163185,-0.13839096421077846,0.31919980517327784
1761507040309904600,2.416904541015625,-0.21624679569900035,-0.1673619148902595,0.37810331810601056
1761507040319876400,2.42687646484375,0.02450023500621319,-0.22701734216883776,0.40654845481310037
1761507040329847600,2.43684765625,0.23482290135324,-0.3262980928711593,0.3965159768268466
1761507040339819500,2.446819580078125,0.3536702300518751,-0.40868338448256253,0.3867787189275026
1761507040349791500,2.45679150390625,0.39944004758000373,-0.457750782251358,0.3663393766846508
1761507040359762400,2.466762451171875,0.3383674469798803,-0.4806077800951898,0.36400063153877854
1761507040369734400,2.476734375,0.22954876034259794,-0.49089507309272884,0.3913034663429484
1761507040379706400,2.486706298828125,0.16093758093118668,-0.47530806625187394,0.40898196557033806
1761507040389677600,2.496677490234375,0.1275081895381212,-0.4785718903534114,0.40593554707914586
1761507040399649300,2.506649169921875,0.12175883223116397,-0.48596696904078124,0.4101986844163388
1761507040409620500,2.516620361328125,0.15406184994280336,-0.49148646311461924,0.3688955639734864
1761507040419592400,2.526592529296875,0.1720680467545986,-0.5185246921658515,0.34883082719668745
1761507040429564400,2.536564453125,0.10140110385715961,-0.5456821636825799,0.342939321472682
1761507040439535400,2.546535400390625,0.03783025670051574,-0.6618982670947909,0.4378828466882929
1761507040449507600,2.556507568359375,0.24947920321524142,-0.7523324251271784,0.549237664207071
1761507040459479600,2.5664794921875,0.5651777222692966,-0.6219445884995162,0.5065647167157381
1761507040469450500,2.576450439453125,0.5819850646853446,-0.4318614309743046,0.4118163122134283
1761507040479422500,2.58642236328125,0.3254910142719745,-0.289892754407227,0.2279998504001647
1761507040489394400,2.59639453125,-0.11234043102264403,-0.12331556015387177,0.01220985855795443
1761507040499365600,2.60636572265625,-0.6145546243786811,0.10585706035271286,-0.10307334791831671
1761507040509337300,2.61633740234375,-1.1138029536664484,0.26556203074902296,-0.10621588372774421
1761507040519308500,2.62630859375,-1.4112006768763063,0.41642070073634385,-0.11059314896389841
1761507040529280500,2.636280517578125,-1.3116682895004748,0.4980326698876917,-0.018596673518233
1761507040539252500,2.64625244140625,-0.9430956738710403,0.47711730763092636,0.1530946854110807
1761507040549223400,2.656223388671875,-0.5284247394114733,0.35958573770597574,0.2891682760575786
1761507040559195400,2.6661953125,-0.19585224244594573,0.2209045583769679,0.29785914844283834
1761507040569167400,2.67616748046875,0.09177110572457313,0.05617299199029803,0.3045437773059122
1761507040579138600,2.686138671875,0.23360475773513315,-0.06589519845098257,0.30548167921053243
1761507040589110300,2.6961103515625,0.2452928574413061,-0.10588760162144899,0.2815782958526164
1761507040599081500,2.70608154296875,0.14352642740309238,-0.12427826770618557,0.258703049966041
1761507040609053400,2.716053466796875,-0.005307458758354187,-0.10736308100149035,0.21977438530325888
1761507040619025400,2.726025390625,-0.1522872414857149,-0.08892404573038219,0.10509641471114009
1761507040628996400,2.735996337890625,-0.23423194972276687,-0.09151830000728368,-0.04486808291543275
1761507040638968600,2.745968505859375,-0.28855916771590706,-0.12407076243534683,-0.21643263712730257
1761507040648940500,2.7559404296875,-0.33930969626605506,-0.1471566005989909,-0.39640842479914423
1761507040658911500,2.765911376953125,-0.36993747424185275,-0.1603397611685097,-0.5368550428980962
1761507040668883500,2.775883544921875,-0.3450906177550554,-0.13887129507362841,-0.6122975661668926
1761507040678854400,2.7858544921875,-0.2836392469704151,-0.0878472102791071,-0.6129457278773188
1761507040688826600,2.79582666015625,-0.23978724576234817,-0.02109846373870969,-0.5655509029632434
1761507040698798300,2.80579833984375,-0.21989421229064463,0.07207432547733188,-0.4705038077753037
1761507040708769500,2.81576953125,-0.19919220052361486,0.16724018820673225,-0.37903033329043534
1761507040718741500,2.825741455078125,-0.2267185053527355,0.27221184402704235,-0.31734818595722314
1761507040728713500,2.83571337890625,-0.29591245308816433,0.38078883086293935,-0.2617244984127581
1761507040738684400,2.845684326171875,-0.3690320498347282,0.5064847102820873,-0.23856544888243078
1761507040748656400,2.855656494140625,-0.41665363270938394,0.6110711661770939,-0.20926453559622168
1761507040758627300,2.86562744140625,-0.4290601098179817,0.695723672068119,-0.1699144854499027
1761507040768599600,2.875599609375,-0.388346406635642,0.7564834073267876,-0.15324556512385606
1761507040778571300,2.8855712890625,-0.26749767498672006,0.7707615235261619,-0.1585163816662505
1761507040788542500,2.89554248046875,-0.16529636066257952,0.7596557537525892,-0.21077965286690742
1761507040798514400,2.905514404296875,-0.114843353754282,0.7556788129456341,-0.2870809849221259
1761507040808486400,2.915486328125,-0.031958734318614006,0.7309967916317284,-0.3437164798576385
1761507040818457300,2.925457275390625,0.0951098947584629,0.6779343328773975,-0.35467242936436083
1761507040828429600,2.9354296875,0.20109189666509628,0.6425083608396351,-0.3595642930591479
1761507040838400300,2.945400146484375,0.2569295192211866,0.6472516098439693,-0.39162075213119385
1761507040848372500,2.95537255859375,0.282844881722331,0.671375997275114,-0.41250579231493173
1761507040858344400,2.965344482421875,0.2886491840869188,0.7031513378508388,-0.43127672642152753
1761507040868315400,2.9753154296875,0.2253022088140249,0.7268257895573973,-0.4449795634835958
1761507040878287600,2.98528759765625,0.14658581497371195,0.7432374106541275,-0.47025016180779783
1761507040888259300,2.99525927734375,0.10288929658830165,0.7038248531982302,-0.44806423162594433
1761507040898230500,3.00523046875,0.13787526977360248,0.617193010058254,-0.37804143185093997
1761507040908203300,3.015203369140625,0.25023499001860616,0.5206431456245482,-0.30896628818958993
1761507040918175500,3.025175537109375,0.32839316545426844,0.4346715199589729,-0.2639686058114283
1761507040928146400,3.035146484375,0.2597667884737253,0.3647942661345005,-0.27279663991136477
1761507040938118400,3.045118408203125,0.11779460477530955,0.31254414667636155,-0.3350858314933255
1761507040948089300,3.05508935546875,-0.04021861314177513,0.2595012694053352,-0.379526848103106
1761507040958061600,3.0650615234375,-0.19627485177218912,0.21785817641839383,-0.3936043271638453
1761507040968033300,3.075033203125,-0.3176069830238819,0.19853022948354482,-0.3688145346265286
1761507040978004500,3.08500439453125,-0.2872375637233257,0.1686689058355987,-0.2965875758707523
1761507040987976200,3.09497607421875,-0.08638824364244937,0.08499781219735741,-0.20652024185676127
1761507040997948400,3.104948486328125,0.20430676705837247,-0.044090340008586644,-0.149844981166441
1761507041007919400,3.11491943359375,0.44595922217071055,-0.18475304854363203,-0.16786394612826405
1761507041017891300,3.124891357421875,0.6209323427170514,-0.29485096133649347,-0.24781346196010706
1761507041027862300,3.1348623046875,0.7673954080939293,-0.4080405565343797,-0.29030539032872765
1761507041037834500,3.14483447265625,0.8357248479545116,-0.48823739819079637,-0.31624110149815676
1761507041047806200,3.15480615234375,0.8249912724941968,-0.5294328935407102,-0.3225722772810608
1761507041057777400,3.16477734375,0.7836497928023338,-0.5729175227411091,-0.3035278599953279
1761507041067749400,3.174749267578125,0.7086456974834203,-0.5886551900990307,-0.29104459132347255
1761507041077721300,3.184721435546875,0.6377127971261739,-0.606995879562199,-0.2625015471998602
1761507041087692300,3.1946923828125,0.5310498272180557,-0.6072146368794142,-0.25023738290509207
1761507041097664300,3.204664306640625,0.43835985308289527,-0.6009051614716648,-0.2558018851644359
1761507041107635200,3.21463525390625,0.39550504621863364,-0.6009188977360725,-0.26292022926965725
1761507041117607400,3.224607421875,0.329886034360528,-0.5949569205917418,-0.25343800557730717
1761507041127579400,3.234579345703125,0.2464823594868183,-0.5850256014250218,-0.23115407664738594
1761507041137550300,3.24455029296875,0.18501228400170802,-0.5855998941816389,-0.1891699882030487
1761507041147522600,3.2545224609375,0.1713537610054016,-0.6019495559580623,-0.10428535405658185
1761507041157494300,3.264494384765625,0.1400444305062294,-0.6019518940456211,-0.014766064113099128
1761507041167465500,3.274465576171875,0.06333236222565174,-0.5815826213642954,0.0570382670501247
1761507041177437200,3.284437255859375,-0.0065998366564512245,-0.5499330991253256,0.10668857927341013
1761507041187408400,3.294408447265625,-0.08694178587198256,-0.5498876525484026,0.13761159560242667
1761507041197380400,3.30438037109375,-0.11897066281735896,-0.5760758406415581,0.14811735365623607
1761507041207352300,3.314352294921875,-0.15957506040632724,-0.6227123580016195,0.1653271576596424
1761507041217323300,3.3243232421875,-0.14912205545306204,-0.6332862128555774,0.18478643935658037
1761507041227295500,3.33429541015625,-0.0793681357473135,-0.6366331851959228,0.21431418366860597
1761507041237267200,3.34426708984375,0.032979894059896465,-0.6109428636223078,0.21602173650516196
1761507041247238400,3.35423828125,0.13731412875950336,-0.5562845139786601,0.18477168017886578
1761507041257210400,3.36421044921875,0.19703122309744356,-0.508670091497153,0.14457361663477494
1761507041267181300,3.374181396484375,0.18604747226834295,-0.4690428683772683,0.13087563841091468
1761507041277153300,3.3841533203125,0.16768588614761828,-0.43064767127037046,0.11192603240231982
1761507041287125200,3.394125244140625,0.1352653795361519,-0.4257496700957417,0.057924000376090405
1761507041297096200,3.40409619140625,0.1397819801777601,-0.46091056145653125,-0.00703783534807153
1761507041307068400,3.414068359375,0.15452069962620735,-0.5009975110426544,-0.08113168395427055
1761507041317040400,3.424040283203125,0.23144787196218966,-0.5468379095889627,-0.13124206057051196
1761507041327011300,3.43401123046875,0.3581786473870277,-0.6367942209765315,-0.12001229909108951
1761507041336983600,3.443983642578125,0.528419478714466,-0.7909029788009821,-0.025378095552977174
1761507041346954200,3.453954345703125,0.827490103572607,-0.8685939751163124,0.037967518879892304
1761507041356926500,3.463926513671875,0.9474030156761407,-0.8093244784153998,-0.009864701937604695
1761507041366898200,3.473898193359375,0.6876929258257151,-0.6481403753772378,-0.11935918721091002
1761507041376869400,3.483869384765625,0.28057401418089867,-0.46608372631073,-0.3011614413912408
1761507041386841300,3.49384130859375,-0.10749182194769381,-0.2602453657709062,-0.4780572918947786
1761507041396813300,3.503813232421875,-0.5373907206773758,-0.03471738537698984,-0.5733656318347901
1761507041406784300,3.5137841796875,-0.9181687378853559,0.16823095280975103,-0.5730590501036494
1761507041416756500,3.523756591796875,-1.2105056705743074,0.3287270735837519,-0.532234872284159
1761507041426727200,3.53372705078125,-1.4017372674822806,0.46882864110469813,-0.48165783713739363
1761507041436699400,3.543699462890625,-1.4450737203836441,0.5489966950580477,-0.4007239499107003
1761507041446671400,3.55367138671875,-1.3565683384567497,0.5867417576931416,-0.2746674935508519
1761507041456642300,3.563642333984375,-1.1736749463051557,0.5648294933535158,-0.14829320341348648
1761507041466614300,3.5736142578125,-0.8996125059753656,0.5086575242765248,-0.07673409744929521
1761507041476586200,3.583586181640625,-0.6968775182783603,0.4636548917286098,-0.07566033073794096
1761507041486557200,3.59355712890625,-0.6534434502214193,0.46398704629242415,-0.10896247902214526
1761507041496529400,3.603529296875,-0.7833651306420564,0.5019125800609588,-0.15201757596516982
1761507041506500400,3.613500244140625,-1.0010124407887457,0.5823085975512862,-0.1941778429603204
1761507041516472300,3.623472412109375,-1.1618658505678177,0.6539335718259215,-0.18866633126353843
1761507041526444500,3.633444580078125,-1.1247662462294101,0.6770414756909012,-0.13992641188343985
1761507041536415200,3.643415283203125,-0.8067699716269969,0.6426502535283565,-0.04711768847312778
1761507041546387500,3.653387451171875,-0.45216275298595426,0.548284601265937,0.007300093880295753
1761507041556359200,3.663359130859375,-0.11645663416981697,0.4863289342209696,0.020570147281978278
1761507041566330400,3.673330322265625,0.15437106202244757,0.4443061942666769,0.10217252662107348
1761507041576302300,3.68330224609375,0.34271804340481754,0.43118323945179576,0.177646248745732
1761507041586273500,3.6932734375,0.4175578880727291,0.4315783762492239,0.27763863658243787
1761507041596245200,3.703245361328125,0.4214461276829242,0.45786841728165745,0.3366046385584399
1761507041606217500,3.713217529296875,0.4055360263675451,0.4974702136993408,0.3541437658477574
1761507041616188200,3.723188232421875,0.33686288763582706,0.5382346241556107,0.36832346317395565
1761507041626160400,3.733160400390625,0.27633856856822964,0.5965881750553846,0.37662071486543863
1761507041636132400,3.74313232421875,0.2798188118994236,0.6273338803224265,0.35987083825767036
1761507041646103300,3.753103271484375,0.3353565747261047,0.6241125801883638,0.309990078279376
1761507041656075300,3.7630751953125,0.4086830922216177,0.5985758417412639,0.25078301582280543
1761507041666046500,3.77304638671875,0.45159693579673765,0.5697773250192404,0.20060488033313303
1761507041676018200,3.78301806640625,0.43679567250609397,0.5615488642476498,0.17609726573806256
1761507041685990400,3.792990478515625,0.36263445775210856,0.5716871041633188,0.17193272993713615
1761507041695961300,3.80296142578125,0.2467833882600069,0.6086208504155278,0.15517759263236075
1761507041705933300,3.812933349609375,0.10659282728135586,0.6687354196384548,0.16013740699682383
1761507041715905500,3.822905517578125,-0.02424129180908203,0.7396228734187782,0.16584471526034175
1761507041725876200,3.832876220703125,-0.09419687156677245,0.7981669784545898,0.14917605066262185
1761507041735848400,3.842848388671875,-0.1390291159838438,0.8532927994795143,0.10844740563947707
1761507041745820200,3.852820068359375,-0.20237199960350988,0.9082751203805207,0.06964114351365715
1761507041755791400,3.862791259765625,-0.34093700520694253,0.9687909638807177,0.06262578485887497
1761507041765763300,3.872763427734375,-0.5569079065740108,1.0700563125289977,0.08085274828188121
1761507041775734500,3.882734619140625,-0.707236415207386,1.1274359038300812,0.11257456857208162
1761507041785706200,3.892706298828125,-0.7433259657204151,1.1342732025042175,0.16015841325223446
1761507041795678500,3.902678466796875,-0.6547416733384132,1.0887751876547933,0.17967344372440128
1761507041805649400,3.9126494140625,-0.4328413819223642,0.9796345755867659,0.16479874987136572
1761507041815621400,3.922621337890625,-0.22215046678483485,0.8280847084648907,0.15905114613007754
1761507041825593300,3.93259326171875,-0.025210429102182387,0.6960553882405162,0.16053871780671178
1761507041835564300,3.942564208984375,0.1772188536465168,0.5846474157623947,0.18758955061119048
1761507041845536500,3.95253662109375,0.34455168857276436,0.4984549869529903,0.249620803643018
1761507041855507500,3.962507568359375,0.4149819001048803,0.43803237469419837,0.28517880456261335
1761507041865479400,3.9724794921875,0.3897422449082136,0.3985448523059487,0.2791787969628349
1761507041875451400,3.982451416015625,0.3603729425609112,0.36679084677919743,0.24154358791038394
1761507041885422600,3.992422607421875,0.34902328102886676,0.3240390618979931,0.24160189396888015
1761507041895394300,4.002394287109375,0.37784079471230503,0.28406945508122444,0.2818833066811785
1761507041905364200,4.0123642578125,0.417975821223855,0.23628975903540847,0.3479927324047312
1761507041915336200,4.022336181640625,0.4184370089948177,0.19138722586110232,0.40309104436822235
1761507041925307400,4.032307373046875,0.3912526494711637,0.14614216285943984,0.4168969034133479
1761507041935279000,4.042279052734375,0.3658984279841184,0.1023326856188476,0.3839358601843938
1761507041945251300,4.052251220703125,0.34196927086412904,0.04367649851068854,0.32556879221592094
1761507041955222000,4.062221923828125,0.31178748309016224,0.006113952835649252,0.29369287734255195
1761507041965194200,4.0721943359375,0.29969255614876744,-0.016059446658194063,0.26292444878704846
1761507041975166200,4.082166259765625,0.30218671105206013,-0.02192512382119894,0.2840525404790416
1761507041985137200,4.09213720703125,0.2876128267765045,-0.043297582195699215,0.2965168121894821
1761507041995109400,4.102109375,0.2717348741650581,-0.09091565793901682,0.3001655074227601
1761507042005080300,4.112080322265625,0.2645464239656925,-0.12792816851586103,0.3237116931071505
1761507042015052300,4.12205224609375,0.2743897725880146,-0.14202829779982565,0.32342597150094804
1761507042025024300,4.132024169921875,0.2907020249634981,-0.1510294965095818,0.32041846024803816
1761507042034995200,4.1419951171875,0.27872575596570964,-0.1651882241129875,0.3118643111860379
1761507042044967200,4.15196728515625,0.2297428216099739,-0.18534473082646727,0.28855712188929317
1761507042054939400,4.161939453125,0.1770101793318987,-0.2005290020853281,0.261337362258695
1761507042064910000,4.17191015625,0.11291560056209564,-0.2110173706129193,0.22936606071945279
1761507042074882300,4.18188232421875,0.06921908217668533,-0.21242460706233976,0.2048023685555905
1761507042084853200,4.191853271484375,0.06753039843738079,-0.2025583159558475,0.19903540252670646
1761507042094825200,4.2018251953125,0.07534720966815948,-0.20102891443148255,0.19809055942464618
1761507042104797200,4.211797119140625,0.037274376383423805,-0.2091431011736393,0.19392832517866043
1761507042114768400,4.221768310546875,-0.054305006161332124,-0.18621464552879333,0.18999390833918003
1761507042124740000,4.231739990234375,-0.14399229134917257,-0.1757736232742667,0.19394933143407106
1761507042134712300,4.24171240234375,-0.21091887867450712,-0.1801345949627459,0.20776640599295496
1761507042144683000,4.25168310546875,-0.25611352666318415,-0.21257205270901322,0.18086418787892908
1761507042154655200,4.2616552734375,-0.28094752366840836,-0.23703268635720012,0.12184110368713735
1761507042164626200,4.271626220703125,-0.27310557799637314,-0.2780421576157212,0.10420870862379669
1761507042174598100,4.28159814453125,-0.28654490528404714,-0.27796339329108594,0.09948149743881075
1761507042184570400,4.2915703125,-0.3057996408522129,-0.2630589618869126,0.09847758109327405
1761507042194541300,4.301541259765625,-0.31835750913023947,-0.25511881653741003,0.10011318293847143
1761507042204513300,4.31151318359375,-0.2951163342744112,-0.24919249522835016,0.08471293084137141
1761507042214485200,4.3214853515625,-0.2777875983327627,-0.2647029297016561,0.06575429214294999
1761507042224456200,4.331456298828125,-0.274676188313961,-0.28019758208394047,0.04941401924937963
1761507042234428200,4.34142822265625,-0.25867139445245263,-0.3112720809139311,0.01828592706862837
1761507042244399400,4.3513994140625,-0.27285774071514607,-0.34377851224318146,0.011342720334604381
1761507042254371000,4.36137109375,-0.3117337070763111,-0.40127047787755726,0.008566131760738789
1761507042264343300,4.37134326171875,-0.3386433413118124,-0.4437731103032827,-0.03183945532049984
1761507042274314200,4.381314208984375,-0.30906945630311966,-0.5572977826744318,-0.07246690499149262
1761507042284286200,4.3912861328125,-0.21523381926417348,-0.7198360768005252,-0.05781337960846722
1761507042294259200,4.40125927734375,-0.015776245802640913,-0.8628186065852641,-0.04975169023852795
1761507042304231200,4.411231201171875,0.20475158821642397,-0.8744839099377393,-0.07815488750003277
1761507042314202400,4.421202392578125,0.1616471905052662,-0.7998201524890959,-0.11012765034399925
1761507042324174000,4.431174072265625,-0.10345160664618015,-0.6472511714525521,-0.16232410338614134
1761507042334145300,4.441145263671875,-0.41146074024140833,-0.48088382055759427,-0.15063238695077596
1761507042344117200,4.4511171875,-0.7872790892153978,-0.25515140363276,-0.1596915994580835
1761507042354089200,4.461089111328125,-1.1409271074354648,-0.027053134359419344,-0.17769713868275283
1761507042364060200,4.47106005859375,-1.3093494911640882,0.1436136672951281,-0.1546884208759293
1761507042374032400,4.481032470703125,-1.2573451631605626,0.24392493008896707,-0.04239942777957767
1761507042384004000,4.491004150390625,-1.0753040039241313,0.31554902758076786,0.14779964774288237
1761507042393975300,4.500975341796875,-0.7135276243060826,0.3451803418651223,0.3218132756073028
1761507042403947000,4.510947021484375,-0.28693185877501964,0.2869241138599813,0.4735085790818557
1761507042413918200,4.520918212890625,0.05643558844923973,0.17620251621082425,0.5571459165809676
1761507042423890200,4.53089013671875,0.3645885144293308,0.05297141947001219,0.5813049369340763
1761507042433862100,4.540862060546875,0.6804471924811601,-0.06959142262041568,0.6429702061977237
1761507042443833000,4.5508330078125,0.9352759400308132,-0.1287624273829162,0.7014551283922046
1761507042453805300,4.560805419921875,1.1139525912702084,-0.1344661919824779,0.7499259485073387
1761507042463777300,4.57077734375,1.183562718591094,-0.1102669857494533,0.7821491059157997
1761507042473748200,4.580748291015625,1.090150275400281,-0.05948854627907276,0.7576366690151393
1761507042483720200,4.59072021484375,0.8785849155157804,0.01472483705356717,0.6785952810041606
1761507042493691100,4.600691162109375,0.5998340251088142,0.07266279288977384,0.5313101221220567
1761507042503663400,4.610663330078125,0.2528951491385698,0.13570610904097558,0.3444244454639032
1761507042513635000,4.620635009765625,-0.015123919373750686,0.20990210284739733,0.15666242436263708
1761507042523606300,4.630606201171875,-0.1395961022168398,0.2666300983719528,0.030649076492153107
1761507042533578200,4.640578125,-0.12703706489503383,0.30474004879668354,-0.05059457080345601
1761507042543550200,4.65055029296875,-0.056771688535809516,0.3274640679106116,-0.11494896955322474
1761507042553521200,4.660521240234375,-0.01851180824637413,0.3618349779374897,-0.16031868184786288
1761507042563493400,4.670493408203125,-0.014155951124429703,0.4107274575307965,-0.17681198987867683
1761507042573464000,4.680464111328125,-0.14166180257499217,0.46771878016665575,-0.20128475235607474
1761507042583436300,4.690436279296875,-0.3103840460330248,0.5509599579550326,-0.2537245857000351
1761507042593408000,4.700407958984375,-0.40744098320603367,0.6088372696451843,-0.2447054494747892
1761507042603379200,4.710379150390625,-0.4400508749097585,0.6608965427063405,-0.22161888065878302
1761507042613351400,4.720351318359375,-0.37360125744640826,0.6946729939714074,-0.1831171179048717
1761507042623323100,4.7303232421875,-0.20265724628567694,0.6797356832109391,-0.17810389285273848
1761507042633294300,4.74029443359375,0.0015267711758613586,0.6259782279297709,-0.1928659931767732
1761507042643266300,4.750266357421875,0.1448760884463787,0.577441283775866,-0.228898954664357
1761507042653238300,4.76023828125,0.1610761126190424,0.5442731736674904,-0.2880217729035765
1761507042663209200,4.770209228515625,0.12293664383888243,0.5287669769778848,-0.3124508789023384
1761507042673181200,4.78018115234375,0.05073474645912647,0.538975359520316,-0.3332232890244573
1761507042683152100,4.790152099609375,0.0189531222730875,0.5639785756126046,-0.32921690292730926
1761507042693124400,4.800124267578125,0.0030465280890464783,0.5851796229429542,-0.3117242451282218
1761507042703096000,4.810095947265625,0.00343465062379837,0.5909777878277004,-0.31657654399760066
1761507042713067300,4.8200673828125,0.007636778488755226,0.5575551184363663,-0.3446172646222636
1761507042723039200,4.830039306640625,0.06334054553210736,0.5215564610771835,-0.3533178729502484
1761507042733011200,4.84001123046875,0.13225509180426598,0.49250791511684655,-0.30993571774363515
1761507042742982100,4.849982177734375,0.17174071449637413,0.4616488126032054,-0.22136315233204512
1761507042752954400,4.859954345703125,0.20318799216151237,0.4453865368492901,-0.09488149283006787
1761507042762925000,4.869925048828125,0.23709493793845177,0.3992179292619228,0.01387928960751742
1761507042772897300,4.879897216796875,0.2365437337964773,0.34902328102886676,0.06739873488172889
1761507042782869200,4.889869140625,0.17841478543281555,0.32384602354392406,0.04919880559612065
1761507042792840200,4.899840087890625,0.09091536567807197,0.28655265019908543,-0.010932422500662505
1761507042802812400,4.9098125,-0.03990647845268249,0.23881021742373704,-0.05683664353080094
1761507042812784000,4.9197841796875,-0.19673954667448995,0.20177958666831253,-0.04989570181909948
1761507042822755300,4.92975537109375,-0.32334698798060413,0.17471607704535125,0.0030718451933935283
1761507042832727300,4.939727294921875,-0.3669984981805086,0.17032573313191532,0.09669804073274135
1761507042842698200,4.9496982421875,-0.41166006220579143,0.16970833188593387,0.1783868379799649
1761507042852670200,4.959670166015625,-0.48127194309234617,0.15394684526100755,0.19870536685474216
1761507042862642200,4.96964208984375,-0.548550412595272,0.11721300549507141,0.17862956069465727
1761507042872613000,4.979613037109375,-0.5408773937493563,0.06927884953990578,0.1063264314301312
1761507042882585300,4.98958544921875,-0.4289958124101162,-0.008020809370279311,0.05748275941461324
1761507042892557000,4.99955712890625,-0.2326566632300615,-0.10373977593779564,0.0315360884597525
1761507042902528300,5.0095283203125,-0.005499181938171387,-0.20671046719923614,0.03257357828132808
1761507042912499700,5.019499755859375,0.23521219293177126,-0.2976369387932122,0.0590142432982102
1761507042922471000,5.029470947265625,0.5109475349098443,-0.387743033915013,0.08780841263867914
1761507042932442600,5.039442626953125,0.7498077289551496,-0.4824234512150287,0.10151461070161312
1761507042942414800,5.049414794921875,0.9056377576142549,-0.5688255772523582,0.09728387779667973
1761507042952385500,5.059385498046875,0.9766372934669255,-0.6317309462375938,0.04148205720633268
1761507042962357800,5.069357666015625,1.0119470917791127,-0.7127827972881495,0.02028068108242005
1761507042972329700,5.079329833984375,0.935768691983819,-0.7873731972396373,-0.026096527754329142
1761507042982300700,5.08930078125,0.7214566637396812,-0.7556161229729652,-0.08281469600461423
1761507042992272600,5.099272705078125,0.5120680633723735,-0.7115323588356375,-0.04781944353431463
1761507043002243800,5.109243896484375,0.40919805600643155,-0.6677646749101579,0.059470718361437316
1761507043012215600,5.119215576171875,0.3800906194657087,-0.6462113070107997,0.1322656131982803
1761507043022187800,5.129187744140625,0.36910920672416686,-0.6537472554735839,0.13322671331539748
1761507043032158700,5.13915869140625,0.3609598025381565,-0.6690431704133749,0.07660122831724583
1761507043042130700,5.149130615234375,0.31844986358880994,-0.6950375895000994,0.009400719421356916
1761507043052103000,5.15910302734375,0.20205869587063788,-0.674244538448751,-0.027033991267532108
1761507043062073600,5.169073486328125,0.08127133902013302,-0.6074041681021451,-0.014604644740000366
1761507043072045800,5.1790458984375,-0.0290004690349102,-0.5166477923780679,0.0469835041668266
1761507043082017500,5.189017578125,-0.1101110645353794,-0.43124899816438556,0.09162497525215148
1761507043091988700,5.19898876953125,-0.2008212630301714,-0.38176089076548814,0.10078348341546953
1761507043101960700,5.208960693359375,-0.27846973537802694,-0.3847743933677673,0.058331777459383005
1761507043111932000,5.218931884765625,-0.29909517477750774,-0.413662049677968,0.0068885174047201864
1761507043121903600,5.228903564453125,-0.20211597901582717,-0.47605961527153845,-0.040960517550259826
1761507043131875800,5.238875732421875,-0.04851940849721431,-0.5184463662326335,-0.06842172125391661
1761507043141846800,5.2488466796875,0.08151800725758075,-0.537478837352246,-0.07654533341154456
1761507043151818800,5.25881884765625,0.12842588890492915,-0.5674272547617555,-0.11260405039489269
1761507043161789700,5.268789794921875,0.09486439556479453,-0.5797741106376052,-0.18367964715845883
1761507043171761700,5.27876171875,0.016221066960692403,-0.5954081714905798,-0.27814656783826647
1761507043181733600,5.288733642578125,-0.03621346915364265,-0.5934441779412328,-0.3314050971539691
1761507043191704800,5.298704833984375,-0.051391164541244504,-0.5933458321332932,-0.33364955161251125
1761507043201676800,5.3086767578125,-0.09385434173941612,-0.5700583339177072,-0.3243194497419521
1761507043211648800,5.318648681640625,-0.13004150740802287,-0.5454391487069428,-0.29146709105186164
1761507043221620000,5.328619873046875,-0.14131459657251835,-0.5260420820586383,-0.25559976845476773
1761507043231591700,5.338591796875,-0.0997936686605215,-0.5326302282772958,-0.2359328353565186
1761507043241564000,5.34856396484375,-0.05525426971018314,-0.6020633915960788,-0.1510944515045732
1761507043251534600,5.35853466796875,-0.013072247540950774,-0.6551540535315871,-0.07863342826459556
1761507043261506800,5.3685068359375,0.03323357656002045,-0.6232479261830449,-0.05175312972143292
1761507043271477800,5.378477783203125,-0.12954232571423052,-0.5344485297456384,-0.06404485787656158
1761507043281449700,5.38844970703125,-0.47159985938370225,-0.400206063516438,-0.1249339551359415
1761507043291421700,5.398421630859375,-0.8243406996309757,-0.26369360652863977,-0.2256335961928591
1761507043301393000,5.408392822265625,-1.0297715022832155,-0.13444105754122138,-0.31142690614946184
1761507043311364600,5.418364501953125,-1.1408417672395705,-0.0401401410780847,-0.3519804868666455
1761507043321336800,5.4283369140625,-1.239251872587204,0.06132613696977496,-0.4431724409963935
1761507043331307800,5.438307861328125,-1.2606021191298962,0.1272339026413858,-0.5533277465322985
1761507043341279700,5.44827978515625,-1.2242512873321771,0.16436112563908098,-0.5873441075004637
1761507043351250700,5.458250732421875,-1.1397487113058566,0.1873568013012409,-0.5642599133046343
1761507043361222700,5.46822265625,-0.9176192873090505,0.1958108875222504,-0.4960378793412819
1761507043371195000,5.47819482421875,-0.5564408735841513,0.16739947042167186,-0.37865978294499214
1761507043381165800,5.488165771484375,-0.21056348936557767,0.11130129723325372,-0.25968605138771234
1761507043391137800,5.4981376953125,0.05880582471191883,0.0824910900734365,-0.21598419924005866
1761507043401109800,5.50810986328125,0.23162615113854407,0.07192351882979274,-0.19137805617395787
1761507043411081000,5.5180810546875,0.26994097648561,0.09009089755266904,-0.17700747591815888
1761507043421052700,5.528052734375,0.22049977696835993,0.14581088507845996,-0.15626535133644937
1761507043431023900,5.53802392578125,0.14071429259181023,0.19570041288509965,-0.15046422730963677
1761507043440995600,5.54799560546875,0.09946867448985576,0.22493396002352237,-0.16199443304035813
1761507043450967800,5.5579677734375,0.13731588232517242,0.26286592353284355,-0.13977971515543758
1761507043460938800,5.567938720703125,0.17676818726956844,0.28351956611350176,-0.14338811491094527
1761507043470910700,5.57791064453125,0.19949673642814159,0.3282674932479858,-0.155685761350207
1761507043480882700,5.587882568359375,0.17299977464675903,0.36937604096680876,-0.13392127145081759
1761507043490854000,5.59785400390625,0.14016484201550483,0.418140802527219,-0.11418642421551048
1761507043500825600,5.60782568359375,0.07735913401246071,0.47363721043020485,-0.040531551548466084
1761507043510796800,5.617796875,-0.0506768787920475,0.5020657247960567,-0.0020817747101187704
1761507043520768800,5.627768798828125,-0.039946810463070866,0.5937735560260713,0.02850062975399196
1761507043530740700,5.63774072265625,-0.04627776705026626,0.576219633026421,0.09690788409113883
1761507043540711700,5.647711669921875,-0.017110709276795387,0.6390643578656018,0.0947655748328194
1761507043550683600,5.65768359375,0.03461187917590141,0.662903352484107,0.10110190171487629
1761507043560656000,5.66765576171875,0.1269645841807127,0.6714933400444686,0.10964830586183816
1761507043570626800,5.677626708984375,0.29166297895014287,0.6596756226092576,0.1184503652703017
1761507043580598800,5.687598876953125,0.4409674052327871,0.6556285391755402,0.12925550812948494
1761507043590569700,5.69756982421875,0.5119096579402684,0.6516850622467696,0.1459987723333761
1761507043600542000,5.7075419921875,0.5230822093397378,0.6616375703319907,0.15150182672906667
1761507043610513700,5.717513671875,0.4768360064715147,0.6822283768095075,0.16288016636632383
1761507043620484900,5.72748486328125,0.41381285632550713,0.6989758057318627,0.18574863545224068
1761507043630456600,5.73745654296875,0.3718868547439575,0.7484076528988778,0.22534034886732696
1761507043640428800,5.7474287109375,0.3366594740182161,0.8010458948917687,0.28090280774384735
1761507043650399700,5.757399658203125,0.3280623260647058,0.8577640996746718,0.33829653716813773
1761507043660371700,5.767371826171875,0.3490905010461807,0.8962763472899794,0.3820485851330682
1761507043670342700,5.7773427734375,0.3342863151460886,0.8998606355175376,0.3596434592425823
1761507043680315000,5.78731494140625,0.30737317377924916,0.8998585896909236,0.35125436454918235
1761507043690286600,5.79728662109375,0.3173930480122566,0.8900143642857671,0.33444055585972965
1761507043700257800,5.8072578125,0.34156361267268653,0.8950508971482515,0.31558230879586185
1761507043710229800,5.817229736328125,0.3580710953593254,0.9059516458690166,0.3376732907032594
1761507043720201700,5.82720166015625,0.33666298114955423,0.8894552690982818,0.3580388005249202
1761507043730172700,5.837172607421875,0.31633623243570325,0.8384080956891179,0.3921305282842368
1761507043740144600,5.84714453125,0.2923497921705246,0.7962984081037342,0.4177612286251038
1761507043750115600,5.857115478515625,0.2681494168937206,0.7565159944221377,0.4050328260857612
1761507043760087800,5.867087890625,0.24537235241830346,0.6888748290866613,0.37394035320766267
1761507043770059800,5.877059814453125,0.19491408481299877,0.6390932916991412,0.32337796764075755
1761507043780030700,5.88703076171875,0.15567571488022802,0.6149450850009918,0.2726308731567114
1761507043790003000,5.8970029296875,0.1378922209084034,0.5921764960929751,0.27646679805777963
1761507043799974700,5.906974609375,0.13645721966922283,0.5698235022485256,0.3104611298572272
1761507043809945900,5.91694580078125,0.1255319210290909,0.5385984890319406,0.3314963191013783
1761507043819917600,5.92691748046875,0.12820786224007605,0.5034696002446115,0.3493948177549988
1761507043829888800,5.936888671875,0.1940320412814617,0.42183293504342434,0.33983956535905596
1761507043839860700,5.94686083984375,0.27782559225559234,0.3229704097531736,0.3429341703735292
1761507043849832700,5.956832763671875,0.31049276710450646,0.21473609887510536,0.3460970183186233
1761507043859803600,5.9668037109375,0.35387715080082416,0.1369216223105788,0.3602566957700997
1761507043869776000,5.97677587890625,0.4226414749473333,0.06253522049859166,0.3942081382758915
1761507043879746600,5.98674658203125,0.4908610246926546,-0.014029402135312556,0.41436588709838684
1761507043889718800,5.99671875,0.47379649264514445,-0.07180339958146215,0.3920142814934253
1761507043899690800,6.006690673828125,0.4360492380529642,-0.1223787176951766,0.3497814789850265
1761507043909661700,6.01666162109375,0.36695173642933365,-0.16895999773666262,0.29543080705106256
1761507043919634000,6.026634033203125,0.2592874805241823,-0.203532713945955,0.22370419903285801
1761507043929606000,6.03660595703125,0.1532113705933094,-0.22938626325726508,0.18012743456959723
1761507043939576800,6.046576904296875,0.1066957031339407,-0.2738436830125749,0.1689613129109144
1761507043949549000,6.056549072265625,0.08577624922394753,-0.3093967885613441,0.16938823308609424
1761507043959520800,6.066520751953125,0.06807283475100993,-0.3451888174325228,0.1717054970525205
1761507043969492000,6.076491943359375,0.04790449146926403,-0.3983861546128988,0.1579768314294517
1761507043979464000,6.0864638671875,0.03771335232257843,-0.42319457878544925,0.14246442419476807
1761507043989435000,6.096434814453125,0.021334464451670646,-0.43999037689417597,0.14447612934336065
1761507043999406800,6.10640673828125,-0.03835691092312336,-0.4389839763306081,0.13085939966216684
1761507044009378800,6.11637890625,-0.13392156371176242,-0.40329906109571456,0.12104359663389623
1761507044019349800,6.126349853515625,-0.2940700400918722,-0.3598421966850757,0.09806589501984417
1761507044029322000,6.136322021484375,-0.460029833099246,-0.3125608055502176,0.04992511057667434
1761507044039294000,6.1462939453125,-0.5717962636262178,-0.2724020328368991,0.023807576566934583
1761507044049265000,6.156264892578125,-0.6559013647675513,-0.23379838061109184,0.008856529542058705
1761507044059237000,6.166237060546875,-0.736475953695178,-0.20198073526360094,0.0038321255087852475
1761507044069207800,6.176207763671875,-0.7702601498752832,-0.169518800663203,0.023279241843894124
1761507044079180000,6.186179931640625,-0.7396510765999555,-0.15921514105275272,0.07734444789998234
1761507044089151700,6.19615185546875,-0.6149433314353228,-0.18676753017120062,0.1567787076860666
1761507044099123000,6.206123046875,-0.4612660968959331,-0.24239772052168845,0.1873836162429303
1761507044109095000,6.216094970703125,-0.27286826210916043,-0.3254542624581605,0.17561317201554774
1761507044119067000,6.22606689453125,-0.1399959151893854,-0.4028665148973465,0.14043047068174927
1761507044129037800,6.236037841796875,-0.07381576231718064,-0.5143859849259257,0.23527802470959722
1761507044139010000,6.246010009765625,0.05318740030825138,-0.7012835712175816,0.4194762523820624
1761507044148980700,6.255980712890625,0.3930278424501419,-0.8372393441706896,0.5422819267850368
1761507044158953000,6.265952880859375,0.8111030323952436,-0.8035469179272651,0.5407423326602205
1761507044168925000,6.275925048828125,0.7887567605525255,-0.6928413215648382,0.5394467033591122
1761507044178896000,6.285895751953125,0.2828676780760288,-0.5334002628017217,0.4900651250746101
1761507044188867800,6.295867919921875,-0.34427462519705293,-0.2974192774545401,0.370600906586647
1761507044198839800,6.30583984375,-0.8786749318867921,-0.08713760070502757,0.2975002337362617
1761507044208810800,6.315810791015625,-1.2991495841890572,0.0731964613750577,0.2360197829876095
1761507044218783000,6.325782958984375,-1.444094646218419,0.19083390282727777,0.18028817808926104
1761507044228754000,6.33575390625,-1.269196344473958,0.22442739874087272,0.276745907260105
1761507044238726000,6.345725830078125,-0.929030323639512,0.21215769975446164,0.457762911080569
1761507044248698000,6.355697998046875,-0.6244803905874491,0.18112009886875746,0.613648615449667
1761507044258668800,6.365668701171875,-0.39253684406280515,0.1324408966999501,0.6945826853394508
1761507044268641000,6.37564111328125,-0.2164402724444866,0.0883252761196345,0.7008744789600372
1761507044278612000,6.385612060546875,-0.10077566543519496,0.04789316635765135,0.6729075907565653
1761507044288584000,6.395583984375,-0.09245324276983738,0.023934710077941415,0.5911702416598796
1761507044298556000,6.405555908203125,-0.21309271558225154,0.03621142332702875,0.4629821800988167
1761507044308527000,6.415527099609375,-0.38998072983920573,0.0814150583397597,0.32369985653888433
1761507044318498800,6.425498779296875,-0.5715232919037342,0.1479214474916458,0.16475297450087964
1761507044328471000,6.435470947265625,-0.7285743867903948,0.20004078017696736,0.006920008521527052
1761507044338441700,6.445441650390625,-0.8762994349271058,0.2328449523437768,-0.1140630170315504
1761507044348414000,6.4554140625,-0.9067962799996138,0.26557678992673756,-0.23462474843263625
1761507044358385000,6.465385009765625,-0.8300093929171561,0.2575038850430399,-0.3121319856788963
1761507044368356900,6.47535693359375,-0.704164752677083,0.23791911380290984,-0.3632246421976015
1761507044378328800,6.485328857421875,-0.5502367582470178,0.20797953728698193,-0.38251908872164786
1761507044388300000,6.495300048828125,-0.37215339672565456,0.1763717352978885,-0.3686173680866137
1761507044398271700,6.505271728515625,-0.1411725577533245,0.14960282470732927,-0.3347900634171441
1761507044408244000,6.515243896484375,0.06536708292365073,0.15736922092512248,-0.2914100636349991
1761507044418215000,6.52521484375,0.23125088808536529,0.17583602098599074,-0.23323457271587103
1761507044428187000,6.535186767578125,0.318871303871274,0.21299436977431177,-0.15670396194942296
1761507044438157800,6.54515771484375,0.3856190274983644,0.2635927765026688,-0.09492105765547602
1761507044448129800,6.5551298828125,0.44636254227459427,0.3231291074462235,-0.0338415158579126
1761507044458102000,6.56510205078125,0.5312251837849616,0.3542579668119549,0.021224537803791462
1761507044468073000,6.575072998046875,0.5965004967719316,0.38710312857627865,0.03179404527619481
1761507044478045000,6.585044921875,0.6038730713665486,0.4049294387765229,-0.011652991860173642
1761507044488017000,6.595016845703125,0.6234533856272697,0.40822336575537915,-0.09233093156442046
1761507044497988000,6.604988037109375,0.5908353106170893,0.4163853371620178,-0.16863883949089795
1761507044507959800,6.614959716796875,0.49722880615890025,0.44044323522821066,-0.26092713748998936
1761507044517931000,6.624930908203125,0.36218145328760143,0.47315658730641,-0.3435668422538787
1761507044527902700,6.63490283203125,0.26214813065230846,0.5221519427523017,-0.38582645970396695
1761507044537875000,6.644875,0.21199907512664792,0.5631314572639763,-0.41982594260256734
1761507044547846000,6.654845947265625,0.10571078374981879,0.5895537463739514,-0.4153227494318038
1761507044557817900,6.66481787109375,0.008187982630729675,0.6370077175967395,-0.4298900213034823
1761507044567789800,6.674789794921875,-0.04720364972352981,0.6465430231831968,-0.43844022484272716
1761507044577761000,6.684760986328125,-0.07704758384525776,0.6373856109984218,-0.43995037367735057
1761507044587732700,6.694732666015625,-0.07729425208270549,0.6301404621757567,-0.42419089634642004
1761507044597704000,6.704703857421875,-0.05396949059665203,0.6152011055886745,-0.3652503758715465
1761507044607676000,6.714676025390625,-0.012449731728434561,0.6016843291506171,-0.27799923178944735
1761507044617647900,6.72464794921875,0.018059388303756713,0.5924326628111303,-0.20622173383422196
1761507044627618800,6.734618896484375,0.061759413820505135,0.5705648221351206,-0.14614976164400575
1761507044637590800,6.7445908203125,0.05329670590162277,0.5284101263642311,-0.09655914371870458
1761507044647563000,6.75456298828125,0.005700841990113258,0.4713735032819211,-0.048454946692567315
1761507044657534000,6.764533935546875,0.0030927053183317185,0.43787879156768317,-0.03584801510842517
1761507044667506000,6.774505859375,0.013549217402935028,0.3669295245975256,-0.03809908197084442
1761507044677476900,6.784476806640625,0.08211538862884044,0.33836233241334557,0.03804254774432629
1761507044687449000,6.794448974609375,0.15946107863783834,0.3399991398349404,0.11781404012814163
1761507044697420800,6.8044208984375,0.12112930215597152,0.2722248496390879,0.07720246387971565
1761507044707392000,6.81439208984375,0.09279869520664215,0.15254866890087723,-0.10911675626840442
1761507044717363700,6.82436376953125,0.05119885683953762,0.0021032558895647526,-0.2948472715420648
1761507044727335000,6.8343349609375,-0.022631518524885177,-0.12279986571669578,-0.4349757636025548
1761507044737307000,6.844306884765625,-0.020523732590675352,-0.18879297158420086,-0.43752409637849776
1761507044747278800,6.85427880859375,0.11840250754058361,-0.2454671910949051,-0.354006366671063
1761507044757249800,6.864249755859375,0.3662602470338344,-0.2918178772509098,-0.2643766934219748
1761507044767222000,6.874221923828125,0.5849427454471587,-0.39388504380136724,-0.2327099643198773
1761507044777193700,6.88419384765625,0.7233329790055751,-0.5064927474580705,-0.28159071694277227
1761507044787165000,6.8941650390625,0.7730009730160236,-0.5775666637212038,-0.36025260411687193
1761507044797137000,6.904136962890625,0.7139882275551557,-0.6527294567331672,-0.4555925082389265
1761507044807107800,6.91410791015625,0.5801718777835368,-0.6716635820448398,-0.5468294705541804
1761507044817079800,6.924079833984375,0.4352349990606308,-0.6626032004937529,-0.5708326792910695
1761507044827051800,6.9340517578125,0.371207055786252,-0.6602160130962729,-0.5471422262977809
1761507044837022700,6.944022705078125,0.36113223649561405,-0.6419673858307302,-0.5357133620496839
1761507044846995000,6.953994873046875,0.3508013966172933,-0.6545026038855314,-0.5287050176575779
1761507044856967000,6.963966796875,0.29776363391280175,-0.6550370030231774,-0.5447040028328076
1761507044866937900,6.973937744140625,0.26249650569856164,-0.6541157965250313,-0.5537614617744461
1761507044876910000,6.98391015625,0.2241524542570114,-0.643964989388734,-0.5402187837101519
1761507044886880800,6.993880859375,0.1639157199591398,-0.5964917289435863,-0.49406683499664067
1761507044896853000,7.00385302734375,0.09265548734366894,-0.5386167553409934,-0.4262430065706372
1761507044906824700,7.01382470703125,0.0669154814094305,-0.4753348081283271,-0.3363966583635658
1761507044916796000,7.0237958984375,0.0940682767510414,-0.4498632438719272,-0.2844211180631071
1761507044926768000,7.03376806640625,0.09504735091626644,-0.439986577501893,-0.24923249844517556
1761507044936739800,7.04373974609375,0.043346974295377726,-0.4228528526756912,-0.2315108907284215
1761507044946711000,7.0537109375,0.011747720938920974,-0.4136304124306887,-0.21009656597357243
1761507044956683000,7.06368310546875,-0.023374445846676827,-0.41174700983688234,-0.1526167291684076
1761507044966654000,7.073654052734375,-0.009445873737335204,-0.39469080722630023,-0.1142122893091291
1761507044976626000,7.0836259765625,0.05791325978636741,-0.3832262871429324,-0.1247523149587214
1761507044986598000,7.093597900390625,0.15516834987998007,-0.4068003472149372,-0.1740601338872686
1761507044996568800,7.10356884765625,0.21095161190032957,-0.4665140805520117,-0.2486730379315093
1761507045006541000,7.113541015625,0.22678981702327727,-0.5204653048396111,-0.29260752979125826
1761507045016513000,7.123512939453125,0.15456804589927195,-0.5462774992272258,-0.3392475908152759
1761507045026484000,7.13348388671875,0.07451192788779736,-0.5894893028356134,-0.3940535322360694
1761507045036456200,7.143456298828125,0.07209843700528144,-0.6272317351222038,-0.4426310275960713
1761507045046427100,7.15342724609375,0.10211538960635662,-0.7672463550120592,-0.4483007803281769
1761507045056399000,7.163399169921875,0.1905418610781431,-0.9372558618016541,-0.4505360650995746
1761507045066371000,7.17337109375,0.4194710282176733,-1.0526958662748336,-0.46949426540657874
1761507045076342000,7.183342041015625,0.581898555445671,-1.0313483962111174,-0.5189565077118575
1761507045086314000,7.19331396484375,0.4254518561929464,-0.8937582269892096,-0.6405662137959152
1761507045096286000,7.203285888671875,0.10929156484603882,-0.7711585600197315,-0.7556589392013847
1761507045106257000,7.2132568359375,-0.3415565984100103,-0.6076992055259645,-0.8606861246012151
1761507045116229000,7.22322900390625,-0.84212477812469,-0.3964176310189068,-0.9485045471772551
1761507045126200000,7.233199951171875,-1.2197341021686792,-0.19997436387725173,-0.9687382838454097
1761507045136172000,7.243172119140625,-1.447451555430889,-0.00866254133991897,-0.8920197858240455
1761507045146144000,7.25314404296875,-1.4923919363975524,0.15229703222736715,-0.7908271370857953
1761507045156115000,7.263114990234375,-1.242638592416048,0.23982991586029528,-0.6155057876236737
1761507045166087000,7.2730869140625,-0.8061229058951139,0.2235819608926773,-0.40706674306616186
1761507045176058000,7.28305810546875,-0.36994974920153617,0.16578312126621603,-0.2766094213988632
1761507045186029800,7.29302978515625,-0.01933481506705284,0.11197656614631414,-0.2103285846311599
1761507045196002000,7.303001953125,0.284340673238039,0.06722557027190923,-0.12688815794363617
1761507045205973000,7.312972900390625,0.44361353582739826,0.04421688899770379,-0.057539604168385265
1761507045215945000,7.322945068359375,0.38090193584859366,0.041904228141158816,-0.013656148376129567
1761507045225917200,7.332917236328125,0.2336556111395359,0.14661810980811715,0.033811011121794576
1761507045235888000,7.34288818359375,0.12970306923389435,0.24803806449621915,0.16615652115587143
1761507045245860000,7.352860107421875,0.08822831855118274,0.3391061365179717,0.2807193774683401
1761507045255831000,7.3628310546875,0.08545768479406833,0.40244697431102394,0.3581786839196458
1761507045265803000,7.372802978515625,0.06546060642600059,0.4246640668161213,0.37457174644637853
1761507045275775000,7.38277490234375,0.05759060370326042,0.44516807179301976,0.32683968893457205
1761507045285746200,7.39274609375,0.02368307340443134,0.447840213611722,0.27612255119737233
1761507045295718000,7.4027177734375,-0.14048574453294277,0.4894992348201573,0.23276363073587417
1761507045305690000,7.412690185546875,-0.3795727330714464,0.5831213752388954,0.22739746406022457
1761507045315661000,7.4226611328125,-0.6423235057920217,0.6914044936947524,0.2841862863939255
1761507045325633000,7.432633056640625,-0.8306979597032069,0.799216779768467,0.32431312959901987
1761507045335604000,7.44260400390625,-0.9359966555207967,0.849074597262591,0.32903599340245127
1761507045345576000,7.452575927734375,-0.9521914189964532,0.8787522349067032,0.31584457646124064
1761507045355548000,7.4625478515625,-0.8665244753658771,0.8906988394185901,0.293794109227322
1761507045365519000,7.47251904296875,-0.7206032617807387,0.8289743507809937,0.2720618410971016
1761507045375490800,7.48249072265625,-0.4955103118032217,0.754606507539004,0.2622615461652167
1761507045385463000,7.492463134765625,-0.23052374285459518,0.6908730171665549,0.27390206213630736
1761507045395434000,7.50243408203125,0.061087213647365565,0.6320264220528304,0.30624791434267534
1761507045405406000,7.512406005859375,0.2880833668977022,0.5840934351414442,0.3607268705651164
1761507045415377000,7.522376953125,0.4187134878486395,0.549626517394185,0.40851208303626624
1761507045425349000,7.53234912109375,0.4882458737581968,0.5216686892800033,0.4190302987128496
1761507045435321000,7.542321044921875,0.4902431850552559,0.5004886847376823,0.42615920074470337
1761507045445292000,7.5522919921875,0.47417117117643354,0.5050073312059045,0.4506941782707348
1761507045455264000,7.562263916015625,0.489375754570961,0.4976264271743595,0.49186136084161697
1761507045465236000,7.572236083984375,0.5161030179768801,0.5053751416049898,0.5369802767129614
1761507045475207200,7.582207275390625,0.46589609478414057,0.5297800995431841,0.5804053942784667
1761507045485179000,7.592178955078125,0.4142518322646618,0.5696466843768954,0.5614069715589285
1761507045495150000,7.602150146484375,0.3636918578505516,0.59246101212278,0.5050108748698606
1761507045505122000,7.6121220703125,0.2966097877025604,0.5900152264058589,0.38874285860732194
1761507045515094000,7.622093994140625,0.18625614658296108,0.5889477433048188,0.24403547779135404
1761507045525065000,7.63206494140625,0.1201408756405115,0.5970962707079946,0.144495308967866
1761507045535037000,7.642036865234375,0.1303542266190052,0.5600276460297405,0.06386705362424254
1761507045545009200,7.652009033203125,0.20688158598244188,0.511436779731512,-0.00521411791909486
1761507045554980000,7.66197998046875,0.23526655346751213,0.44416210962086916,-0.06537395105585456
1761507045564952000,7.6719521484375,0.15356149920523166,0.4209481150329113,-0.12813242238368838
1761507045574923000,7.681923095703125,-0.08873860616087913,0.43114159226715565,-0.14454035368598997
1761507045584895200,7.691895263671875,-0.40024025804698465,0.49151890407949683,-0.09336392787396908
1761507045594867000,7.701866943359375,-0.6378215181976556,0.5289001018382609,-0.047947015436738724
1761507045604838100,7.711838134765625,-0.8056471050769091,0.5360805148616433,-0.009050188950635493
1761507045614810000,7.72181005859375,-0.8078326324224472,0.5133604412704705,0.03576528699472546
1761507045624782000,7.731781982421875,-0.5764058032482862,0.45518137015476823,0.10130049302689731
1761507045634753000,7.7417529296875,-0.2021662478983402,0.3345988882265985,0.19536785646248608
1761507045644725000,7.75172509765625,0.10578794063925742,0.21834566767439245,0.27433223371449855
1761507045654696000,7.761696044921875,0.33107553640604015,0.10923106683045625,0.3223709825553
1761507045664668200,7.771668212890625,0.5201712903290987,0.016833499770611524,0.35743082469440995
1761507045674640000,7.781639892578125,0.6807897223085164,-0.08209493036270141,0.4107273479329422
1761507045684611000,7.791611083984375,0.7727654106944799,-0.14627821032926439,0.4347566409591585
1761507045694583000,7.8015830078125,0.7466174084812403,-0.18274945363625883,0.47780178276374935
1761507045704554000,7.811553955078125,0.6628729573458433,-0.15324030442684888,0.5085896101394668
1761507045714526000,7.82152587890625,0.5915303071439266,-0.11653905175626278,0.5575142384367063
1761507045724498000,7.831497802734375,0.5684586436361074,-0.11051292333453892,0.6125374758699909
1761507045734468900,7.84146875,0.5101578458368778,-0.10819529404193162,0.6428086589604616
1761507045744441000,7.851441162109375,0.3781961840212345,-0.10713131807222961,0.6404502592660486
1761507045754413000,7.8614130859375,0.2485954061180353,-0.1162199028044939,0.5896875653540715
1761507045764384000,7.871384033203125,0.15573942776620386,-0.1418295603573322,0.5529012282159179
1761507045774356200,7.881356201171875,0.09788345112502575,-0.15518106323108077,0.501568844657205
1761507045784327000,7.891326904296875,0.022449147695302964,-0.1852693275026977,0.4597387777308002
1761507045794299100,7.901299072265625,-0.062083238947391504,-0.18816534120514988,0.4198199877858162
1761507045804271000,7.91127099609375,-0.16412731688320636,-0.16625673012733458,0.3996083168189972
1761507045814242000,7.921241943359375,-0.25392156957685946,-0.14310308742448688,0.4031008716424927
1761507045824214000,7.931214111328125,-0.26175124028921126,-0.14517565591484308,0.42694512695800513
1761507045834186000,7.94118603515625,-0.24608020842671394,-0.17776501628719268,0.4324927511477843
1761507045844157000,7.951156982421875,-0.19276304425895213,-0.2108560425713658,0.40686270839404315
1761507045854129200,7.961129150390625,-0.12162556124031543,-0.26043387408033014,0.38356783058959987
1761507045864100000,7.97110009765625,-0.04165945959985256,-0.3180782537974417,0.3331470089178532
1761507045874072000,7.981072021484375,-0.01803951455950737,-0.3544701482579112,0.25652393409498037
1761507045884044000,7.9910439453125,-0.05087210910320282,-0.35990583650581537,0.19775763767585158
1761507045894015000,8.001014892578125,-0.1438742179274559,-0.3484100445013493,0.14619568314496426
1761507045903986000,8.01098583984375,-0.20320318973064422,-0.32552235925830897,0.10923976159356534
1761507045913957000,8.02095703125,-0.21393559614717958,-0.3134580466508865,0.10141823765505105
1761507045923928600,8.030928466796874,-0.19423837750852108,-0.29311427373699844,0.11646945711877196
1761507045933899500,8.0408994140625,-0.16385317611694336,-0.2887926111456007,0.10937756262905896
1761507045943871500,8.05087158203125,-0.13253975396454334,-0.29313882365636523,0.049012562309019264
1761507045953843500,8.060843505859374,-0.16009002419114113,-0.2958754820786416,-0.04456011294480413
1761507045963814400,8.070814453125,-0.25370471195578576,-0.29553821294829247,-0.13442852685321122
1761507045973786400,8.080786376953125,-0.29002397957146164,-0.2591235221341252,-0.219893298975192
1761507045983757600,8.090757568359376,-0.2837608275234699,-0.2502047410108149,-0.23254954959377644
1761507045993729300,8.100729248046875,-0.28342706552445884,-0.23654417218789456,-0.21122487588375805
1761507046003701500,8.110701416015624,-0.2543371646404266,-0.23964491468220947,-0.14372198650781065
1761507046013672400,8.12067236328125,-0.16570201885402203,-0.2506932551801205,-0.07659669827260077
1761507046023644400,8.13064453125,-0.052695232877135276,-0.2787066128738224,-0.009670732001774013
1761507046033616400,8.140616455078124,0.02918868508338928,-0.31720702392086386,0.06152038090024143
1761507046043587300,8.15058740234375,0.07640460976660252,-0.37637116055116054,0.14569854727778583
1761507046053559300,8.160559326171875,0.1667833843499422,-0.48322746107429265,0.3261786312099546
1761507046063530500,8.170530517578126,0.36315292866826054,-0.5602390968233346,0.35541016905438155
1761507046073502200,8.180502197265625,0.5037888953268528,-0.5929897121720016,0.16906426182873546
1761507046083474400,8.190474365234374,0.3232581406533718,-0.5185904508784414,-0.029622363792918622
1761507046093445400,8.2004453125,-0.039351182657480235,-0.34538507065698504,-0.10446984377801417
1761507046103417300,8.210417236328125,-0.334524215555191,-0.1111304707109928,0.005263400420919061
1761507046113389600,8.2203896484375,-0.6579986293077469,0.15271101985573768,0.14739588924758135
1761507046123360500,8.230360595703125,-1.0474614727526903,0.42620632782205936,0.17885511307884006
1761507046133332500,8.24033251953125,-1.3471324015915394,0.6014778467930852,0.19518062679469583
1761507046143303400,8.250303466796876,-1.4935200636446475,0.6583204086080193,0.166276969197765
1761507046153275400,8.260275390625,-1.4381331074655055,0.6580218640528619,0.09191621328368782
1761507046163247400,8.270247314453124,-1.111782261493802,0.5673712867908179,0.12252448284141719
1761507046173218600,8.280218505859375,-0.5723422070711851,0.4743268001295626,0.23735552510339766
1761507046183190300,8.290190185546875,-0.013818097472190856,0.35803704695925115,0.3593140080925077
1761507046193162500,8.30016259765625,0.36860651789903637,0.2613550805784762,0.40999110608026385
1761507046203133400,8.310133544921875,0.5289584078967571,0.17769933063983917,0.3829251122392714
1761507046213105400,8.32010546875,0.5509054512888193,0.09980550522878766,0.2894323155549355
1761507046223076400,8.330076416015626,0.5288444261282682,0.055665773120522496,0.21487506895437836
1761507046233048300,8.34004833984375,0.5358890839427709,0.03545534426271915,0.16072388338157906
1761507046243020300,8.350020263671874,0.5969499941051006,0.03408917047604918,0.16494093482103198
1761507046252991500,8.359991455078125,0.647602907499671,-0.013476882819086312,0.17563920150594783
1761507046262963200,8.369963134765625,0.7690630490452051,-0.03347118470817804,0.1701265207653865
1761507046272935400,8.379935302734374,0.8223878119975327,-0.06977934640794992,0.17509955993760376
1761507046282906400,8.38990625,0.8239180903047323,-0.07857932345718145,0.1406593475341797
1761507046292878300,8.39987841796875,0.7629922046989202,-0.07447261879071593,0.11958046527877449
1761507046302849300,8.409849365234376,0.5725976431369781,-0.0067179100781679145,0.07707812511399388
1761507046312821500,8.419821533203125,0.2823608975976705,0.09130436499565839,0.032298962591029705
1761507046322793500,8.42979345703125,0.0063911623418331145,0.21247662951052187,0.03437708403933793
1761507046332764400,8.439764404296875,-0.19501812970936297,0.3298828194901347,0.08622307967599481
1761507046342736400,8.449736328125,-0.3394990813583135,0.4103751369617879,0.13581267468798905
1761507046352708400,8.459708251953124,-0.40271863085925574,0.47323637454435225,0.18714670221451668
1761507046362679600,8.469679443359375,-0.43175183311998844,0.49555678129345176,0.19364457633383572
1761507046372651300,8.4796513671875,-0.39001930828392506,0.47261941168978805,0.172812618044205
1761507046382622500,8.48962255859375,-0.29644319896399973,0.4274431761406362,0.14013185306135564
1761507046392594400,8.499594482421875,-0.17435177377760408,0.37882220696508884,0.08517357062306255
1761507046402566400,8.50956640625,-0.03223170604109764,0.34171617288589473,0.05993172346930951
1761507046412537300,8.519537353515625,0.05770341642796993,0.3256419670499861,0.05972224543709308
1761507046422509300,8.52950927734375,0.1320230366140604,0.30218992592245336,0.06421425962671637
1761507046432481300,8.539481201171874,0.2611357387393713,0.2839600033573806,0.013935038382746278
1761507046442452500,8.549452392578125,0.32132571128606796,0.24306217577978967,-0.0630782778667286
1761507046452424200,8.559424072265625,0.2679886733740568,0.2203065924838185,-0.2107438509011641
1761507046462395400,8.5693955078125,0.15481296057105062,0.23685879109501837,-0.3481957806961611
1761507046472367400,8.579367431640625,-0.024324293917417524,0.26991628043577076,-0.4195690452320501
1761507046482339300,8.58933935546875,-0.23576982681453226,0.3832135737918317,-0.4248008814709261
1761507046492310300,8.599310302734375,-0.3697615331530571,0.5044871067240834,-0.3645211117489263
1761507046502282500,8.609282470703125,-0.4218254823893308,0.5822811250224709,-0.29443653531670566
1761507046512254500,8.61925439453125,-0.4035977517813444,0.597428717532754,-0.27384894370958207
1761507046522225400,8.629225341796875,-0.2674479906260967,0.5593911016918719,-0.3002993264028802
1761507046532197400,8.639197265625,-0.02620236274898052,0.4724466854713857,-0.33262013549953695
1761507046542168300,8.649168212890626,0.20746084717512128,0.36575887338295576,-0.35102406292464583
1761507046552140500,8.659140625,0.34362639042139054,0.28667393849119543,-0.3395518709914759
1761507046562112300,8.6691123046875,0.3369827146232128,0.2589645321801305,-0.3089753482788801
1761507046572083500,8.67908349609375,0.2864589805662632,0.256921335914731,-0.2800557259278372
1761507046582055400,8.689055419921875,0.2047469120413065,0.25458719387874007,-0.2806117341090925
1761507046592026400,8.6990263671875,0.15265198314487932,0.2551639708533883,-0.28829310065824537
1761507046601998300,8.708998291015625,0.1669710158765316,0.24109964353516697,-0.2625326364578679
1761507046611970300,8.71897021484375,0.16416297271847724,0.23016849967613814,-0.24678631086945532
1761507046621941200,8.728941162109376,0.1431114168614149,0.2065846488624811,-0.25589471454704177
1761507046631913500,8.73891357421875,0.0504109213322401,0.20683862362354993,-0.25767098523825405
1761507046641885200,8.74888525390625,-0.1158972467213869,0.22643588901907205,-0.2612582874068059
1761507046651856400,8.7588564453125,-0.3017097411900759,0.2860034918837249,-0.24111065811952576
1761507046661828400,8.768828369140625,-0.5264169067203999,0.33590631756335493,-0.20673996728835625
1761507046671799300,8.77879931640625,-0.611126988017559,0.34910321439728137,-0.13139840190969407
1761507046681771300,8.788771240234375,-0.5243266564428806,0.3210292125575244,-0.02370276448559016
1761507046691743500,8.798743408203125,-0.25808628804087635,0.2525245622605085,0.052855684135854245
1761507046701714200,8.808714111328126,0.11166413919627666,0.13651611024960875,0.09330726578328757
1761507046711686400,8.818686279296875,0.47446109403371806,-0.01144903025329113,0.07655021051606163
1761507046721658400,8.828658447265624,0.6754284875363111,-0.15682883043810725,0.034073096124082804
1761507046731629300,8.83862939453125,0.6606850919127464,-0.25039471062496305,-0.04694439599914476
1761507046741601500,8.8486015625,0.5958183597266674,-0.29230040007084607,-0.06585448284810408
1761507046751572500,8.858572509765626,0.5572855077147484,-0.33652342654839157,-0.0702685912296176
1761507046761544400,8.86854443359375,0.5438549482554197,-0.37002895191758867,-0.09083333168411627
1761507046771516400,8.878516357421875,0.5457295099556446,-0.4072200339317322,-0.0938741606847383
1761507046781487400,8.8884873046875,0.5771855554491281,-0.45506431964635846,-0.09455463549587875
1761507046791459300,8.898459228515625,0.6224667126774788,-0.5060382816888391,-0.10951163733750581
1761507046801431300,8.908431396484374,0.6501333027601242,-0.5721827787257731,-0.11317490908540785
1761507046811402200,8.91840234375,0.6695137105345725,-0.6208301975168288,-0.13138404459077865
1761507046821374500,8.92837451171875,0.6291460443109274,-0.6529023290820419,-0.15264259426202625
1761507046831345400,8.938345458984376,0.4591074575573206,-0.6614589988946914,-0.13817739452533423
1761507046841317400,8.9483173828125,0.21691724230647086,-0.6248895559102297,-0.11390720541533082
1761507046851289600,8.95828955078125,0.01435118143558502,-0.5615618698596954,-0.06695723819192499
1761507046861260300,8.96826025390625,-0.18760873023569583,-0.49003787174150343,-0.03854655174370855
1761507046871232500,8.978232421875,-0.3976052333682775,-0.4349604199029505,-0.03827675835900009
1761507046881204500,8.98820458984375,-0.5298831215262413,-0.3858720524113625,-0.04538812473416328
1761507046891175400,8.998175537109375,-0.5423667555242777,-0.36219277839921415,-0.04719974073339253
1761507046901147400,9.0081474609375,-0.5064414556622505,-0.36331937127634883,-0.041266587824746966
1761507046911118600,9.01811865234375,-0.500129203775525,-0.3880255041182041,-0.032190241519547996
1761507046921090800,9.0280908203125,-0.536791585740447,-0.41694275184907015,-0.024045002052001652
1761507046931063000,9.03806298828125,-0.5369125817716122,-0.4447742501698434,-0.024793007407709955
1761507046941033700,9.04803369140625,-0.5108277079224586,-0.45679501589648425,-0.06268745191823691
1761507046951006000,9.058005859375,-0.4790682955682277,-0.46166766343414783,-0.11790920759830623
1761507046960978000,9.06797802734375,-0.393363358014822,-0.4730908285938203,-0.18980145450700073
1761507046970948900,9.077948974609376,-0.3406839072287082,-0.505432424750179,-0.23957805999107656
1761507046980920800,9.0879208984375,-0.2806406496763229,-0.5234726699620486,-0.2707161621091887
1761507046990892000,9.09789208984375,-0.21476444818675516,-0.5506069067336619,-0.24988866079896688
1761507047000863700,9.10786376953125,-0.11843407172262668,-0.5803888815350831,-0.17773666697554288
1761507047010836000,9.1178359375,0.0060965633094310755,-0.6005765140391885,-0.1079305056259036
1761507047020807000,9.127806884765626,0.13769874416291714,-0.6211984463073313,-0.07089819437004626
1761507047030779000,9.13777880859375,0.24048808750808237,-0.6582099339708686,-0.06732048201374709
1761507047040751000,9.147751220703125,0.25452654973268507,-0.7003845034860074,-0.05880955103896558
1761507047050721800,9.1577216796875,0.233502466404438,-0.72357102554515,-0.01780541354268789
1761507047060694000,9.167694091796875,0.2723836934626102,-0.729132459064573,0.07405377232413739
1761507047070665000,9.1776650390625,0.24788638106584548,-0.6477326713591813,0.10930541070830076
1761507047080637000,9.187636962890625,0.06619184330999851,-0.49748205026760695,0.08215444199759513
1761507047090609000,9.19760888671875,-0.2667342893987894,-0.3354064052172005,0.005481573216244578
1761507047100580000,9.207580078125,-0.5734907925844193,-0.16124372427091002,-0.14680314751882106
1761507047110551800,9.2175517578125,-0.7883359047919511,-0.009310703050345181,-0.2711864099694416
1761507047120524000,9.22752392578125,-0.9374959541678428,0.14269699084162712,-0.31630667754765596
1761507047130494700,9.23749462890625,-1.0639736316144466,0.291611394893378,-0.34396260010581464
1761507047140467000,9.247467041015625,-1.1250170061200857,0.404247447861731,-0.3724896794753149
1761507047150438000,9.25743798828125,-1.044188734692335,0.45829920991435646,-0.33689741095993664
1761507047160409900,9.267409912109375,-0.8454588909834623,0.45882805609405036,-0.24711718679163602
1761507047170381800,9.2773818359375,-0.5663403363078833,0.4184223959475755,-0.16742730827666819
1761507047180353000,9.28735302734375,-0.18596447016000747,0.3332745077550411,-0.10505542511362582
1761507047190324700,9.29732470703125,0.19231179336011409,0.23794234854802487,-0.06593644377682358
1761507047200297000,9.307296875,0.4192874883443117,0.18546631137952208,-0.09309738589227198
1761507047210268000,9.317267822265626,0.5005687642365694,0.1575792104139924,-0.11248794973455369
1761507047220240000,9.327239990234375,0.5164812036395072,0.1706187247291207,-0.12244411108158527
1761507047230210800,9.3372109375,0.4421019622206688,0.18307152519747613,-0.14249858219269662
1761507047240182800,9.347182861328125,0.4157476237803697,0.22590938092693685,-0.18150602944642305
1761507047250155000,9.357155029296875,0.3716916244328022,0.22889073482528327,-0.19029296435099094
1761507047260126000,9.3671259765625,0.30215865400135516,0.2587432906448841,-0.20520937845390289
1761507047270098000,9.377097900390625,0.2138432416886091,0.294173938857764,-0.19447974851634353
1761507047280070000,9.38706982421875,0.07008885074853896,0.3233087017968297,-0.17381704584639518
1761507047290041000,9.397041015625,-0.10770751052498817,0.39603842244297266,-0.18347886388935147
1761507047300012800,9.4070126953125,-0.27149405114650726,0.4694488188296556,-0.19108988688234238
1761507047309984000,9.41698388671875,-0.4397586139649152,0.5348983193397522,-0.19669110442288218
1761507047319955700,9.426955810546875,-0.6036497840046883,0.5887706331722438,-0.18850743264108896
1761507047329928000,9.436927978515625,-0.6764455556243658,0.6033281508348882,-0.13432667391393333
1761507047339899000,9.44689892578125,-0.5635965905576944,0.5636107652135193,-0.02463014499619603
1761507047349870800,9.456870849609375,-0.36214696649610995,0.5228104066610336,0.054327839047648006
1761507047359841800,9.466841796875,-0.13424188170731066,0.46214054164290425,0.11851813327688723
1761507047369814000,9.47681396484375,0.07271276951134205,0.4070772644601762,0.15730806532241404
1761507047379785700,9.48678564453125,0.2497667879849672,0.39072424168288705,0.15452701976913957
1761507047389757000,9.4967568359375,0.28809271924793717,0.39722690157517787,0.1522197292074561
1761507047399729000,9.50672900390625,0.18523674040734767,0.46160468120053405,0.14521397863123564
1761507047409700900,9.516700927734375,0.04466448663473129,0.5651745073989033,0.16759871932081877
1761507047419672000,9.526672119140626,-0.08571545894742011,0.661357292085886,0.2204921051185578
1761507047429643800,9.536643798828125,-0.10951485220789908,0.7417593009255826,0.2741746685326099
1761507047439615000,9.546614990234374,-0.004891279172897339,0.7759950402654707,0.31645912816300986
1761507047449587000,9.5565869140625,0.15755553727746008,0.7613052745252847,0.33478962502572684
1761507047459559000,9.566558837890625,0.30663200002312657,0.7216308512628078,0.27681729199588295
1761507047469529900,9.57652978515625,0.39802199747562406,0.6556282469145953,0.21666534990463404
1761507047479502000,9.586502197265625,0.442069813516736,0.6102548813581467,0.17795304967258124
1761507047489473800,9.596473876953125,0.44287879181206224,0.6130107559375465,0.1824089331028983
1761507047499445000,9.606445068359376,0.32567455414533614,0.6537880258753895,0.23898502600137142
1761507047509416700,9.616416748046875,0.21255027926862238,0.719361883417517,0.30148108353335407
1761507047519388000,9.626387939453124,0.1660468867689371,0.7682315666571259,0.3760669534401968
1761507047529360000,9.63635986328125,0.20285832181572913,0.7941504362896085,0.3975110157461837
1761507047539331800,9.646331787109375,0.2556453246295452,0.7781617167800664,0.3657644628735259
1761507047549302800,9.656302734375,0.23663725729882715,0.7266996789596974,0.28270814013276246
1761507047559275000,9.66627490234375,0.20745091030299662,0.6855214270055293,0.14723470733650026
1761507047569247000,9.6762470703125,0.2532061147838831,0.6388729269467294,0.03678681206218898
1761507047579218000,9.686218017578126,0.25388766730725765,0.5672245717965066,-0.0020705591963604093
1761507047589190000,9.69618994140625,0.19252163671851158,0.573706627292186,-0.05225169036071747
1761507047599160800,9.706160888671874,0.09398059846758842,0.6247874107100069,-0.07203066899869591
1761507047609133000,9.716133056640626,-0.05794774657785892,0.6598572627864777,-0.06517886687517166
1761507047619104800,9.726104736328125,-0.3289192351549864,0.7136961127407848,-0.04401164874918759
1761507047629076000,9.736075927734374,-0.6357867974996566,0.7453311680629849,-0.040135501435585315
1761507047639048000,9.7460478515625,-0.8418231648296117,0.7900165513552725,-0.03894899506475776
1761507047649020000,9.75602001953125,-0.813607124170661,0.7920984721958637,-0.005645750802010297
1761507047658990800,9.765990966796876,-0.5793775125354528,0.725659814517945,0.09638539458699524
1761507047668963000,9.775963134765625,-0.23135668654739855,0.6298530235365033,0.2348775541499257
1761507047678933800,9.785933837890624,0.10973930861353874,0.5100888722538948,0.3274972029952332
1761507047688906000,9.795906005859376,0.32783962322473525,0.3641813949331641,0.3546862021613866
1761507047698877700,9.805877685546875,0.4107160593539476,0.22413170372992752,0.3061830141466111
1761507047708849000,9.815848876953124,0.43518356113433837,0.11530497991666197,0.26110589159037917
1761507047718820900,9.82582080078125,0.4309019382923841,0.07077990175262093,0.2636227332495153
1761507047728792000,9.8357919921875,0.3834773392945528,0.0819112443588674,0.2820459498969838
1761507047738763800,9.845763671875,0.2377332358419895,0.1317255149722099,0.2735613954724744
1761507047748736000,9.855736083984375,0.053204935964941975,0.18898761737346648,0.24045802116338164
1761507047758706700,9.865706787109374,-0.12391980965733528,0.2180037223689258,0.2054268936621025
1761507047768679000,9.875678955078126,-0.2206809787541628,0.21382731346711514,0.14384488223511724
1761507047778651000,9.88565087890625,-0.23289982433617112,0.20275471531078218,0.07964457806851714
1761507047788621800,9.895621826171874,-0.1540221024543047,0.1863118222929537,0.03736881320122629
1761507047798594000,9.905593994140625,-0.06878419789075851,0.17044029942229388,0.0035255803102627395
1761507047808565000,9.91556494140625,-0.07813128742873668,0.16273498574197293,-0.02372168838176876
1761507047818537000,9.925536865234376,-0.13842062869668006,0.17433496877327562,-0.03764322796212509
1761507047828509000,9.935509033203125,-0.2230681661516428,0.20646832900643347,-0.06888360314462333
1761507047838480000,9.94547998046875,-0.31681612490713595,0.23772110701277852,-0.07445175866577775
1761507047848451800,9.955451904296876,-0.38783027380704876,0.24149200385361907,-0.07879324020249769
1761507047858424000,9.965424072265625,-0.36980537229478355,0.23236381776332854,-0.08815432173321024
1761507047868394800,9.975394775390624,-0.2951367925405502,0.19814634473249315,-0.09396759285554289
1761507047878367000,9.985366943359375,-0.205818340665102,0.143371382971853,-0.08932970392182468
1761507047888338000,9.995337890625,-0.09933423445522785,0.07181947393342852,-0.05924030713904649
1761507047898310000,10.005309814453126,0.040891982358694075,0.005508826549351215,-0.059464343419577924
1761507047908281900,10.01528173828125,0.17949615092873572,-0.07707607928737997,-0.0539199888991192
1761507047918253300,10.02525341796875,0.15521803424060343,-0.08450272215679287,-0.11582995363883673
1761507047928225300,10.035225341796876,0.5454536156237125,-0.2310964281760156,-0.3888241071499884
1761507047938197200,10.045197265625,1.6187158845871685,-0.22199410717934367,-0.26385263301525264
1761507047948168200,10.055168212890624,0.7935755590111017,-0.30193522050902244,-0.2706776567297056
1761507047958140400,10.065140380859376,0.4194143295943737,-0.12691782242953775,-0.12474672546815127
