time,seconds_elapsed,z,y,x
1761507037966571800,0.07357177734375,0.04377904534339905,-0.11139962077140808,-0.07263242453336716
1761507037976544000,0.0835439453125,0.016078708693385124,-0.13717076182365417,-0.11124879866838455
1761507037986514700,0.0935146484375,0.0004804953932762146,-0.15114858746528625,-0.13573698699474335
1761507037996487000,0.10348681640625,-0.0010811816900968552,-0.17077848315238953,-0.1508147418498993
1761507038006457900,0.113457763671875,-0.025297490879893303,-0.19226038455963135,-0.14768749475479126
1761507038016429800,0.123429931640625,-0.03393518924713135,-0.13075494766235352,-0.13909241557121277
1761507038026401800,0.13340185546875,-0.0025952327996492386,0.02443719655275345,-0.1397944539785385
1761507038036373000,0.143373046875,0.02151995711028576,0.17706774175167084,-0.16623085737228394
1761507038046344700,0.1533447265625,0.04954329878091812,0.2578006982803345,-0.18735608458518982
1761507038056317000,0.16331689453125,0.06757555902004242,0.2795371413230896,-0.2044602334499359
1761507038066287900,0.173287841796875,0.06411059945821762,0.25458043813705444,-0.21181805431842804
1761507038076259800,0.183259765625,0.045774199068546295,0.22058813273906708,-0.2036038041114807
1761507038086230800,0.193230712890625,0.028965933248400688,0.1967982053756714,-0.19398245215415955
1761507038096202800,0.20320263671875,0.015184074640274048,0.17311657965183258,-0.17022599279880524
1761507038106175000,0.213175048828125,0.01827065646648407,0.15537989139556885,-0.13326044380664825
1761507038116146000,0.22314599609375,0.020177746191620827,0.12994590401649475,-0.07767733186483383
1761507038126118000,0.233117919921875,0.02394409477710724,0.1011180728673935,-0.02883632481098175
1761507038136089900,0.24308984375,0.02348043955862522,0.0706496462225914,0.009392553009092808
1761507038146061000,0.25306103515625,0.01808709278702736,0.06288312375545502,0.028333526104688644
1761507038156032800,0.26303271484375,0.016021544113755226,0.06668505072593689,0.030823316425085068
1761507038166005000,0.2730048828125,0.01234119851142168,0.08275232464075089,0.021180767565965652
1761507038175975700,0.2829755859375,0.009834897704422474,0.10730694234371185,0.007924883626401424
1761507038185948000,0.292947998046875,0.011586474254727364,0.12431123852729797,-0.0027167638763785362
1761507038195918800,0.3029189453125,0.01721932552754879,0.13112494349479675,-0.012114260345697403
1761507038205890800,0.312890869140625,0.026201730594038963,0.11059078574180603,-0.01589655689895153
1761507038215862800,0.32286279296875,0.025443794205784798,0.09030842036008835,-0.01213723886758089
1761507038225834000,0.332833984375,0.031657323241233826,0.07112331688404083,0.00157159601803869
1761507038235805700,0.3428056640625,0.03230313956737518,0.045216888189315796,0.021560216322541237
1761507038245778000,0.35277783203125,0.030798187479376793,0.027460310608148575,0.046379826962947845
1761507038255748900,0.362748779296875,0.030042648315429688,0.010625137947499752,0.05729958787560463
1761507038265720800,0.372720947265625,0.031541239470243454,0.0000526100629940629,0.06374721974134445
1761507038275691800,0.38269189453125,0.03324299678206444,0.002489402424544096,0.05534441024065018
1761507038285663700,0.392663818359375,0.03384576365351677,0.009755195118486881,0.04529090225696564
1761507038295636000,0.402635986328125,0.03561170771718025,0.016009097918868065,0.04120161756873131
1761507038305607000,0.41260693359375,0.03303162008523941,0.022787436842918396,0.03654024749994278
1761507038315579000,0.422578857421875,0.021370436996221542,0.016940467059612274,0.04179226607084274
1761507038325550800,0.43255078125,0.01560300961136818,0.00635328097268939,0.0462101474404335
1761507038335522000,0.44252197265625,0.007333628833293915,0.0023713228292763233,0.047237325459718704
1761507038345493800,0.45249365234375,0.006712031085044146,-0.014769064262509346,0.046161066740751266
1761507038355466000,0.462466064453125,0.004498411901295185,-0.029203396290540695,0.0409359447658062
1761507038365436700,0.472436767578125,0.009200092405080795,-0.041584569960832596,0.03183843567967415
1761507038375409000,0.482408935546875,0.008470386266708374,-0.041806410998106,0.02360047772526741
1761507038385379800,0.4923798828125,0.01320618111640215,-0.04289954900741577,0.01710955798625946
1761507038395351800,0.502351806640625,0.01149376854300499,-0.03436385095119476,0.01554628275334835
1761507038405323800,0.51232373046875,0.012721039354801178,-0.028586333617568016,0.011496451683342457
1761507038415295000,0.522294921875,0.009869592264294624,-0.013015097938477993,0.014389975927770138
1761507038425266700,0.5322666015625,0.008732132613658905,0.0014274524291977286,0.020546214655041695
1761507038435239000,0.542239013671875,0.008154492825269699,-0.002236524596810341,0.021683383733034134
1761507038445209900,0.5522099609375,0.008430808782577515,-0.009760068729519844,0.01614397205412388
1761507038455181800,0.562181884765625,0.010978654958307743,-0.025122513994574547,0.0037458911538124084
1761507038465152800,0.57215283203125,0.009557959623634815,-0.03956164792180061,-0.011817012913525105
1761507038475124700,0.582124755859375,0.0057805320248007774,-0.042996328324079514,-0.01723574660718441
1761507038485097000,0.592096923828125,0.005355355329811573,-0.03820854797959328,-0.017261389642953873
1761507038495068000,0.60206787109375,0.0014482317492365837,-0.02444160357117653,-0.003912027925252914
1761507038505040000,0.612039794921875,0.001294403336942196,-0.015897203236818314,-0.00025764142628759146
1761507038515011800,0.62201171875,-0.0005522323772311211,-0.014933938160538673,0.0027954066172242165
1761507038524983000,0.631983154296875,0.00135748740285635,-0.022921351715922356,-0.0020954872015863657
1761507038534954800,0.641954833984375,-0.0017379052005708218,-0.028950214385986328,-0.0070750657469034195
1761507038544927000,0.651927001953125,-0.0031081014312803745,-0.03244375064969063,-0.009169908240437508
1761507038554897700,0.661897705078125,-0.002063609194010496,-0.030873548239469528,0.0011367914266884327
1761507038564870000,0.671869873046875,-0.0018538725562393665,-0.013028355315327644,0.016033144667744637
1761507038574840800,0.6818408203125,-0.002248286735266447,-0.00113281374797225,0.02730444259941578
1761507038584812800,0.691812744140625,-0.005322056822478771,0.0034209215082228184,0.028987333178520203
1761507038594784800,0.70178466796875,-0.009552753530442715,-0.007050361484289169,0.019138164818286896
1761507038604756000,0.711755859375,-0.01644621044397354,-0.030256830155849457,0.0030112010426819324
1761507038614727700,0.721727783203125,-0.015644598752260208,-0.05606765300035477,-0.018411265686154366
1761507038624700000,0.731699951171875,-0.009706994518637657,-0.06661930680274963,-0.024101337417960167
1761507038634670800,0.7416708984375,-0.004297315608710051,-0.0610482431948185,-0.015891611576080322
1761507038644642800,0.751642822265625,0.004882154054939747,-0.04347745329141617,0.00575779564678669
1761507038654615000,0.761614990234375,0.013966729864478111,-0.03469621017575264,0.02759864740073681
1761507038664585700,0.771585693359375,0.018810393288731575,-0.0391843244433403,0.04723420739173889
1761507038674558000,0.781557861328125,0.011612934060394764,-0.0548732727766037,0.0575702004134655
1761507038684529000,0.79152880859375,-0.001401711255311966,-0.08207682520151138,0.06402315944433212
1761507038694500900,0.8015009765625,-0.013406708836555481,-0.09120747447013855,0.07005015760660172
1761507038704472800,0.811472900390625,-0.026110081002116203,-0.08583390712738037,0.07664502412080765
1761507038714444000,0.821444091796875,-0.0320473313331604,-0.06499706208705902,0.07548893988132477
1761507038724415700,0.831415771484375,-0.036142684519290924,-0.03365342319011688,0.07545503973960876
1761507038734388000,0.841387939453125,-0.03706307336688042,0.00047951150918379426,0.07110636681318283
1761507038744358700,0.851358642578125,-0.03499529883265495,0.03217261657118797,0.05456113442778587
1761507038754331000,0.861330810546875,-0.0358821339905262,0.05528486147522926,0.03704366087913513
1761507038764301800,0.8713017578125,-0.034056808799505234,0.06988580524921417,0.017562750726938248
1761507038774273800,0.881273681640625,-0.029689757153391838,0.06998620927333832,0.00030014151707291603
1761507038784246000,0.89124609375,-0.019386708736419678,0.060938067734241486,-0.01171029731631279
1761507038794217000,0.901217041015625,-0.001024744939059019,0.04453352838754654,-0.027258362621068954
1761507038804189000,0.91118896484375,0.02199828252196312,0.031810544431209564,-0.03264487162232399
1761507038814161000,0.921160888671875,0.03608107939362526,0.023312930017709732,-0.03356819227337837
1761507038824131800,0.9311318359375,0.04672033712267876,0.027305688709020615,-0.026191234588623047
1761507038834103800,0.941103759765625,0.055970292538404465,0.03430687636137009,-0.012902327813208103
1761507038844076000,0.951075927734375,0.0633876845240593,0.04729734733700752,0.0018245342653244734
1761507038854046700,0.961046630859375,0.08132567256689072,0.05864481255412102,0.021509556099772453
1761507038864019000,0.97101904296875,0.10152795165777206,0.05840976908802986,0.03701820969581604
1761507038873990000,0.980989990234375,0.10834617912769318,0.0488857738673687,0.05294737592339516
1761507038883961900,0.9909619140625,0.11224722117185593,0.024067137390375137,0.06666892766952515
1761507038893933800,1.000933837890625,0.11087356507778168,-0.013948954641819,0.07031186670064926
1761507038903905000,1.010905029296875,0.10669831186532974,-0.061108749359846115,0.06881334632635117
1761507038913877200,1.020877197265625,0.1094440296292305,-0.09531119465827942,0.06384575366973877
1761507038923849500,1.030849365234375,0.11403748393058777,-0.1102682426571846,0.052142493426799774
1761507038933820200,1.040820068359375,0.11122837662696838,-0.09369326382875443,0.04147493466734886
1761507038943792400,1.05079248046875,0.10634566098451614,-0.06098959967494011,0.026185307651758194
1761507038953763300,1.060763427734375,0.09663764387369156,-0.03347541764378548,0.006824391894042492
1761507038963735300,1.0707353515625,0.0779896154999733,-0.017245637252926826,-0.01938697323203087
1761507038973707300,1.080707275390625,0.0724630206823349,-0.015083684585988522,-0.048668961971998215
1761507038983678500,1.090678466796875,0.06309325993061066,-0.01445086020976305,-0.07397244870662689
1761507038993650200,1.100650146484375,0.05951876938343048,-0.005978811532258987,-0.09274081140756607
1761507039003622400,1.110622314453125,0.06038922443985939,0.01777397282421589,-0.09893444925546646
1761507039013593000,1.120593017578125,0.06028536334633827,0.04875665530562401,-0.08405803143978119
1761507039023565300,1.1305654296875,0.06352046877145767,0.07369184494018555,-0.05840121954679489
1761507039033537000,1.140537109375,0.0730426013469696,0.08045732975006104,-0.030502475798130035
1761507039043508200,1.15050830078125,0.08422696590423584,0.06430722028017044,-0.00417339988052845
1761507039053480200,1.160480224609375,0.09633690118789673,0.034860916435718536,0.007216939702630043
1761507039063451400,1.170451416015625,0.10418158024549484,-0.0002636675490066409,0.009105921722948551
1761507039073423000,1.180423095703125,0.1047951728105545,-0.02205205336213112,0.01339787244796753
1761507039083395300,1.190395263671875,0.09862387925386429,-0.0317976288497448,0.010222090408205986
1761507039093366300,1.2003662109375,0.09766540676355362,-0.025872094556689262,0.012876196764409542
1761507039103338200,1.210338134765625,0.0944887325167656,-0.007291319314390421,0.020649774000048637
1761507039113310500,1.220310546875,0.09660487622022629,0.010224824771285057,0.017977291718125343
1761507039123281200,1.23028125,0.09134256094694138,0.015833064913749695,0.01069852989166975
1761507039133253400,1.24025341796875,0.08256904035806656,0.012307040393352509,-0.003587198443710804
1761507039143224300,1.250224365234375,0.07512684166431427,0.0025968882255256176,-0.018083583563566208
1761507039153196300,1.2601962890625,0.06304967403411865,-0.006796879693865776,-0.023304443806409836
1761507039163168300,1.270168212890625,0.051911283284425735,-0.0065338206477463245,-0.019335497170686722
1761507039173139500,1.280139404296875,0.052568286657333374,0.00023273925762623549,-0.00677842739969492
1761507039183111200,1.290111083984375,0.06495983153581619,0.0055740876123309135,-0.0025508864782750607
1761507039193083400,1.30008349609375,0.07053249329328537,0.004899508785456419,-0.007442580536007881
1761507039203054000,1.31005419921875,0.06707514077425003,-0.006078897975385189,-0.017767123878002167
1761507039213026300,1.3200263671875,0.06536645442247391,-0.009588678367435932,-0.029360394924879074
1761507039222997200,1.329997314453125,0.059295233339071274,-0.01240064762532711,-0.03730730712413788
1761507039232969200,1.33996923828125,0.07002084702253342,-0.01835041679441929,-0.04304216057062149
1761507039242941200,1.349941162109375,0.08331355452537537,-0.02228572964668274,-0.04964657127857208
1761507039252912400,1.359912353515625,0.10018414258956909,-0.030679481104016304,-0.05557743087410927
1761507039262884000,1.369884033203125,0.10438686609268188,-0.02486797422170639,-0.05815742537379265
1761507039272856300,1.379856201171875,0.10792487114667892,-0.013034484349191189,-0.06397456675767899
1761507039282827300,1.3898271484375,0.09866532683372498,-0.002583707682788372,-0.06875840574502945
1761507039292799200,1.39979931640625,0.09889063239097595,0.014710061252117157,-0.07305354624986649
1761507039302771500,1.409771484375,0.09917375445365906,0.038926173001527786,-0.07482779026031494
1761507039312742100,1.4197421875,0.10967273265123367,0.06377213448286057,-0.05922725796699524
1761507039322714400,1.42971435546875,0.1219567134976387,0.08457297831773758,-0.03152238950133324
1761507039332685300,1.439685302734375,0.13964489102363586,0.09322825074195862,0.008335812017321587
1761507039342657300,1.4496572265625,0.15178462862968445,0.08219286799430847,0.041901569813489914
1761507039352629200,1.459629150390625,0.16092699766159058,0.07165900617837906,0.07057183235883713
1761507039362600400,1.469600341796875,0.16057802736759186,0.06604567915201187,0.08691804856061935
1761507039372572200,1.479572265625,0.15946562588214874,0.0745086744427681,0.09555787593126297
1761507039382544400,1.48954443359375,0.16171535849571228,0.08954206854104996,0.09803735464811325
1761507039392515000,1.49951513671875,0.16738203167915344,0.11638166755437851,0.09126946330070496
1761507039402487300,1.5094873046875,0.17407673597335815,0.14414681494235992,0.08270705491304398
1761507039412459000,1.519458984375,0.1769481599330902,0.15172776579856873,0.06940057128667831
1761507039422430200,1.52943017578125,0.17778801918029785,0.13787604868412018,0.07077772915363312
1761507039432402200,1.539402099609375,0.17275571823120117,0.10524991899728775,0.07148000597953796
1761507039442373400,1.549373291015625,0.168027862906456,0.07288941740989685,0.08845997601747513
1761507039452345000,1.559344970703125,0.15813501179218292,0.04797075688838959,0.10392335802316666
1761507039462317300,1.5693173828125,0.15320801734924316,0.047081638127565384,0.11771484464406967
1761507039472288300,1.579288330078125,0.15420538187026978,0.06373970955610275,0.12717172503471375
1761507039482260200,1.58926025390625,0.16140195727348328,0.09257406741380692,0.12394063174724579
1761507039492232400,1.599232421875,0.16928118467330933,0.11895135045051575,0.11128821223974228
1761507039502203100,1.609203125,0.17251238226890564,0.14027412235736847,0.10367168486118317
1761507039512175400,1.61917529296875,0.17469005286693573,0.13913428783416748,0.09725959599018097
1761507039522146300,1.629146240234375,0.16940458118915558,0.10024192184209824,0.0934147909283638
1761507039532118300,1.6391181640625,0.1557236611843109,0.02992061898112297,0.08374325186014175
1761507039542090200,1.64909033203125,0.1398523598909378,-0.04954274743795395,0.07553055882453918
1761507039552061400,1.6590615234375,0.11637046188116074,-0.12446253001689911,0.06135482341051102
1761507039562033200,1.669033203125,0.08239822089672089,-0.18322598934173584,0.028135156258940697
1761507039572005400,1.67900537109375,0.05029408261179924,-0.20087848603725433,-0.006473153363913298
1761507039581976000,1.68897607421875,0.020644547417759895,-0.19015300273895264,-0.035956285893917084
1761507039591948300,1.6989482421875,-0.0024376031942665577,-0.15581341087818146,-0.057445865124464035
1761507039601920000,1.708919921875,-0.024797488003969193,-0.11459573358297348,-0.07294968515634537
1761507039611891200,1.71889111328125,-0.057233989238739014,-0.04305869713425636,-0.06548857688903809
1761507039621863200,1.72886328125,-0.08337754011154175,0.05540141090750694,-0.026937907561659813
1761507039631834400,1.73883447265625,-0.09878365695476532,0.14921419322490692,0.013739212416112423
1761507039641806000,1.74880615234375,-0.10803574323654175,0.19966840744018555,0.03639541193842888
1761507039651778300,1.7587783203125,-0.11574453115463257,0.2049872726202011,0.041966475546360016
1761507039661749200,1.768749267578125,-0.1274738758802414,0.17869211733341217,0.026803387328982353
1761507039671721200,1.77872119140625,-0.1446629762649536,0.12723957002162933,-0.0008298383909277618
1761507039681693400,1.788693359375,-0.16293476521968842,0.06028782203793526,-0.055499397218227386
1761507039691664100,1.7986640625,-0.17635975778102875,-0.03402722626924515,-0.10013637691736221
1761507039701636400,1.80863623046875,-0.18365587294101715,-0.11009398102760315,-0.11714697629213333
1761507039711607300,1.818607177734375,-0.16854217648506165,-0.15639357268810272,-0.095167376101017
1761507039721579300,1.828579345703125,-0.13188034296035767,-0.16641350090503693,-0.08062998205423355
1761507039731551200,1.83855126953125,-0.07842190563678741,-0.12976014614105225,-0.08233840018510818
1761507039741522400,1.8485224609375,-0.026935040950775146,-0.07598094642162323,-0.1041921004652977
1761507039751494100,1.858494140625,0.0081837959587574,-0.018361330032348633,-0.15052631497383118
1761507039761466400,1.86846630859375,0.03362410515546799,0.03405515477061272,-0.21514178812503815
1761507039771437000,1.87843701171875,0.05454030632972717,0.0708155632019043,-0.28118765354156494
1761507039781409300,1.8884091796875,0.07388457655906677,0.09214034676551819,-0.3327929973602295
1761507039791380200,1.898380126953125,0.10149329900741577,0.08728966116905212,-0.35308679938316345
1761507039801352200,1.908352294921875,0.12436643987894058,0.0565786212682724,-0.32143083214759827
1761507039811324200,1.91832421875,0.1385379135608673,0.022020643576979637,-0.21152856945991516
1761507039821295400,1.92829541015625,0.1435084193944931,-0.014825131744146347,-0.024396035820245743
1761507039831267000,1.93826708984375,0.13838663697242737,-0.00843460951000452,0.2156360000371933
1761507039841239300,1.9482392578125,0.15610797703266144,0.029217416420578957,0.43502625823020935
1761507039851210200,1.958210205078125,0.1928396224975586,0.04381420090794563,0.5953823924064636
1761507039861182200,1.96818212890625,0.24557830393314362,0.09666069597005844,0.6941697597503662
1761507039871153200,1.978153076171875,0.309866726398468,0.14054559171199799,0.7245334982872009
1761507039881125000,1.988125,0.3762573003768921,0.15146417915821075,0.697364866733551
1761507039891097300,1.998097412109375,0.40991008281707764,0.1514095813035965,0.6281666159629822
1761507039901068300,2.008068359375,0.41121599078178406,0.12097056210041046,0.5467275381088257
1761507039911039500,2.01803955078125,0.38127487897872925,0.06612515449523926,0.4706641733646393
1761507039921011500,2.028011474609375,0.3501683473587036,0.008907303214073181,0.4099423587322235
1761507039930982700,2.037982666015625,0.33176618814468384,-0.06083236262202263,0.3631402254104614
1761507039940954400,2.047954345703125,0.32867762446403503,-0.11759759485721588,0.32388296723365784
1761507039950925600,2.057925537109375,0.3274374008178711,-0.1714983731508255,0.26859521865844727
1761507039960897500,2.0678974609375,0.3234901428222656,-0.2218162566423416,0.1876392960548401
1761507039970869500,2.077869384765625,0.3122856914997101,-0.26885297894477844,0.08401063084602356
1761507039980840400,2.08784033203125,0.2790266275405884,-0.30107685923576355,-0.02294963411986828
1761507039990812400,2.0978125,0.23370493948459625,-0.3010725975036621,-0.12512794137001038
1761507040000784400,2.107784423828125,0.1811274141073227,-0.2623036503791809,-0.21276602149009705
1761507040010755600,2.117755615234375,0.13613863289356232,-0.19496960937976837,-0.2740573585033417
1761507040020727300,2.127727294921875,0.10701378434896469,-0.11352597922086716,-0.31068944931030273
1761507040030699500,2.137699462890625,0.08170656114816666,-0.028473133221268654,-0.3080936670303345
1761507040040670500,2.14767041015625,0.05180053040385246,0.05652642995119095,-0.27904510498046875
1761507040050642400,2.157642333984375,0.03220925107598305,0.10217993706464767,-0.2446567714214325
1761507040060613400,2.16761328125,0.023155495524406433,0.10954932123422623,-0.2184872031211853
1761507040070585600,2.177585693359375,0.019074467942118645,0.09044539928436279,-0.20591388642787933
1761507040080557600,2.1875576171875,0.017326796427369118,0.06425550580024719,-0.2082742154598236
1761507040090528500,2.197528564453125,0.013889454305171967,0.041845276951789856,-0.20807555317878723
1761507040100500500,2.20750048828125,-0.003407467156648636,0.03180957958102226,-0.20636779069900513
1761507040110472400,2.217472412109375,-0.015596223063766956,0.035727888345718384,-0.19979217648506165
1761507040120443600,2.227443603515625,-0.025827722623944283,0.04147658497095108,-0.18307437002658844
1761507040130415400,2.237415283203125,-0.02292514219880104,0.04253518953919411,-0.16622161865234375
1761507040140386600,2.247386474609375,-0.01716211810708046,0.02985657937824726,-0.15041354298591614
1761507040150358500,2.257358642578125,-0.018319793045520782,0.0036337627097964287,-0.13605830073356628
1761507040160330500,2.26733056640625,-0.01758732460439205,-0.029723934829235077,-0.11303839832544327
1761507040170301400,2.277301513671875,-0.026827426627278328,-0.06601456552743912,-0.09192992001771927
1761507040180273400,2.2872734375,-0.04906078428030014,-0.0954468622803688,-0.061075981706380844
1761507040190245400,2.297245361328125,-0.07529425621032715,-0.10597486793994904,-0.02319517731666565
1761507040200216600,2.307216552734375,-0.1049274206161499,-0.09453989565372467,0.011352334171533585
1761507040210188300,2.317188232421875,-0.1326461285352707,-0.08382467180490494,0.013887131586670876
1761507040220160500,2.327160400390625,-0.15039019286632538,-0.07503000646829605,-0.006070942617952824
1761507040230131500,2.33713134765625,-0.16919343173503876,-0.06905866414308548,-0.04879390820860863
1761507040240103400,2.347103515625,-0.19133998453617096,-0.06646426767110825,-0.08883681148290634
1761507040250074400,2.357074462890625,-0.21507540345191956,-0.0554792582988739,-0.11312191188335419
1761507040260046600,2.367046630859375,-0.23822812736034393,-0.04572516307234764,-0.12339745461940765
1761507040270018600,2.3770185546875,-0.2523668706417084,-0.04426548629999161,-0.11027445644140244
1761507040279989500,2.386989501953125,-0.2643229365348816,-0.019988738000392914,-0.06769926100969315
1761507040289961500,2.39696142578125,-0.26647213101387024,0.004999702330678701,-0.010874863713979721
1761507040299933400,2.406933349609375,-0.26357004046440125,0.02196711301803589,0.036041855812072754
1761507040309904600,2.416904541015625,-0.25617125630378723,0.032104965299367905,0.059637460857629776
1761507040319876400,2.42687646484375,-0.24879319965839386,0.03356107696890831,0.058685000985860825
1761507040329847600,2.43684765625,-0.25104036927223206,0.032456666231155396,0.034499503672122955
1761507040339819500,2.446819580078125,-0.2570610046386719,0.0330333448946476,0.008281594142317772
1761507040349791500,2.45679150390625,-0.2651759386062622,0.026993829756975174,-0.011372800916433334
1761507040359762400,2.466762451171875,-0.27461928129196167,0.017802627757191658,-0.009988410398364067
1761507040369734400,2.476734375,-0.27580201625823975,0.006268209777772427,0.003491444978863001
1761507040379706400,2.486706298828125,-0.2736906111240387,-0.005553504452109337,0.024067295715212822
1761507040389677600,2.496677490234375,-0.26620447635650635,-0.020924469456076622,0.04775425046682358
1761507040399649300,2.506649169921875,-0.26317015290260315,-0.03911604732275009,0.06634680926799774
1761507040409620500,2.516620361328125,-0.25671836733818054,-0.06156409904360771,0.07300257682800293
1761507040419592400,2.526592529296875,-0.2623881995677948,-0.08494069427251816,0.07930327206850052
1761507040429564400,2.536564453125,-0.268534779548645,-0.07963700592517853,0.09643059223890305
1761507040439535400,2.546535400390625,-0.27328938245773315,-0.06592199206352234,0.08739817142486572
1761507040449507600,2.556507568359375,-0.28147777915000916,-0.10236815363168716,0.01422915793955326
1761507040459479600,2.5664794921875,-0.28166913986206055,-0.1447102278470993,-0.11551438271999359
1761507040469450500,2.576450439453125,-0.2676768898963928,-0.15802603960037231,-0.2636188864707947
1761507040479422500,2.58642236328125,-0.2609727382659912,-0.13249365985393524,-0.40103816986083984
1761507040489394400,2.59639453125,-0.257260262966156,-0.06892134994268417,-0.4830057621002197
1761507040499365600,2.60636572265625,-0.25271156430244446,0.017522254958748817,-0.493294358253479
1761507040509337300,2.61633740234375,-0.247512549161911,0.11013874411582947,-0.42422154545783997
1761507040519308500,2.62630859375,-0.22878557443618774,0.18931016325950623,-0.3095220923423767
1761507040529280500,2.636280517578125,-0.19253090023994446,0.22122308611869812,-0.20484787225723267
1761507040539252500,2.64625244140625,-0.14384567737579346,0.20399338006973267,-0.13684456050395966
1761507040549223400,2.656223388671875,-0.10438162088394165,0.15273872017860413,-0.09183739125728607
1761507040559195400,2.6661953125,-0.08398859202861786,0.0971577912569046,-0.06987209618091583
1761507040569167400,2.67616748046875,-0.06742559373378754,0.018530629575252533,-0.07400292903184891
1761507040579138600,2.686138671875,-0.060881759971380234,-0.061396051198244095,-0.07665535807609558
1761507040589110300,2.6961103515625,-0.0590716116130352,-0.13754168152809143,-0.06362318247556686
1761507040599081500,2.70608154296875,-0.05283431336283684,-0.20846731960773468,-0.04190567508339882
1761507040609053400,2.716053466796875,-0.04972560331225395,-0.27194029092788696,-0.005047257523983717
1761507040619025400,2.726025390625,-0.053964730352163315,-0.3280965983867645,0.03366198018193245
1761507040628996400,2.735996337890625,-0.0700875073671341,-0.3712589740753174,0.06913021951913834
1761507040638968600,2.745968505859375,-0.10078566521406174,-0.3878544867038727,0.08619023859500885
1761507040648940500,2.7559404296875,-0.14554060995578766,-0.3731730282306671,0.08797428756952286
1761507040658911500,2.765911376953125,-0.20317526161670685,-0.32162415981292725,0.08276918530464172
1761507040668883500,2.775883544921875,-0.25404325127601624,-0.24974331259727478,0.06272890418767929
1761507040678854400,2.7858544921875,-0.30601662397384644,-0.1746191829442978,0.03153282031416893
1761507040688826600,2.79582666015625,-0.35254979133605957,-0.1085144579410553,0.0052556744776666164
1761507040698798300,2.80579833984375,-0.38710322976112366,-0.060121893882751465,-0.022474758327007294
1761507040708769500,2.81576953125,-0.41854050755500793,-0.033221304416656494,-0.03592531755566597
1761507040718741500,2.825741455078125,-0.4436013400554657,-0.020397920161485672,-0.03949977457523346
1761507040728713500,2.83571337890625,-0.46580570936203003,-0.019712423905730247,-0.024873429909348488
1761507040738684400,2.845684326171875,-0.48447245359420776,-0.01653100736439228,0.0031794365495443344
1761507040748656400,2.855656494140625,-0.49181637167930603,-0.003914813511073589,0.03281509503722191
1761507040758627300,2.86562744140625,-0.48930492997169495,0.022066038101911545,0.06542949378490448
1761507040768599600,2.875599609375,-0.4777180552482605,0.05114589259028435,0.09170451015233994
1761507040778571300,2.8855712890625,-0.4723775386810303,0.06618145853281021,0.10738565772771835
1761507040788542500,2.89554248046875,-0.4713077247142792,0.07559999078512192,0.12553642690181732
1761507040798514400,2.905514404296875,-0.47399893403053284,0.08657976239919662,0.14614534378051758
1761507040808486400,2.915486328125,-0.48136815428733826,0.08302391320466995,0.14777013659477234
1761507040818457300,2.925457275390625,-0.48858538269996643,0.07374455779790878,0.13336943089962006
1761507040828429600,2.9354296875,-0.4995051324367523,0.06778440624475479,0.10096994787454605
1761507040838400300,2.945400146484375,-0.506193995475769,0.06912343949079514,0.058473851531744
1761507040848372500,2.95537255859375,-0.5052152872085571,0.08174549043178558,0.009728948585689068
1761507040858344400,2.965344482421875,-0.49919500946998596,0.10073723644018173,-0.037787292152643204
1761507040868315400,2.9753154296875,-0.491792768239975,0.12398263812065125,-0.06716196238994598
1761507040878287600,2.98528759765625,-0.48420771956443787,0.13697385787963867,-0.07793112844228745
1761507040888259300,2.99525927734375,-0.46787482500076294,0.14115342497825623,-0.08766045421361923
1761507040898230500,3.00523046875,-0.44996631145477295,0.1305057853460312,-0.1023889109492302
1761507040908203300,3.015203369140625,-0.4310533404350281,0.09531212598085403,-0.13755649328231812
1761507040918175500,3.025175537109375,-0.4036322832107544,0.04955155402421951,-0.17990760505199432
1761507040928146400,3.035146484375,-0.3815666735172272,0.01944558136165142,-0.21093235909938812
1761507040938118400,3.045118408203125,-0.3606905937194824,0.013072323054075241,-0.2234431952238083
1761507040948089300,3.05508935546875,-0.3425541818141937,0.01697625033557415,-0.2108994424343109
1761507040958061600,3.0650615234375,-0.3270212411880493,0.03368747979402542,-0.17152926325798035
1761507040968033300,3.075033203125,-0.30442219972610474,0.051228124648332596,-0.11173250526189804
1761507040978004500,3.08500439453125,-0.2702163755893707,0.059402111917734146,-0.04939539358019829
1761507040987976200,3.09497607421875,-0.238175630569458,0.04071710631251335,-0.0026396079920232296
1761507040997948400,3.104948486328125,-0.2075749635696411,0.016590885818004608,0.015944955870509148
1761507041007919400,3.11491943359375,-0.19178269803524017,-0.011661258526146412,0.019616656005382538
1761507041017891300,3.124891357421875,-0.18390509486198425,-0.041095636785030365,0.007782632019370794
1761507041027862300,3.1348623046875,-0.18335887789726257,-0.06251384317874908,-0.018022067844867706
1761507041037834500,3.14483447265625,-0.18722094595432281,-0.06887517869472504,-0.048442136496305466
1761507041047806200,3.15480615234375,-0.18840472400188446,-0.07066242396831512,-0.0766141265630722
1761507041057777400,3.16477734375,-0.19096806645393372,-0.0740165114402771,-0.09899871051311493
1761507041067749400,3.174749267578125,-0.190344899892807,-0.06844544410705566,-0.11661605536937714
1761507041077721300,3.184721435546875,-0.18692629039287567,-0.06908322125673294,-0.12534311413764954
1761507041087692300,3.1946923828125,-0.18210995197296143,-0.06568609178066254,-0.1221688985824585
1761507041097664300,3.204664306640625,-0.17964830994606018,-0.06202881783246994,-0.1125752404332161
1761507041107635200,3.21463525390625,-0.1775212436914444,-0.0657990574836731,-0.10389439761638641
1761507041117607400,3.224607421875,-0.17630599439144135,-0.0628846064209938,-0.09438995271921158
1761507041127579400,3.234579345703125,-0.17625460028648376,-0.0440019890666008,-0.0829082727432251
1761507041137550300,3.24455029296875,-0.16947822272777557,-0.019345704466104507,-0.07947199791669846
1761507041147522600,3.2545224609375,-0.15945754945278168,0.008808169513940811,-0.08650779724121094
1761507041157494300,3.264494384765625,-0.1418001800775528,0.04045089706778526,-0.09347063302993774
1761507041167465500,3.274465576171875,-0.11266839504241943,0.06753364950418472,-0.09055820107460022
1761507041177437200,3.284437255859375,-0.07930313050746918,0.09374433010816574,-0.07032639533281326
1761507041187408400,3.294408447265625,-0.052519988268613815,0.10929718613624573,-0.03150469809770584
1761507041197380400,3.30438037109375,-0.03414047509431839,0.10269632190465927,0.019567959010601044
1761507041207352300,3.314352294921875,-0.016797704622149467,0.08116280287504196,0.0771324560046196
1761507041217323300,3.3243232421875,-0.002062657382339239,0.050825294107198715,0.13490375876426697
1761507041227295500,3.33429541015625,0.018640490248799324,0.02197953127324581,0.16782842576503754
1761507041237267200,3.34426708984375,0.038047224283218384,0.0042393566109240055,0.17407624423503876
1761507041247238400,3.35423828125,0.062238048762083054,0.00018629163969308138,0.1564359962940216
1761507041257210400,3.36421044921875,0.08834049105644226,0.01766088977456093,0.1325186789035797
1761507041267181300,3.374181396484375,0.11750103533267975,0.04354015737771988,0.11002401262521744
1761507041277153300,3.3841533203125,0.14355407655239105,0.06929314136505127,0.10238918662071228
1761507041287125200,3.394125244140625,0.16488945484161377,0.07833803445100784,0.11124712228775024
1761507041297096200,3.40409619140625,0.17348900437355042,0.07479289919137955,0.14312134683132172
1761507041307068400,3.414068359375,0.1714295744895935,0.054498013108968735,0.18079309165477753
1761507041317040400,3.424040283203125,0.16059288382530212,0.0289605762809515,0.21696260571479797
1761507041327011300,3.43401123046875,0.15020816028118134,0.019969211891293526,0.2340393215417862
1761507041336983600,3.443983642578125,0.1382596343755722,0.01288290973752737,0.20642435550689697
1761507041346954200,3.453954345703125,0.1256660670042038,-0.05997239053249359,0.11137454211711884
1761507041356926500,3.463926513671875,0.11351347714662552,-0.14029689133167267,-0.0025756543036550283
1761507041366898200,3.473898193359375,0.09525298327207565,-0.1880766600370407,-0.1057683527469635
1761507041376869400,3.483869384765625,0.06904646754264832,-0.20993205904960632,-0.19168759882450104
1761507041386841300,3.49384130859375,0.03984863683581352,-0.1939975619316101,-0.2544764280319214
1761507041396813300,3.503813232421875,0.007329618092626333,-0.14989198744297028,-0.27503666281700134
1761507041406784300,3.5137841796875,-0.011473629623651505,-0.10442544519901276,-0.2599394619464874
1761507041416756500,3.523756591796875,-0.020092034712433815,-0.06616433709859848,-0.21448928117752075
1761507041426727200,3.53372705078125,-0.02655765786767006,-0.03843417018651962,-0.14868630468845367
1761507041436699400,3.543699462890625,-0.027759132906794548,-0.024356281384825706,-0.07765050232410431
1761507041446671400,3.55367138671875,-0.019374435767531395,-0.01885152794420719,-0.021969668567180634
1761507041456642300,3.563642333984375,-0.010241154581308365,-0.03676752373576164,0.005098732188344002
1761507041466614300,3.5736142578125,-0.0044434526935219765,-0.06515894830226898,-0.015386036597192287
1761507041476586200,3.583586181640625,-0.009277564473450184,-0.088964082300663,-0.05416690558195114
1761507041486557200,3.59355712890625,-0.008716435171663761,-0.08986049890518188,-0.0910135954618454
1761507041496529400,3.603529296875,-0.007587341591715813,-0.07800496369600296,-0.10208466649055481
1761507041506500400,3.613500244140625,0.0003190510906279087,-0.04666168615221977,-0.05857767164707184
1761507041516472300,3.623472412109375,0.015239754691720009,-0.010091206058859825,0.024125883355736732
1761507041526444500,3.633444580078125,0.04202796146273613,0.030878597870469093,0.10633952915668488
1761507041536415200,3.643415283203125,0.06827393174171448,0.06136405095458031,0.1601904332637787
1761507041546387500,3.653387451171875,0.08533866703510284,0.07899551093578339,0.18178173899650574
1761507041556359200,3.663359130859375,0.09968695789575577,0.08656194061040878,0.18891973793506622
1761507041566330400,3.673330322265625,0.11635302007198334,0.07154330611228943,0.1889341175556183
1761507041576302300,3.68330224609375,0.137888103723526,0.048300083726644516,0.18131417036056519
1761507041586273500,3.6932734375,0.15891723334789276,0.016575708985328674,0.18800510466098785
1761507041596245200,3.703245361328125,0.18207022547721863,-0.018701115623116493,0.20604272186756134
1761507041606217500,3.713217529296875,0.20227856934070587,-0.05946985259652138,0.23234356939792633
1761507041616188200,3.723188232421875,0.21926675736904144,-0.10311499983072281,0.27172335982322693
1761507041626160400,3.733160400390625,0.23480363190174103,-0.1375664472579956,0.31352564692497253
1761507041636132400,3.74313232421875,0.25064364075660706,-0.16585125029087067,0.34139636158943176
1761507041646103300,3.753103271484375,0.25224605202674866,-0.1858782321214676,0.3411896824836731
1761507041656075300,3.7630751953125,0.24371866881847382,-0.1901196837425232,0.32181644439697266
1761507041666046500,3.77304638671875,0.22924651205539703,-0.18566234409809113,0.2820224165916443
1761507041676018200,3.78301806640625,0.21012817323207855,-0.1687367856502533,0.23534689843654633
1761507041685990400,3.792990478515625,0.19176754355430603,-0.1599547564983368,0.19063162803649902
1761507041695961300,3.80296142578125,0.16862061619758606,-0.1589781641960144,0.15451431274414062
1761507041705933300,3.812933349609375,0.1468239724636078,-0.16413670778274536,0.12632742524147034
1761507041715905500,3.822905517578125,0.1274118423461914,-0.16731028258800507,0.10555511713027954
1761507041725876200,3.832876220703125,0.10539282858371735,-0.16703571379184723,0.0753314346075058
1761507041735848400,3.842848388671875,0.0816626027226448,-0.16417425870895386,0.037542205303907394
1761507041745820200,3.852820068359375,0.05931895226240158,-0.1526201367378235,-0.007173868361860514
1761507041755791400,3.862791259765625,0.04119865223765373,-0.11167162656784058,-0.0352168045938015
1761507041765763300,3.872763427734375,0.03540148213505745,-0.04900744557380676,-0.040192652493715286
1761507041775734500,3.882734619140625,0.04015474393963814,0.022947967052459717,-0.022386452183127403
1761507041785706200,3.892706298828125,0.05477283522486687,0.07994094491004944,0.012278051115572453
1761507041795678500,3.902678466796875,0.061984021216630936,0.11021777987480164,0.03181203082203865
1761507041805649400,3.9126494140625,0.05958903953433037,0.11085400730371475,0.03519770875573158
1761507041815621400,3.922621337890625,0.04426216334104538,0.10523536801338196,0.027811959385871887
1761507041825593300,3.93259326171875,0.029975373297929764,0.09832552820444107,0.010829247534275055
1761507041835564300,3.942564208984375,0.013861242681741714,0.09479775279760361,-0.031966909766197205
1761507041845536500,3.95253662109375,0.010678233578801155,0.1025126650929451,-0.0840812399983406
1761507041855507500,3.962507568359375,0.01526142843067646,0.12620803713798523,-0.12747342884540558
1761507041865479400,3.9724794921875,0.011180134490132332,0.14556975662708282,-0.1525081992149353
1761507041875451400,3.982451416015625,0.005914488807320595,0.1547742784023285,-0.16392771899700165
1761507041885422600,3.992422607421875,0.0028220266103744507,0.15031640231609344,-0.16573095321655273
1761507041895394300,4.002394287109375,0.0020041759125888348,0.12197914719581604,-0.1692245900630951
1761507041905364200,4.0123642578125,0.006697731092572212,0.09165612608194351,-0.17648224532604218
1761507041915336200,4.022336181640625,0.01901862397789955,0.0663653165102005,-0.18836724758148193
1761507041925307400,4.032307373046875,0.028015846386551857,0.052318472415208817,-0.19376493990421295
1761507041935279000,4.042279052734375,0.03196100890636444,0.049619730561971664,-0.20220811665058136
1761507041945251300,4.052251220703125,0.03057323582470417,0.05350368469953537,-0.20338043570518494
1761507041955222000,4.062221923828125,0.027938658371567726,0.061794158071279526,-0.2064046710729599
1761507041965194200,4.0721943359375,0.028465431183576584,0.062207747250795364,-0.20872029662132263
1761507041975166200,4.082166259765625,0.03113614208996296,0.06229019910097122,-0.2036459892988205
1761507041985137200,4.09213720703125,0.038510169833898544,0.060261137783527374,-0.18956239521503448
1761507041995109400,4.102109375,0.036539990454912186,0.05003854259848595,-0.18214404582977295
1761507042005080300,4.112080322265625,0.03808542340993881,0.034259580075740814,-0.1648646593093872
1761507042015052300,4.12205224609375,0.03833141550421715,0.00901542417705059,-0.15449434518814087
1761507042025024300,4.132024169921875,0.0355132557451725,-0.017307527363300323,-0.14495784044265747
1761507042034995200,4.1419951171875,0.03469546139240265,-0.033062852919101715,-0.14548799395561218
1761507042044967200,4.15196728515625,0.034667763859033585,-0.03488152474164963,-0.14634579420089722
1761507042054939400,4.161939453125,0.0307711623609066,-0.02181147411465645,-0.14397764205932617
1761507042064910000,4.17191015625,0.019132617861032486,-0.004056979436427355,-0.14055387675762177
1761507042074882300,4.18188232421875,0.012762287631630898,-0.0013067306717857718,-0.1257648468017578
1761507042084853200,4.191853271484375,0.0038926296401768923,-0.013501611538231373,-0.12115757912397385
1761507042094825200,4.2018251953125,-0.004717424977570772,-0.04004144296050072,-0.10950431227684021
1761507042104797200,4.211797119140625,-0.017102722078561783,-0.05999251455068588,-0.09910546988248825
1761507042114768400,4.221768310546875,-0.02492814138531685,-0.06168687716126442,-0.08523435145616531
1761507042124740000,4.231739990234375,-0.025400586426258087,-0.051379647105932236,-0.067296102643013
1761507042134712300,4.24171240234375,-0.02264552377164364,-0.027651295065879822,-0.05620060861110687
1761507042144683000,4.25168310546875,-0.027921512722969055,-0.010591351427137852,-0.03879924863576889
1761507042154655200,4.2616552734375,-0.040580905973911285,-0.00284641538746655,-0.031154727563261986
1761507042164626200,4.271626220703125,-0.05566398799419403,-0.004771614447236061,-0.021036047488451004
1761507042174598100,4.28159814453125,-0.06690273433923721,-0.016723545268177986,-0.008361980319023132
1761507042184570400,4.2915703125,-0.07591540366411209,-0.02679668553173542,0.010122488252818584
1761507042194541300,4.301541259765625,-0.07978180795907974,-0.04328896477818489,0.03012765571475029
1761507042204513300,4.31151318359375,-0.08496484905481339,-0.05422310531139374,0.04262800142168999
1761507042214485200,4.3214853515625,-0.09021777659654617,-0.050959065556526184,0.060341641306877136
1761507042224456200,4.331456298828125,-0.09949223697185516,-0.03861131891608238,0.07013993710279465
1761507042234428200,4.34142822265625,-0.10829796642065048,-0.026301881298422813,0.08032193034887314
1761507042244399400,4.3513994140625,-0.11751143634319305,-0.015044698491692543,0.0961456373333931
1761507042254371000,4.36137109375,-0.11929423362016678,-0.009225479327142239,0.12608644366264343
1761507042264343300,4.37134326171875,-0.13166196644306183,-0.005776419769972563,0.15998955070972443
1761507042274314200,4.381314208984375,-0.14582571387290955,-0.01177428662776947,0.19038009643554688
1761507042284286200,4.3912861328125,-0.1773143857717514,-0.03643382713198662,0.19912086427211761
1761507042294259200,4.40125927734375,-0.2213490903377533,-0.09985802322626114,0.16299143433570862
1761507042304231200,4.411231201171875,-0.269335001707077,-0.1728888303041458,0.08116979897022247
1761507042314202400,4.421202392578125,-0.3054024279117584,-0.1980997920036316,-0.01033538207411766
1761507042324174000,4.431174072265625,-0.3299567699432373,-0.1656065583229065,-0.09087204188108444
1761507042334145300,4.441145263671875,-0.34391871094703674,-0.1065291315317154,-0.14503152668476105
1761507042344117200,4.4511171875,-0.34979498386383057,-0.01023615337908268,-0.15686607360839844
1761507042354089200,4.461089111328125,-0.34961485862731934,0.09246311336755753,-0.11152546107769012
1761507042364060200,4.47106005859375,-0.3437314033508301,0.18643487989902496,-0.05249650031328201
1761507042374032400,4.481032470703125,-0.32194042205810547,0.25484174489974976,0.029168730601668358
1761507042384004000,4.491004150390625,-0.2835027277469635,0.3067856431007385,0.11528870463371277
1761507042393975300,4.500975341796875,-0.23488083481788635,0.31458449363708496,0.1846136450767517
1761507042403947000,4.510947021484375,-0.1861329972743988,0.2903614342212677,0.23494765162467957
1761507042413918200,4.520918212890625,-0.1492651402950287,0.2582767903804779,0.27543574571609497
1761507042423890200,4.53089013671875,-0.12640216946601868,0.20413953065872192,0.30313050746917725
1761507042433862100,4.540862060546875,-0.11983678489923477,0.12559764087200165,0.304969847202301
1761507042443833000,4.5508330078125,-0.1096896156668663,0.04523516073822975,0.28244003653526306
1761507042453805300,4.560805419921875,-0.10212791711091995,-0.04065636545419693,0.22712986171245575
1761507042463777300,4.57077734375,-0.08375796675682068,-0.11979405581951141,0.16021794080734253
1761507042473748200,4.580748291015625,-0.06669566035270691,-0.17899565398693085,0.10516161471605301
1761507042483720200,4.59072021484375,-0.05455084517598152,-0.21217411756515503,0.06189589947462082
1761507042493691100,4.600691162109375,-0.04546568542718887,-0.23249685764312744,0.04058174416422844
1761507042503663400,4.610663330078125,-0.061605773866176605,-0.23983146250247955,0.048504382371902466
1761507042513635000,4.620635009765625,-0.07674781233072281,-0.24113482236862183,0.0740075334906578
1761507042523606300,4.630606201171875,-0.1004888266324997,-0.24500146508216858,0.08655209094285965
1761507042533578200,4.640578125,-0.12694457173347473,-0.25046104192733765,0.08157004415988922
1761507042543550200,4.65055029296875,-0.1519404649734497,-0.2504650354385376,0.05242413654923439
1761507042553521200,4.660521240234375,-0.17435699701309204,-0.23537923395633698,0.012047533877193928
1761507042563493400,4.670493408203125,-0.19679918885231018,-0.22017550468444824,-0.023371709510684013
1761507042573464000,4.680464111328125,-0.22165431082248688,-0.18649612367153168,-0.04032554104924202
1761507042583436300,4.690436279296875,-0.2437359094619751,-0.1398945450782776,-0.033927299082279205
1761507042593408000,4.700407958984375,-0.2595039904117584,-0.09850411117076874,-0.01371938455849886
1761507042603379200,4.710379150390625,-0.267751008272171,-0.06991534680128098,0.01971420645713806
1761507042613351400,4.720351318359375,-0.27431774139404297,-0.0566643625497818,0.04791593924164772
1761507042623323100,4.7303232421875,-0.27349933981895447,-0.07202174514532089,0.06463685631752014
1761507042633294300,4.74029443359375,-0.279124915599823,-0.08820918202400208,0.055442605167627335
1761507042643266300,4.750266357421875,-0.2897743582725525,-0.09641332179307938,0.03126935660839081
1761507042653238300,4.76023828125,-0.3045751750469208,-0.08508551865816116,0.000773383304476738
1761507042663209200,4.770209228515625,-0.318978875875473,-0.05511670187115669,-0.024212660267949104
1761507042673181200,4.78018115234375,-0.32693931460380554,-0.024158518761396408,-0.03997907042503357
1761507042683152100,4.790152099609375,-0.3287883400917053,-0.003182663582265377,-0.04637252166867256
1761507042693124400,4.800124267578125,-0.3305836319923401,0.006093455012887716,-0.05002298951148987
1761507042703096000,4.810095947265625,-0.3314038813114166,0.007594679016619921,-0.04532863572239876
1761507042713067300,4.8200673828125,-0.3375135064125061,0.005316411145031452,-0.03991397097706795
1761507042723039200,4.830039306640625,-0.3429250419139862,-0.0003121794434264302,-0.03589419648051262
1761507042733011200,4.84001123046875,-0.34560680389404297,-0.007628331892192364,-0.0455712154507637
1761507042742982100,4.849982177734375,-0.3375859260559082,-0.013555197045207024,-0.06054883450269699
1761507042752954400,4.859954345703125,-0.3210481107234955,-0.014666997827589512,-0.08795716613531113
1761507042762925000,4.869925048828125,-0.2952122390270233,-0.020928889513015747,-0.1238802820444107
1761507042772897300,4.879897216796875,-0.26386547088623047,-0.03450383245944977,-0.15345846116542816
1761507042782869200,4.889869140625,-0.2402440458536148,-0.0519573912024498,-0.17706871032714844
1761507042792840200,4.899840087890625,-0.22109903395175934,-0.07511240243911743,-0.19649407267570496
1761507042802812400,4.9098125,-0.21029698848724365,-0.08897043019533157,-0.2020110785961151
1761507042812784000,4.9197841796875,-0.2025606781244278,-0.10151482373476028,-0.19432181119918823
1761507042822755300,4.92975537109375,-0.18643790483474731,-0.1051255390048027,-0.19165411591529846
1761507042832727300,4.939727294921875,-0.15839862823486328,-0.11496219038963318,-0.19175539910793304
1761507042842698200,4.9496982421875,-0.11647222936153412,-0.11775264889001846,-0.1857217401266098
1761507042852670200,4.959670166015625,-0.08127474039793015,-0.11378714442253113,-0.16494505107402802
1761507042862642200,4.96964208984375,-0.04509676620364189,-0.10456648468971252,-0.12008462846279144
1761507042872613000,4.979613037109375,-0.01776539906859398,-0.09908447414636612,-0.06599719822406769
1761507042882585300,4.98958544921875,-0.0015267729759216309,-0.09819044917821884,-0.01655028946697712
1761507042892557000,4.99955712890625,0.010168672539293766,-0.10144179314374924,0.022495457902550697
1761507042902528300,5.0095283203125,0.014769017696380615,-0.09799779206514359,0.04218074306845665
1761507042912499700,5.019499755859375,0.031177688390016556,-0.0992094874382019,0.052996717393398285
1761507042922471000,5.029470947265625,0.03880471736192703,-0.10019698739051819,0.037179138511419296
1761507042932442600,5.039442626953125,0.04542892798781395,-0.10587132722139359,0.0034721167758107185
1761507042942414800,5.049414794921875,0.05200826749205589,-0.10460872203111649,-0.03188827261328697
1761507042952385500,5.059385498046875,0.04969565570354462,-0.0976090207695961,-0.07206152379512787
1761507042962357800,5.069357666015625,0.042696867138147354,-0.09388645738363266,-0.11790996789932251
1761507042972329700,5.079329833984375,0.023606939241290092,-0.09365807473659515,-0.1478540599346161
1761507042982300700,5.08930078125,0.010464239865541458,-0.07716378569602966,-0.1513260155916214
1761507042992272600,5.099272705078125,0.008051334880292416,-0.06153097748756409,-0.1389768272638321
1761507043002243800,5.109243896484375,0.021664615720510483,-0.05452180281281471,-0.12338828295469284
1761507043012215600,5.119215576171875,0.04346660524606705,-0.05152270197868347,-0.11057877540588379
1761507043022187800,5.129187744140625,0.06173456087708473,-0.046001169830560684,-0.11005493253469467
1761507043032158700,5.13915869140625,0.0641222596168518,-0.04513978958129883,-0.10908520966768265
1761507043042130700,5.149130615234375,0.0556185208261013,-0.03565893694758415,-0.11027351021766663
1761507043052103000,5.15910302734375,0.04682140052318573,-0.013476146385073662,-0.10080908983945847
1761507043062073600,5.169073486328125,0.05336105823516846,0.00382987386547029,-0.08784615993499756
1761507043072045800,5.1790458984375,0.07262438535690308,0.02519827149808407,-0.07236748188734055
1761507043082017500,5.189017578125,0.0976082980632782,0.034749697893857956,-0.04831327870488167
1761507043091988700,5.19898876953125,0.13047102093696594,0.04997164011001587,-0.012336863204836845
1761507043101960700,5.208960693359375,0.14622361958026886,0.07293075323104858,0.02507043071091175
1761507043111932000,5.218931884765625,0.15739811956882477,0.08548403531312943,0.06725376099348068
1761507043121903600,5.228903564453125,0.16134518384933472,0.08979383111000061,0.09268641471862793
1761507043131875800,5.238875732421875,0.16311311721801758,0.08066526800394058,0.09864835441112518
1761507043141846800,5.2488466796875,0.16405507922172546,0.06176454573869705,0.08745615184307098
1761507043151818800,5.25881884765625,0.17142432928085327,0.0514347180724144,0.07346862554550171
1761507043161789700,5.268789794921875,0.1661030650138855,0.057676635682582855,0.0630764365196228
1761507043171761700,5.27876171875,0.16057562828063965,0.08122430741786957,0.050478316843509674
1761507043181733600,5.288733642578125,0.1477024406194687,0.09980971366167068,0.03613852709531784
1761507043191704800,5.298704833984375,0.13692307472229004,0.11507420986890793,0.02152070216834545
1761507043201676800,5.3086767578125,0.1306161731481552,0.1309618353843689,0.014452140778303146
1761507043211648800,5.318648681640625,0.1362326443195343,0.14949935674667358,0.012319023720920086
1761507043221620000,5.328619873046875,0.13673119246959686,0.1574571430683136,0.015304693020880222
1761507043231591700,5.338591796875,0.1391264647245407,0.15542936325073242,0.012128191068768501
1761507043241564000,5.34856396484375,0.13773123919963837,0.1406797170639038,0.0036606707144528627
1761507043251534600,5.35853466796875,0.125067338347435,0.07560477405786514,-0.02566419541835785
1761507043261506800,5.3685068359375,0.11912155896425247,-0.026075510308146477,-0.06560122966766357
1761507043271477800,5.378477783203125,0.11486023664474487,-0.09128434211015701,-0.10153712332248688
1761507043281449700,5.38844970703125,0.12057404965162277,-0.10670510679483414,-0.11916565150022507
1761507043291421700,5.398421630859375,0.12638743221759796,-0.07757017761468887,-0.11593683809041977
1761507043301393000,5.408392822265625,0.13243626058101654,-0.03566694259643555,-0.09949900954961777
1761507043311364600,5.418364501953125,0.13608916103839874,0.0049728043377399445,-0.07805469632148743
1761507043321336800,5.4283369140625,0.1322702020406723,0.04919033125042915,-0.03429736569523811
1761507043331307800,5.438307861328125,0.12127415835857391,0.08501516282558441,0.015328091569244862
1761507043341279700,5.44827978515625,0.10641132295131683,0.12310875207185745,0.07143530249595642
1761507043351250700,5.458250732421875,0.09901650995016098,0.17018747329711914,0.1375310719013214
1761507043361222700,5.46822265625,0.0945836752653122,0.20192596316337585,0.18144020438194275
1761507043371195000,5.47819482421875,0.09587573260068893,0.20908117294311523,0.19997768104076385
1761507043381165800,5.488165771484375,0.09192413836717606,0.19495311379432678,0.19426892697811127
1761507043391137800,5.4981376953125,0.08712241798639297,0.17063599824905396,0.1682615429162979
1761507043401109800,5.50810986328125,0.082600899040699,0.13521568477153778,0.1321496218442917
1761507043411081000,5.5180810546875,0.07924462854862213,0.11038364470005035,0.1054568812251091
1761507043421052700,5.528052734375,0.08112163096666336,0.1052623838186264,0.08838255703449249
1761507043431023900,5.53802392578125,0.08529467135667801,0.11526323854923248,0.08033791184425354
1761507043440995600,5.54799560546875,0.09056559950113297,0.1340979039669037,0.07705769687891006
1761507043450967800,5.5579677734375,0.1048094779253006,0.1338261216878891,0.07221005111932755
1761507043460938800,5.567938720703125,0.10839036107063293,0.12300755083560944,0.059211697429418564
1761507043470910700,5.57791064453125,0.11497246474027634,0.11494216322898865,0.04902997240424156
1761507043480882700,5.587882568359375,0.12439312785863876,0.1029566079378128,0.04993624612689018
1761507043490854000,5.59785400390625,0.13272255659103394,0.06367339193820953,0.06132620945572853
1761507043500825600,5.60782568359375,0.14039725065231323,-0.009456478990614414,0.10590779781341553
1761507043510796800,5.617796875,0.14893735945224762,-0.04729904606938362,0.1634320318698883
1761507043520768800,5.627768798828125,0.16137245297431946,-0.09649961441755295,0.21180568635463715
1761507043530740700,5.63774072265625,0.17486868798732758,-0.14002041518688202,0.2642969489097595
1761507043540711700,5.647711669921875,0.1846504807472229,-0.16322027146816254,0.31037041544914246
1761507043550683600,5.65768359375,0.19626139104366302,-0.1590404212474823,0.34070953726768494
1761507043560656000,5.66765576171875,0.20537419617176056,-0.1355939507484436,0.34177401661872864
1761507043570626800,5.677626708984375,0.21258001029491425,-0.09527023881673813,0.3167605996131897
1761507043580598800,5.687598876953125,0.21657794713974,-0.0586368627846241,0.26788708567619324
1761507043590569700,5.69756982421875,0.22052307426929474,-0.029321106150746346,0.2180827260017395
1761507043600542000,5.7075419921875,0.21603989601135254,-0.019874341785907745,0.1810232400894165
1761507043610513700,5.717513671875,0.20315641164779663,-0.02915273979306221,0.16022560000419617
1761507043620484900,5.72748486328125,0.18764349818229675,-0.05660406872630119,0.1521705985069275
1761507043630456600,5.73745654296875,0.16884028911590576,-0.09065918624401093,0.15272054076194763
1761507043640428800,5.7474287109375,0.16591773927211761,-0.12184533476829529,0.15304970741271973
1761507043650399700,5.757399658203125,0.16791942715644836,-0.14202789962291718,0.1480848491191864
1761507043660371700,5.767371826171875,0.17203375697135925,-0.14231711626052856,0.12724320590496063
1761507043670342700,5.7773427734375,0.17127877473831177,-0.11772367358207703,0.09685026854276657
1761507043680315000,5.78731494140625,0.16970032453536987,-0.08465094119310379,0.06122143566608429
1761507043690286600,5.79728662109375,0.16790033876895905,-0.05523792281746864,0.02502751350402832
1761507043700257800,5.8072578125,0.16490481793880463,-0.037629634141922,-0.01155553013086319
1761507043710229800,5.817229736328125,0.15543675422668457,-0.02969970367848873,-0.04648912698030472
1761507043720201700,5.82720166015625,0.15658457577228546,-0.03626519814133644,-0.06921441107988358
1761507043730172700,5.837172607421875,0.15270483493804932,-0.04977897182106972,-0.08615230768918991
1761507043740144600,5.84714453125,0.15594856441020966,-0.06616140902042389,-0.10710766166448593
1761507043750115600,5.857115478515625,0.15372678637504578,-0.0786186158657074,-0.12758728861808777
1761507043760087800,5.867087890625,0.14031536877155304,-0.07633762061595917,-0.15350784361362457
1761507043770059800,5.877059814453125,0.1306201070547104,-0.05353488028049469,-0.18310454487800598
1761507043780030700,5.88703076171875,0.11852802336215973,-0.011024702340364456,-0.21925854682922363
1761507043790003000,5.8970029296875,0.12026620656251907,0.036582667380571365,-0.2568660080432892
1761507043799974700,5.906974609375,0.12606045603752136,0.07625924050807953,-0.28488194942474365
1761507043809945900,5.91694580078125,0.1332164853811264,0.10821864008903503,-0.297079861164093
1761507043819917600,5.92691748046875,0.14145924150943756,0.11634448170661926,-0.29711103439331055
1761507043829888800,5.936888671875,0.14372430741786957,0.10385371744632721,-0.2967860996723175
1761507043839860700,5.94686083984375,0.14153891801834106,0.08237612247467041,-0.2882605195045471
1761507043849832700,5.956832763671875,0.1368120163679123,0.06400277465581894,-0.2740558087825775
1761507043859803600,5.9668037109375,0.1345512568950653,0.04390229657292366,-0.26573556661605835
1761507043869776000,5.97677587890625,0.13195809721946716,0.018720779567956924,-0.2588382661342621
1761507043879746600,5.98674658203125,0.13455867767333984,-0.005891889333724976,-0.2579061686992645
1761507043889718800,5.99671875,0.1320350617170334,-0.020550785586237907,-0.26665380597114563
1761507043899690800,6.006690673828125,0.12828080356121063,-0.03520829603075981,-0.275779128074646
1761507043909661700,6.01666162109375,0.11702921241521835,-0.03622758761048317,-0.27515530586242676
1761507043919634000,6.026634033203125,0.1056111752986908,-0.033064816147089005,-0.2651383578777313
1761507043929606000,6.03660595703125,0.0900278240442276,-0.026591524481773376,-0.2540613114833832
1761507043939576800,6.046576904296875,0.07686620950698853,-0.026348112151026726,-0.22893545031547546
1761507043949549000,6.056549072265625,0.0637846440076828,-0.038511574268341064,-0.20245791971683502
1761507043959520800,6.066520751953125,0.04442372918128967,-0.059521518647670746,-0.17512217164039612
1761507043969492000,6.076491943359375,0.0164024755358696,-0.08817430585622787,-0.15352675318717957
1761507043979464000,6.0864638671875,-0.01631232723593712,-0.1169913038611412,-0.13621540367603302
1761507043989435000,6.096434814453125,-0.0462174266576767,-0.14468656480312347,-0.12931370735168457
1761507043999406800,6.10640673828125,-0.07832876592874527,-0.15877708792686462,-0.13748908042907715
1761507044009378800,6.11637890625,-0.10417826473712921,-0.16153790056705475,-0.14402416348457336
1761507044019349800,6.126349853515625,-0.13044022023677826,-0.14159294962882996,-0.14592912793159485
1761507044029322000,6.136322021484375,-0.15605102479457855,-0.10809090733528137,-0.14909528195858002
1761507044039294000,6.1462939453125,-0.17635390162467957,-0.061405427753925323,-0.15440988540649414
1761507044049265000,6.156264892578125,-0.19940367341041565,-0.0022937473841011524,-0.1565345823764801
1761507044059237000,6.166237060546875,-0.21834301948547363,0.07841307669878006,-0.1602664738893509
1761507044069207800,6.176207763671875,-0.23165804147720337,0.15776799619197845,-0.15140576660633087
1761507044079180000,6.186179931640625,-0.23747678101062775,0.22435633838176727,-0.1390007585287094
1761507044089151700,6.19615185546875,-0.23803220689296722,0.2690921127796173,-0.11406923085451126
1761507044099123000,6.206123046875,-0.23877203464508057,0.27372920513153076,-0.08356565237045288
1761507044109095000,6.216094970703125,-0.25775450468063354,0.2382192611694336,-0.048443201929330826
1761507044119067000,6.22606689453125,-0.2880184054374695,0.16494105756282806,0.006924447603523731
1761507044129037800,6.236037841796875,-0.3125244677066803,0.07262055575847626,0.08607945591211319
1761507044139010000,6.246010009765625,-0.34478759765625,-0.039985887706279755,0.13596126437187195
1761507044148980700,6.255980712890625,-0.37400367856025696,-0.1827162653207779,0.09622233361005783
1761507044158953000,6.265952880859375,-0.4048425555229187,-0.3219660222530365,-0.0299230869859457
1761507044168925000,6.275925048828125,-0.40329453349113464,-0.3713558316230774,-0.18193171918392181
1761507044178896000,6.285895751953125,-0.39285972714424133,-0.2919217348098755,-0.3001353144645691
1761507044188867800,6.295867919921875,-0.3748626112937927,-0.13666470348834991,-0.3660331070423126
1761507044198839800,6.30583984375,-0.34475797414779663,0.023686351254582405,-0.3599688410758972
1761507044208810800,6.315810791015625,-0.3276705741882324,0.16770611703395844,-0.29075461626052856
1761507044218783000,6.325782958984375,-0.31350788474082947,0.25054851174354553,-0.1893044114112854
1761507044228754000,6.33575390625,-0.29494139552116394,0.257163405418396,-0.09500279277563095
1761507044238726000,6.345725830078125,-0.2636527121067047,0.2091308832168579,-0.02006463333964348
1761507044248698000,6.355697998046875,-0.22398872673511505,0.14777857065200806,0.04113176092505455
1761507044258668800,6.365668701171875,-0.18699076771736145,0.08460146188735962,0.08241581916809082
1761507044268641000,6.37564111328125,-0.144493967294693,0.023879583925008774,0.09937421977519989
1761507044278612000,6.385612060546875,-0.11336160451173782,-0.028301062062382698,0.09727884829044342
1761507044288584000,6.395583984375,-0.09074725210666656,-0.06547840684652328,0.08985639363527298
1761507044298556000,6.405555908203125,-0.07298716902732849,-0.08671312034130096,0.09154883027076721
1761507044308527000,6.415527099609375,-0.05746056139469147,-0.09795306622982025,0.0959511399269104
1761507044318498800,6.425498779296875,-0.049439117312431335,-0.10365781933069229,0.10884270817041397
1761507044328471000,6.435470947265625,-0.05286369472742081,-0.09606972336769104,0.12957842648029327
1761507044338441700,6.445441650390625,-0.05551806837320328,-0.07416282594203949,0.16131503880023956
1761507044348414000,6.4554140625,-0.06674700975418091,-0.0522875115275383,0.1888866424560547
1761507044358385000,6.465385009765625,-0.08154752850532532,-0.029222676530480385,0.20676150918006897
1761507044368356900,6.47535693359375,-0.10217473655939102,0.0009327237494289875,0.21529364585876465
1761507044378328800,6.485328857421875,-0.12577380239963531,0.03807423636317253,0.21536794304847717
1761507044388300000,6.495300048828125,-0.14825299382209778,0.0689009577035904,0.20848621428012848
1761507044398271700,6.505271728515625,-0.17545746266841888,0.09425798058509827,0.19541862607002258
1761507044408244000,6.515243896484375,-0.20229491591453552,0.10484586656093597,0.18057027459144592
1761507044418215000,6.52521484375,-0.22426731884479523,0.11073172092437744,0.16579532623291016
1761507044428187000,6.535186767578125,-0.2435416430234909,0.11234628409147263,0.15328501164913177
1761507044438157800,6.54515771484375,-0.2556944191455841,0.11435350775718689,0.15157365798950195
1761507044448129800,6.5551298828125,-0.26006847620010376,0.10479312390089035,0.14134235680103302
1761507044458102000,6.56510205078125,-0.2559530735015869,0.08423298597335815,0.13320507109165192
1761507044468073000,6.575072998046875,-0.24723148345947266,0.06529499590396881,0.12197434157133102
1761507044478045000,6.585044921875,-0.24630817770957947,0.04312551021575928,0.11070863157510757
1761507044488017000,6.595016845703125,-0.24522201716899872,0.021485142409801483,0.09186562895774841
1761507044497988000,6.604988037109375,-0.2586640417575836,0.006428695749491453,0.0703912302851677
1761507044507959800,6.614959716796875,-0.2653922736644745,0.008910292759537697,0.056167785078287125
1761507044517931000,6.624930908203125,-0.2734677791595459,0.022017572075128555,0.05024970695376396
1761507044527902700,6.63490283203125,-0.2816337049007416,0.03179263696074486,0.04064380005002022
1761507044537875000,6.644875,-0.2753728926181793,0.04256405681371689,0.031782664358615875
1761507044547846000,6.654845947265625,-0.2646177113056183,0.05291832610964775,0.031077571213245392
1761507044557817900,6.66481787109375,-0.25421833992004395,0.07210081070661545,0.027485765516757965
1761507044567789800,6.674789794921875,-0.23793163895606995,0.0901942104101181,0.025590354576706886
1761507044577761000,6.684760986328125,-0.22827793657779694,0.1143895611166954,0.022570330649614334
1761507044587732700,6.694732666015625,-0.2158147394657135,0.1362556666135788,0.017193065956234932
1761507044597704000,6.704703857421875,-0.19411984086036682,0.15515291690826416,0.003791240742430091
1761507044607676000,6.714676025390625,-0.16758714616298676,0.16471755504608154,-0.013385123573243618
1761507044617647900,6.72464794921875,-0.1399105191230774,0.16074597835540771,-0.028091631829738617
1761507044627618800,6.734618896484375,-0.10232694447040558,0.14273791015148163,-0.04514137655496597
1761507044637590800,6.7445908203125,-0.07032454013824463,0.12203050404787064,-0.052788641303777695
1761507044647563000,6.75456298828125,-0.045095592737197876,0.09725089371204376,-0.04725334048271179
1761507044657534000,6.764533935546875,-0.021916504949331284,0.06192326173186302,-0.03928942233324051
1761507044667506000,6.774505859375,-0.002697108779102564,0.017900846898555756,-0.02716587483882904
1761507044677476900,6.784476806640625,0.037330999970436096,-0.025024250149726868,-0.0431847907602787
1761507044687449000,6.794448974609375,0.09660501778125763,-0.0627184733748436,-0.057926829904317856
1761507044697420800,6.8044208984375,0.1413985937833786,-0.07911821454763412,-0.07616043090820312
1761507044707392000,6.81439208984375,0.16067469120025635,-0.07506527006626129,-0.08085881173610687
1761507044717363700,6.82436376953125,0.15328414738178253,-0.05861971154808998,-0.07655594497919083
1761507044727335000,6.8343349609375,0.13948677480220795,-0.036402225494384766,-0.04200576990842819
1761507044737307000,6.844306884765625,0.13249412178993225,-0.03415877744555473,0.0009587411768734455
1761507044747278800,6.85427880859375,0.13753937184810638,-0.049603525549173355,0.03507820889353752
1761507044757249800,6.864249755859375,0.1511734277009964,-0.07816886156797409,0.03373624384403229
1761507044767222000,6.874221923828125,0.16021855175495148,-0.11333542317152023,0.01550477184355259
1761507044777193700,6.88419384765625,0.1675150841474533,-0.13079936802387238,-0.01572718285024166
1761507044787165000,6.8941650390625,0.15894199907779694,-0.13012096285820007,-0.05666681379079819
1761507044797137000,6.904136962890625,0.14179816842079163,-0.10990196466445923,-0.09081493318080902
1761507044807107800,6.91410791015625,0.12418553978204727,-0.07526356726884842,-0.11073603481054306
1761507044817079800,6.924079833984375,0.10706301033496857,-0.043411631137132645,-0.11428549140691757
1761507044827051800,6.9340517578125,0.09818308055400848,-0.018930725753307343,-0.11137879639863968
1761507044837022700,6.944022705078125,0.09246420860290527,-0.010628055781126022,-0.11401025950908661
1761507044846995000,6.953994873046875,0.08228140324354172,-0.006889038719236851,-0.11493563652038574
1761507044856967000,6.963966796875,0.06487259268760681,-0.003063674084842205,-0.11153371632099152
1761507044866937900,6.973937744140625,0.054150041192770004,0.0035288722719997168,-0.11101870238780975
1761507044876910000,6.98391015625,0.037366267293691635,0.01808943971991539,-0.11293564736843109
1761507044886880800,6.993880859375,0.02951454371213913,0.04976961389183998,-0.1096116304397583
1761507044896853000,7.00385302734375,0.03740415722131729,0.08883818238973618,-0.10124132037162781
1761507044906824700,7.01382470703125,0.04911909997463226,0.1201116293668747,-0.09243584424257278
1761507044916796000,7.0237958984375,0.06521524488925934,0.13203193247318268,-0.08040208369493484
1761507044926768000,7.03376806640625,0.073674775660038,0.12983615696430206,-0.06547559797763824
1761507044936739800,7.04373974609375,0.0853537991642952,0.12943509221076965,-0.039377424865961075
1761507044946711000,7.0537109375,0.09529083967208862,0.1086389496922493,-0.004225215874612331
1761507044956683000,7.06368310546875,0.11043223738670349,0.08666494488716125,0.02836654894053936
1761507044966654000,7.073654052734375,0.13148795068264008,0.06064916402101517,0.05963084101676941
1761507044976626000,7.0836259765625,0.15034765005111694,0.029459018260240555,0.08066689223051071
1761507044986598000,7.093597900390625,0.1653183400630951,-0.0015295228222385049,0.07231201976537704
1761507044996568800,7.10356884765625,0.17430917918682098,-0.009604494087398052,0.050167299807071686
1761507045006541000,7.113541015625,0.1820167899131775,-0.0034639472141861916,0.023619042709469795
1761507045016513000,7.123512939453125,0.18921318650245667,0.0026131202466785908,0.02155243046581745
1761507045026484000,7.13348388671875,0.19441600143909454,0.011405290104448795,0.03258655592799187
1761507045036456200,7.143456298828125,0.19143672287464142,-0.004170740023255348,0.05332059785723686
1761507045046427100,7.15342724609375,0.17971442639827728,-0.02828577533364296,0.0880708172917366
1761507045056399000,7.163399169921875,0.1552990972995758,-0.056043367832899094,0.09589119255542755
1761507045066371000,7.17337109375,0.12723276019096375,-0.11545812338590622,0.039281781762838364
1761507045076342000,7.183342041015625,0.10591813921928406,-0.18151091039180756,-0.04852104187011719
1761507045086314000,7.19331396484375,0.08434192091226578,-0.21947549283504486,-0.13643378019332886
1761507045096286000,7.203285888671875,0.05346549302339554,-0.22626522183418274,-0.2087644338607788
1761507045106257000,7.2132568359375,0.018162749707698822,-0.1910357028245926,-0.23025040328502655
1761507045116229000,7.22322900390625,-0.020677590742707253,-0.11029132455587387,-0.1972317397594452
1761507045126200000,7.233199951171875,-0.04935679957270622,-0.022025691345334053,-0.11404047906398773
1761507045136172000,7.243172119140625,-0.06992705166339874,0.07117003202438354,0.006205777637660503
1761507045146144000,7.25314404296875,-0.07545506954193115,0.13970988988876343,0.1380135715007782
1761507045156115000,7.263114990234375,-0.07635761052370071,0.15584412217140198,0.24389046430587769
1761507045166087000,7.2730869140625,-0.07798666507005692,0.12472332268953323,0.3171975612640381
1761507045176058000,7.28305810546875,-0.08785048127174377,0.08317055553197861,0.35071930289268494
1761507045186029800,7.29302978515625,-0.10386313498020172,0.05458492785692215,0.33901917934417725
1761507045196002000,7.303001953125,-0.12147700786590576,0.027457168325781822,0.28798502683639526
1761507045205973000,7.312972900390625,-0.14342187345027924,0.00502760661765933,0.2252199500799179
1761507045215945000,7.322945068359375,-0.17712657153606415,0.010242076590657234,0.17671926319599152
1761507045225917200,7.332917236328125,-0.1940445452928543,0.03421163186430931,0.14051005244255066
1761507045235888000,7.34288818359375,-0.1954464316368103,0.05088488385081291,0.11050448566675186
1761507045245860000,7.352860107421875,-0.18133403360843658,0.06354837864637375,0.0761120393872261
1761507045255831000,7.3628310546875,-0.1629832535982132,0.06388739496469498,0.034484170377254486
1761507045265803000,7.372802978515625,-0.14977851510047913,0.055741649121046066,-0.01020344253629446
1761507045275775000,7.38277490234375,-0.14347241818904877,0.0339929424226284,-0.06363923847675323
1761507045285746200,7.39274609375,-0.14697988331317902,0.013464976102113724,-0.1228189766407013
1761507045295718000,7.4027177734375,-0.15216399729251862,0.006525577045977116,-0.16768071055412292
1761507045305690000,7.412690185546875,-0.14493174850940704,0.020510151982307434,-0.19773463904857635
1761507045315661000,7.4226611328125,-0.1167946383357048,0.05670330673456192,-0.19756154716014862
1761507045325633000,7.432633056640625,-0.08441878855228424,0.1041918471455574,-0.18185368180274963
1761507045335604000,7.44260400390625,-0.040310975164175034,0.13745765388011932,-0.14208495616912842
1761507045345576000,7.452575927734375,0.002830555196851492,0.16959114372730255,-0.09253301471471786
1761507045355548000,7.4625478515625,0.04593195393681526,0.18573495745658875,-0.04177103191614151
1761507045365519000,7.47251904296875,0.07426466047763824,0.1982249617576599,0.007373154163360596
1761507045375490800,7.48249072265625,0.10294956713914871,0.19772934913635254,0.0459652878344059
1761507045385463000,7.492463134765625,0.12370296567678452,0.1796424388885498,0.07064822316169739
1761507045395434000,7.50243408203125,0.15065628290176392,0.15257273614406586,0.07960709184408188
1761507045405406000,7.512406005859375,0.17977723479270935,0.11757885664701462,0.08171635866165161
1761507045415377000,7.522376953125,0.20456033945083618,0.09056109189987183,0.08726851642131805
1761507045425349000,7.53234912109375,0.22052036225795746,0.05338815972208977,0.10045485198497772
1761507045435321000,7.542321044921875,0.23096847534179688,0.016108695417642593,0.12432955950498581
1761507045445292000,7.5522919921875,0.23939457535743713,-0.03228844702243805,0.14803509414196014
1761507045455264000,7.562263916015625,0.24230514466762543,-0.09128013253211975,0.1652982234954834
1761507045465236000,7.572236083984375,0.25092071294784546,-0.15240377187728882,0.17063584923744202
1761507045475207200,7.582207275390625,0.26325833797454834,-0.19420768320560455,0.16618330776691437
1761507045485179000,7.592178955078125,0.28435805439949036,-0.23360931873321533,0.1563766449689865
1761507045495150000,7.602150146484375,0.29268336296081543,-0.2577252984046936,0.13703303039073944
1761507045505122000,7.6121220703125,0.2907986044883728,-0.2659332752227783,0.12340274453163147
1761507045515094000,7.622093994140625,0.27820852398872375,-0.2547820806503296,0.11347793787717819
1761507045525065000,7.63206494140625,0.2638695538043976,-0.23568178713321686,0.10047395527362823
1761507045535037000,7.642036865234375,0.2435608208179474,-0.22481796145439148,0.07017224282026291
1761507045545009200,7.652009033203125,0.21888601779937744,-0.21889850497245789,0.01500630658119917
1761507045554980000,7.66197998046875,0.1826646327972412,-0.21318815648555756,-0.0600074827671051
1761507045564952000,7.6719521484375,0.14898724853992462,-0.19592005014419556,-0.13224123418331146
1761507045574923000,7.681923095703125,0.11701572686433792,-0.1454848349094391,-0.1803128868341446
1761507045584895200,7.691895263671875,0.10544045269489288,-0.07754860073328018,-0.1905408799648285
1761507045594867000,7.701866943359375,0.0962192565202713,0.002705224324017763,-0.17320796847343445
1761507045604838100,7.711838134765625,0.09101506322622299,0.08284010738134384,-0.12130961567163467
1761507045614810000,7.72181005859375,0.08697637915611267,0.1400218904018402,-0.057282425463199615
1761507045624782000,7.731781982421875,0.08506089448928833,0.15248027443885803,-0.021862344816327095
1761507045634753000,7.7417529296875,0.0833442211151123,0.13482804596424103,-0.011466428637504578
1761507045644725000,7.75172509765625,0.08302375674247742,0.12456735968589783,-0.009879488497972488
1761507045654696000,7.761696044921875,0.08079922199249268,0.12511305510997772,-0.026582567021250725
1761507045664668200,7.771668212890625,0.0803067609667778,0.13283641636371613,-0.05530742555856705
1761507045674640000,7.781639892578125,0.07676582038402557,0.13694541156291962,-0.08363014459609985
1761507045684611000,7.791611083984375,0.0729372650384903,0.12166467308998108,-0.10831468552350998
1761507045694583000,7.8015830078125,0.06829031556844711,0.10185980796813965,-0.11281489580869675
1761507045704554000,7.811553955078125,0.07009629160165787,0.061821870505809784,-0.10594747215509415
1761507045714526000,7.82152587890625,0.07459091395139694,0.011176004074513912,-0.10056362301111221
1761507045724498000,7.831497802734375,0.08464410901069641,-0.0346030592918396,-0.10511355102062225
1761507045734468900,7.84146875,0.09190468490123749,-0.05951293557882309,-0.11202499270439148
1761507045744441000,7.851441162109375,0.10084863007068634,-0.07469635456800461,-0.11726479977369308
1761507045754413000,7.8614130859375,0.10851533710956573,-0.0717889815568924,-0.1163361519575119
1761507045764384000,7.871384033203125,0.11389947682619095,-0.05642178654670715,-0.1255282163619995
1761507045774356200,7.881356201171875,0.1128227636218071,-0.04527938738465309,-0.13122230768203735
1761507045784327000,7.891326904296875,0.10738595575094223,-0.036936525255441666,-0.13110409677028656
1761507045794299100,7.901299072265625,0.1014963760972023,-0.022203650325536728,-0.12909315526485443
1761507045804271000,7.91127099609375,0.09317433089017868,-0.01477225124835968,-0.10402482002973557
1761507045814242000,7.921241943359375,0.0915207788348198,-0.006344678346067667,-0.07259685546159744
1761507045824214000,7.931214111328125,0.09089082479476929,-0.0008057400118559599,-0.04332498833537102
1761507045834186000,7.94118603515625,0.09432017803192139,0.004540023393929005,-0.022069502621889114
1761507045844157000,7.951156982421875,0.09107597172260284,0.0069808089174330235,-0.007128333672881126
1761507045854129200,7.961129150390625,0.08253148198127747,0.008597614243626595,0.0005844467086717486
1761507045864100000,7.97110009765625,0.0713619515299797,0.009452439844608307,-0.000868721806909889
1761507045874072000,7.981072021484375,0.05082019045948982,0.0077962204813957214,-0.012800215743482113
1761507045884044000,7.9910439453125,0.034644149243831635,0.014113770797848701,-0.01666765846312046
1761507045894015000,8.001014892578125,0.012011542916297913,0.03090233914554119,-0.0021731380838900805
1761507045903986000,8.01098583984375,-0.003924584947526455,0.04489985480904579,0.018562233075499535
1761507045913957000,8.02095703125,-0.01705237105488777,0.04903228208422661,0.03513934463262558
1761507045923928600,8.030928466796874,-0.02558864839375019,0.03473776578903198,0.05366212874650955
1761507045933899500,8.0408994140625,-0.03423726558685303,0.013151517137885094,0.06002095714211464
1761507045943871500,8.05087158203125,-0.045882754027843475,-0.011851880699396133,0.05828944593667984
1761507045953843500,8.060843505859374,-0.06640400737524033,-0.0227748341858387,0.056873977184295654
1761507045963814400,8.070814453125,-0.09148715436458588,-0.013372018933296204,0.06588912010192871
1761507045973786400,8.080786376953125,-0.1152966171503067,0.011281395331025124,0.06993019580841064
1761507045983757600,8.090757568359376,-0.13639751076698303,0.049626972526311874,0.07559561729431152
1761507045993729300,8.100729248046875,-0.14720913767814636,0.09207776188850403,0.09213598072528839
1761507046003701500,8.110701416015624,-0.15172848105430603,0.12501217424869537,0.11828465014696121
1761507046013672400,8.12067236328125,-0.157967209815979,0.12302917242050171,0.1447143852710724
1761507046023644400,8.13064453125,-0.1650732010602951,0.0879000648856163,0.17189064621925354
1761507046033616400,8.140616455078124,-0.16964024305343628,0.04426070675253868,0.20380890369415283
1761507046043587300,8.15058740234375,-0.16599372029304504,0.005371406674385071,0.22567184269428253
1761507046053559300,8.160559326171875,-0.157924085855484,-0.043279219418764114,0.20302246510982513
1761507046063530500,8.170530517578126,-0.17244768142700195,-0.13099804520606995,0.13050097227096558
1761507046073502200,8.180502197265625,-0.22148765623569489,-0.21205241978168488,0.012069936841726303
1761507046083474400,8.190474365234374,-0.27673202753067017,-0.2046433389186859,-0.10653728246688843
1761507046093445400,8.2004453125,-0.30328479409217834,-0.14484472572803497,-0.2151883989572525
1761507046103417300,8.210417236328125,-0.2995869517326355,-0.0687531977891922,-0.30064940452575684
1761507046113389600,8.2203896484375,-0.2688106894493103,0.026538163423538208,-0.3425566256046295
1761507046123360500,8.230360595703125,-0.2260705679655075,0.11490354686975479,-0.3228122293949127
1761507046133332500,8.24033251953125,-0.17188189923763275,0.17394395172595978,-0.2463531643152237
1761507046143303400,8.250303466796876,-0.13270875811576843,0.2127027064561844,-0.12531112134456635
1761507046153275400,8.260275390625,-0.10939279198646545,0.22938208281993866,0.011337269097566605
1761507046163247400,8.270247314453124,-0.092938132584095,0.21155968308448792,0.1143859252333641
1761507046173218600,8.280218505859375,-0.06760614365339279,0.15622825920581818,0.17212246358394623
1761507046183190300,8.290190185546875,-0.03574998304247856,0.08627377450466156,0.18037012219429016
1761507046193162500,8.30016259765625,-0.003111348021775484,0.02332809381186962,0.1580570936203003
1761507046203133400,8.310133544921875,0.014187702909111977,-0.006725040264427662,0.13389647006988525
1761507046213105400,8.32010546875,0.025312792509794235,-0.008448904380202293,0.12493174523115158
1761507046223076400,8.330076416015626,0.026383817195892334,0.0208812914788723,0.11688439548015594
1761507046233048300,8.34004833984375,0.028806228190660477,0.05772452801465988,0.10503865033388138
1761507046243020300,8.350020263671874,0.03185812011361122,0.06438067555427551,0.10287677496671677
1761507046252991500,8.359991455078125,0.021237699314951897,0.03950781747698784,0.09025099873542786
1761507046262963200,8.369963134765625,0.0032205721363425255,-0.022649191319942474,0.07769057154655457
1761507046272935400,8.379935302734374,-0.028473174199461937,-0.12729491293430328,0.057707011699676514
1761507046282906400,8.38990625,-0.06384988874197006,-0.22832773625850677,0.031044092029333115
1761507046292878300,8.39987841796875,-0.1012987270951271,-0.29803916811943054,-0.0022515489254146814
1761507046302849300,8.409849365234376,-0.13834905624389648,-0.32184091210365295,-0.03814982250332832
1761507046312821500,8.419821533203125,-0.16533221304416656,-0.27736878395080566,-0.07229261100292206
1761507046322793500,8.42979345703125,-0.18443186581134796,-0.18843571841716766,-0.10112772136926651
1761507046332764400,8.439764404296875,-0.18639594316482544,-0.08799485862255096,-0.1168089509010315
1761507046342736400,8.449736328125,-0.18105973303318024,-0.0034399768337607384,-0.11739511042833328
1761507046352708400,8.459708251953124,-0.16585440933704376,0.05379880964756012,-0.0975194051861763
1761507046362679600,8.469679443359375,-0.15527039766311646,0.07514266669750214,-0.05995642766356468
1761507046372651300,8.4796513671875,-0.1570509821176529,0.06471345573663712,-0.004871870391070843
1761507046382622500,8.48962255859375,-0.16848745942115784,0.034444402903318405,0.04849741980433464
1761507046392594400,8.499594482421875,-0.18266744911670685,-0.012967051938176155,0.09178018569946289
1761507046402566400,8.50956640625,-0.20182263851165771,-0.04861932992935181,0.11615940183401108
1761507046412537300,8.519537353515625,-0.20690234005451202,-0.05328252911567688,0.11786702275276184
1761507046422509300,8.52950927734375,-0.20566636323928833,-0.03949517756700516,0.09864150732755661
1761507046432481300,8.539481201171874,-0.20822779834270477,-0.025643546134233475,0.060234200209379196
1761507046442452500,8.549452392578125,-0.21698009967803955,-0.011897159740328789,0.012376625090837479
1761507046452424200,8.559424072265625,-0.24717502295970917,-0.0059188962914049625,-0.02606796845793724
1761507046462395400,8.5693955078125,-0.2796599864959717,0.000996313407085836,-0.04756854847073555
1761507046472367400,8.579367431640625,-0.3167269229888916,0.005395323038101196,-0.05019548907876015
1761507046482339300,8.58933935546875,-0.3367188572883606,0.013936610892415047,-0.02690177969634533
1761507046492310300,8.599310302734375,-0.3323158621788025,0.02894139289855957,0.006298251450061798
1761507046502282500,8.609282470703125,-0.31626713275909424,0.05703365430235863,0.039002299308776855
1761507046512254500,8.61925439453125,-0.2992556691169739,0.09126698970794678,0.07144252955913544
1761507046522225400,8.629225341796875,-0.2795502543449402,0.11848396807909012,0.09207556396722794
1761507046532197400,8.639197265625,-0.27889484167099,0.1184602677822113,0.0895434319972992
1761507046542168300,8.649168212890626,-0.2854239046573639,0.09920720010995865,0.07506397366523743
1761507046552140500,8.659140625,-0.288994163274765,0.069023996591568,0.050145041197538376
1761507046562112300,8.6691123046875,-0.28847968578338623,0.04578423500061035,0.025033941492438316
1761507046572083500,8.67908349609375,-0.28261300921440125,0.024877358227968216,0.0028673859778791666
1761507046582055400,8.689055419921875,-0.27335038781166077,0.016968676820397377,-0.01603858359158039
1761507046592026400,8.6990263671875,-0.26086682081222534,0.021364225074648857,-0.04113008826971054
1761507046601998300,8.708998291015625,-0.2456820160150528,0.01867811568081379,-0.07267541438341141
1761507046611970300,8.71897021484375,-0.22681565582752228,0.0171731635928154,-0.11853718012571335
1761507046621941200,8.728941162109376,-0.2136000543832779,0.014988888055086136,-0.15862002968788147
1761507046631913500,8.73891357421875,-0.20186005532741547,0.012567275203764439,-0.18834464251995087
1761507046641885200,8.74888525390625,-0.1873357743024826,-0.00189230777323246,-0.19468818604946136
1761507046651856400,8.7588564453125,-0.1661924123764038,-0.013126586563885212,-0.16661207377910614
1761507046661828400,8.768828369140625,-0.14058437943458557,-0.0080998744815588,-0.11373116821050644
1761507046671799300,8.77879931640625,-0.11618316918611526,0.0019021595362573862,-0.0451611690223217
1761507046681771300,8.788771240234375,-0.07917962968349457,0.0070998636074364185,0.020747322589159012
1761507046691743500,8.798743408203125,-0.04778096452355385,-0.0033138953149318695,0.06176639348268509
1761507046701714200,8.808714111328126,-0.02428826130926609,-0.03245735913515091,0.06407830864191055
1761507046711686400,8.818686279296875,-0.010656870901584625,-0.07116081565618515,0.037626732140779495
1761507046721658400,8.828658447265624,-0.008377976715564728,-0.09874209761619568,-0.0010798334842547774
1761507046731629300,8.83862939453125,-0.012986045330762863,-0.09779321402311325,-0.021330777555704117
1761507046741601500,8.8486015625,-0.01409880630671978,-0.09375043213367462,-0.025172043591737747
1761507046751572500,8.858572509765626,-0.009852662682533264,-0.08802489936351776,-0.02469480410218239
1761507046761544400,8.86854443359375,-0.011561080813407898,-0.08916793018579483,-0.01604512333869934
1761507046771516400,8.878516357421875,-0.010288355872035027,-0.09641971439123154,-0.012426687404513359
1761507046781487400,8.8884873046875,-0.011562934145331383,-0.10424866527318954,-0.01565680094063282
1761507046791459300,8.898459228515625,-0.016139043495059013,-0.11540757864713669,-0.029870091006159782
1761507046801431300,8.908431396484374,-0.022750161588191986,-0.12413374334573746,-0.05414377525448799
1761507046811402200,8.91840234375,-0.029053865000605583,-0.12760411202907562,-0.0923050120472908
1761507046821374500,8.92837451171875,-0.037966735661029816,-0.12185145914554596,-0.137290820479393
1761507046831345400,8.938345458984376,-0.04673466086387634,-0.10422585904598236,-0.16903382539749146
1761507046841317400,8.9483173828125,-0.047714464366436005,-0.08284835517406464,-0.17993773519992828
1761507046851289600,8.95828955078125,-0.040209412574768066,-0.07093710452318192,-0.1784122735261917
1761507046861260300,8.96826025390625,-0.027530500665307045,-0.06420973688364029,-0.15659759938716888
1761507046871232500,8.978232421875,-0.012714006006717682,-0.058042921125888824,-0.11420193314552307
1761507046881204500,8.98820458984375,-0.002280621323734522,-0.050353799015283585,-0.06722978502511978
1761507046891175400,8.998175537109375,0.018404683098196983,-0.05295677110552788,-0.03246301785111427
1761507046901147400,9.0081474609375,0.03217494860291481,-0.051041312515735626,-0.004951193928718567
1761507046911118600,9.01811865234375,0.04679357260465622,-0.045980505645275116,0.018832698464393616
1761507046921090800,9.0280908203125,0.05892293527722359,-0.02695418894290924,0.03282000124454498
1761507046931063000,9.03806298828125,0.07114391028881073,-0.006078734528273344,0.04969432204961777
1761507046941033700,9.04803369140625,0.08662176132202148,0.011299347504973412,0.06847326457500458
1761507046951006000,9.058005859375,0.0949244350194931,0.026440484449267387,0.0870346948504448
1761507046960978000,9.06797802734375,0.09606899321079254,0.02954401820898056,0.10773224383592606
1761507046970948900,9.077948974609376,0.09230300784111023,0.03458591178059578,0.1276034116744995
1761507046980920800,9.0879208984375,0.08512049913406372,0.038565535098314285,0.15517006814479828
1761507046990892000,9.09789208984375,0.08168422430753708,0.05002272129058838,0.17745620012283325
1761507047000863700,9.10786376953125,0.08561071008443832,0.061286501586437225,0.19013920426368713
1761507047010836000,9.1178359375,0.0898834839463234,0.06228864938020706,0.18815594911575317
1761507047020807000,9.127806884765626,0.08955959230661392,0.060092877596616745,0.17660151422023773
1761507047030779000,9.13777880859375,0.08554354310035706,0.0580584891140461,0.15477398037910461
1761507047040751000,9.147751220703125,0.08082553744316101,0.06275779753923416,0.1320355236530304
1761507047050721800,9.1577216796875,0.06841520220041275,0.0598115436732769,0.10985353589057922
1761507047060694000,9.167694091796875,0.06088936701416969,0.014538764953613281,0.06901060789823532
1761507047070665000,9.1776650390625,0.055614978075027466,-0.058846235275268555,0.027862906455993652
1761507047080637000,9.187636962890625,0.05691049247980118,-0.1263948231935501,-0.0052425856702029705
1761507047090609000,9.19760888671875,0.056767478585243225,-0.1537628024816513,-0.014602266252040863
1761507047100580000,9.207580078125,0.050321899354457855,-0.1479741483926773,-0.01112592313438654
1761507047110551800,9.2175517578125,0.0452863946557045,-0.11641727387905121,-0.004783871117979288
1761507047120524000,9.22752392578125,0.047447916120290756,-0.06017345190048218,0.010464664548635483
1761507047130494700,9.23749462890625,0.05072999745607376,0.014735407195985317,0.04605834558606148
1761507047140467000,9.247467041015625,0.06148811802268028,0.09583081305027008,0.098548524081707
1761507047150438000,9.25743798828125,0.0723884329199791,0.162932887673378,0.15483789145946503
1761507047160409900,9.267409912109375,0.08486244082450867,0.2015291452407837,0.20990309119224548
1761507047170381800,9.2773818359375,0.09412358701229095,0.21051917970180511,0.2571784555912018
1761507047180353000,9.28735302734375,0.10006584227085114,0.17456650733947754,0.2755877673625946
1761507047190324700,9.29732470703125,0.09663143008947372,0.11154626309871674,0.26479852199554443
1761507047200297000,9.307296875,0.09111639112234116,0.05983965843915939,0.23867405951023102
1761507047210268000,9.317267822265626,0.09103010594844818,0.028380271047353745,0.2114269882440567
1761507047220240000,9.327239990234375,0.08796125650405884,0.0022625960409641266,0.17926767468452454
1761507047230210800,9.3372109375,0.08902733027935028,0.009211582131683826,0.15066079795360565
1761507047240182800,9.347182861328125,0.0979798436164856,0.031762488186359406,0.10829391330480576
1761507047250155000,9.357155029296875,0.10867589712142944,0.05284141004085541,0.052927322685718536
1761507047260126000,9.3671259765625,0.11351028084754944,0.07152535021305084,0.0055664279498159885
1761507047270098000,9.377097900390625,0.12139430642127991,0.07732677459716797,-0.03744122385978699
1761507047280070000,9.38706982421875,0.1358163207769394,0.07068847119808197,-0.06044295057654381
1761507047290041000,9.397041015625,0.1484317034482956,0.05847654491662979,-0.059460245072841644
1761507047300012800,9.4070126953125,0.16228292882442474,0.03642302006483078,-0.038775164633989334
1761507047309984000,9.41698388671875,0.17845231294631958,0.020335927605628967,0.006221869494765997
1761507047319955700,9.426955810546875,0.1913326531648636,0.024546122178435326,0.06876350194215775
1761507047329928000,9.436927978515625,0.212429940700531,0.04324470832943916,0.12533065676689148
1761507047339899000,9.44689892578125,0.23666049540042877,0.061121709644794464,0.1581650674343109
1761507047349870800,9.456870849609375,0.2591349184513092,0.0685412734746933,0.18032203614711761
1761507047359841800,9.466841796875,0.2781975567340851,0.0703827515244484,0.18089659512043
1761507047369814000,9.47681396484375,0.28575506806373596,0.05350762605667114,0.17200268805027008
1761507047379785700,9.48678564453125,0.2860313653945923,0.020219456404447556,0.15136387944221497
1761507047389757000,9.4967568359375,0.28222569823265076,-0.012222107499837875,0.1428942233324051
1761507047399729000,9.50672900390625,0.27691078186035156,-0.030419277027249336,0.14568816125392914
1761507047409700900,9.516700927734375,0.2762383222579956,-0.04044901207089424,0.1700371652841568
1761507047419672000,9.526672119140626,0.2815765142440796,-0.03144774213433266,0.20698833465576172
1761507047429643800,9.536643798828125,0.29401347041130066,-0.01925765350461006,0.23690363764762878
1761507047439615000,9.546614990234374,0.30846285820007324,-0.01284439954906702,0.24866227805614471
1761507047449587000,9.5565869140625,0.3124203085899353,-0.009940488263964653,0.24132873117923737
1761507047459559000,9.566558837890625,0.30793216824531555,-0.014611350372433662,0.21898801624774933
1761507047469529900,9.57652978515625,0.290526807308197,-0.02644936740398407,0.19528640806674957
1761507047479502000,9.586502197265625,0.266110897064209,-0.03662829473614693,0.16358120739459991
1761507047489473800,9.596473876953125,0.23652130365371704,-0.04053808003664017,0.14202344417572021
1761507047499445000,9.606445068359376,0.21850861608982086,-0.04363272711634636,0.13583683967590332
1761507047509416700,9.616416748046875,0.21235112845897675,-0.043966151773929596,0.1357566863298416
1761507047519388000,9.626387939453124,0.21132339537143707,-0.0449322871863842,0.12527179718017578
1761507047529360000,9.63635986328125,0.21328029036521912,-0.05281870439648628,0.10592658817768097
1761507047539331800,9.646331787109375,0.2115420401096344,-0.07857733219861984,0.07391512393951416
1761507047549302800,9.656302734375,0.20118261873722076,-0.09430676698684692,0.05871939659118652
1761507047559275000,9.66627490234375,0.17799875140190125,-0.08065971732139587,0.021383242681622505
1761507047569247000,9.6762470703125,0.15042756497859955,-0.057311251759529114,-0.03885452821850777
1761507047579218000,9.686218017578126,0.12535503506660461,-0.027159729972481728,-0.100096195936203
1761507047589190000,9.69618994140625,0.10258235037326813,0.009614795446395874,-0.16850616037845612
1761507047599160800,9.706160888671874,0.08365869522094727,0.035370007157325745,-0.22622521221637726
1761507047609133000,9.716133056640626,0.07472964376211166,0.05714774131774902,-0.25814640522003174
1761507047619104800,9.726104736328125,0.07043182849884033,0.08959079533815384,-0.25737476348876953
1761507047629076000,9.736075927734374,0.06914898753166199,0.13317662477493286,-0.19961054623126984
1761507047639048000,9.7460478515625,0.06784409284591675,0.1816217601299286,-0.1204255223274231
1761507047649020000,9.75602001953125,0.07003587484359741,0.2110140025615692,-0.04515419900417328
1761507047658990800,9.765990966796876,0.08084927499294281,0.2148018181324005,0.0032332325354218483
1761507047668963000,9.775963134765625,0.09607189893722534,0.21132852137088776,0.013289328664541245
1761507047678933800,9.785933837890624,0.11608312278985977,0.19279515743255615,-0.003026147373020649
1761507047688906000,9.795906005859376,0.12538687884807587,0.1801837533712387,-0.028422316536307335
1761507047698877700,9.805877685546875,0.12283352762460709,0.1724560558795929,-0.04810753092169762
1761507047708849000,9.815848876953124,0.10898802429437637,0.15433058142662048,-0.06570223718881607
1761507047718820900,9.82582080078125,0.10165300965309143,0.12462180107831955,-0.07609278708696365
1761507047728792000,9.8357919921875,0.09473863989114761,0.08353135734796524,-0.07270658016204834
1761507047738763800,9.845763671875,0.09137178957462311,0.04723970964550972,-0.056850533932447433
1761507047748736000,9.855736083984375,0.09576387703418732,0.026084093376994133,-0.02891158126294613
1761507047758706700,9.865706787109374,0.09575685113668442,0.021954599767923355,0.0022012577392160892
1761507047768679000,9.875678955078126,0.09144279360771179,0.028990138322114944,0.035797037184238434
1761507047778651000,9.88565087890625,0.08060245215892792,0.036639004945755005,0.056586772203445435
1761507047788621800,9.895621826171874,0.06551297754049301,0.03541554883122444,0.056774526834487915
1761507047798594000,9.905593994140625,0.05126011744141579,0.02795247733592987,0.04592401161789894
1761507047808565000,9.91556494140625,0.033497098833322525,0.021425601094961166,0.03871110454201698
1761507047818537000,9.925536865234376,0.016270160675048828,0.023651456460356712,0.034386586397886276
1761507047828509000,9.935509033203125,0.0009055850096046925,0.02508343756198883,0.03604493662714958
1761507047838480000,9.94547998046875,-0.0054528433829545975,0.037808336317539215,0.053226929157972336
1761507047848451800,9.955451904296876,-0.009343720972537994,0.05903985723853111,0.0751362219452858
1761507047858424000,9.965424072265625,-0.018860984593629837,0.07759501039981842,0.09189789742231369
1761507047868394800,9.975394775390624,-0.02897673472762108,0.0940442904829979,0.10085517168045044
1761507047878367000,9.985366943359375,-0.039394669234752655,0.10522936284542084,0.11446662247180939
1761507047888338000,9.995337890625,-0.04967021197080612,0.10412468016147614,0.12099482864141464
1761507047898310000,10.005309814453126,-0.06230849772691727,0.0863199532032013,0.11888309568166733
1761507047908281900,10.01528173828125,-0.08191868662834167,0.0494903028011322,0.10739048570394516
1761507047918253300,10.02525341796875,-0.046479955315589905,-0.17815804481506348,0.42143261432647705
1761507047928225300,10.035225341796876,-0.1660468429327011,-0.46220389008522034,0.29075902700424194
1761507047938197200,10.045197265625,-0.2707667350769043,-0.37045103311538696,0.0847916305065155
1761507047948168200,10.055168212890624,-0.20901335775852203,-0.09826666116714478,-0.07671790570020676
1761507047958140400,10.065140380859376,-0.15268632769584656,0.20706316828727722,-0.30729877948760986
